

 Program UNIPLOT                         version 05.36.02
 _______________
 (c) Fugro Netherlands Marine, Nootdorp, The Netherlands


 ASCII representation of data plotted on a graph.

 This ASCII file presents data interpolated to values per fixed depth interval.
 The data are corrected for the depth-offset differences between the various 
 transducers in the penetrometer.

 The records at the start of penetration may include no values or anomalous
 values where a depth offset implies incomplete penetration of a particular
 sensor into the ground.

 The records at the end of penetration may include no values for data channels
 where the transducer did not reach this depth.

 The reference level for test values is (1) the ground surface for onshore tests and (2) the seafloor for nearshore and offshore tests.

 UNICAS data file          : CPT-2003.000                            
 Output using command file : PlotASCII.cmd

 ASCII file created at : date          :05-Jul-2022
                         time          :21:33:46
 Project number                        :20024805                                                                                            
 Date of testing                       :28-Jun-2022                                                                                         
 Location                              :Hong Kong Offshore Wind Farm Project                                                                
 Test name                             :CPT-2003
 Penetrometer                          :F7.5CKE2HAW2/B/3285
 Serial no                             :1701-3285

 Table description:
 Column ID                             :Parameter name
 ___________________________________________________________________________________
 Rec                                   :Record ID, Record ID [-]
 Depth                                 :Depth, Depth [m]
 Time                                  :Time, Time [s]
 Cone                                  :Cone Resistance, Cone Resistance [MPa]
 Friction                              :Sleeve Friction, Sleeve Friction [MPa]
 Pore 2                                :Porewater Pressure, Porewater Pressure at Shoulder [MPa]
 HydroPress                            :Hydrostatic Pressure, Hydrostatic Pressure [MPa]
 qt                                    :Total Cone Resistance, Total Cone Resistance [MPa]
 Fric_ratio                            :Friction Ratio, Friction Ratio [%]
 SigmaVert                             :Vertical stress, Vertical stress [kPa] as specified in ground model
 Qnet                                  :Net Cone Resistance, Net Cone Resistance [MPa], unit weight as specified in ground model
 Bq                                    :Porewater Pressure Ratio, Porewater Pressure Ratio [-], unit weight as specified in ground model


 Data table:
  Rec    Depth      Time       Cone   Friction     Pore 2 HydroPress         qt Fric_ratio  SigmaVert       Qnet         Bq
   No        m         s        MPa        MPa        MPa        MPa        MPa          %        kPa        MPa          -
    1    0.000   2094.72     0.0000                           0.0000     0.0000                0.0000     0.0000           
    2    0.020   2095.74     0.0003               -0.0003     0.0002     0.0002                0.3200    -0.0001     2.9812
    3    0.040   2096.75     0.0020                0.0002     0.0004     0.0020                0.6400     0.0013    -0.3412
    4    0.060   2097.77     0.0011                0.0005     0.0006     0.0012                0.9600     0.0002     2.2759
    5    0.080   2098.79     0.0036                0.0006     0.0008     0.0039                1.2800     0.0026    -0.0467
    6    0.100   2099.80     0.0034                0.0009     0.0010     0.0038                1.6000     0.0022    -0.0159
    7    0.120   2100.78     0.0026     0.0001     0.0015     0.0012     0.0031     2.9735     1.9200     0.0012    -0.2456
    8    0.140   2101.80     0.0097     0.0003     0.0012     0.0014     0.0103     3.4475     2.2400     0.0081     0.0154
    9    0.160   2104.78     0.0122     0.0002    -0.0001     0.0016     0.0124     1.8632     2.5600     0.0098    -0.1028
   10    0.180   2109.22     0.0140     0.0006    -0.0014     0.0018     0.0136     5.4217     2.8800     0.0107    -0.2256
   11    0.200   2113.66     0.0158     0.0005    -0.0028     0.0020     0.0149     4.1522     3.2000     0.0117    -0.3483
   12    0.220   2117.80     0.0176     0.0005    -0.0026     0.0022     0.0162     3.1587     3.5200     0.0127    -0.4433
   13    0.240   2118.81     0.0186     0.0004    -0.0009     0.0024     0.0180     2.1398     3.8400     0.0142    -0.2618
   14    0.260   2119.80     0.0214     0.0005     0.0017     0.0026     0.0220     2.5938     4.1600     0.0178    -0.0750
   15    0.280   2120.79     0.0247     0.0008     0.0016     0.0028     0.0256     3.6838     4.4800     0.0211    -0.0414
   16    0.300   2121.77     0.0370     0.0011    -0.0009     0.0030     0.0365     3.2171     4.8000     0.0317    -0.1324
   17    0.320   2122.74     0.0428     0.0016    -0.0075     0.0032     0.0404     4.0621     5.1200     0.0353    -0.2497
   18    0.340   2123.73     0.0426     0.0022    -0.0141     0.0034     0.0367     5.2232     5.4400     0.0313    -0.5575
   19    0.360   2124.73     0.0426     0.0027    -0.0114     0.0036     0.0364     6.2553     5.7600     0.0307    -0.5977
   20    0.380   2125.69     0.0397     0.0030    -0.0100     0.0038     0.0351     7.4412     6.0800     0.0290    -0.5069
   21    0.400   2126.66     0.0344     0.0033    -0.0070     0.0040     0.0308     9.3494     6.4000     0.0244    -0.5133
   22    0.420   2136.89     0.0371     0.0030    -0.0030     0.0042     0.0353     8.0343     6.7200     0.0286    -0.2941
   23    0.440   2158.40     0.0353     0.0029     0.0006     0.0044     0.0350     7.7186     7.0400     0.0280    -0.1771
   24    0.460   2179.90     0.0335     0.0028     0.0037     0.0046     0.0348     7.8158     7.3600     0.0274    -0.0600
   25    0.480   2184.04     0.0314     0.0027     0.0047     0.0048     0.0333     8.7267     7.6800     0.0256    -0.0113
   26    0.500   2185.02     0.0310     0.0025     0.0046     0.0050     0.0330     7.7870     8.0000     0.0250    -0.0110
   27    0.520   2186.02     0.0299     0.0023     0.0050     0.0052     0.0319     8.0756     8.3200     0.0236    -0.0249
   28    0.540   2187.01     0.0308     0.0023     0.0063     0.0054     0.0332     7.6480     8.6400     0.0246     0.0148
   29    0.560   2188.01     0.0295     0.0021     0.0072     0.0056     0.0325     7.2559     8.9600     0.0235     0.0613
   30    0.580   2188.99     0.0292     0.0021     0.0075     0.0058     0.0323     7.3524     9.2800     0.0230     0.0610
   31    0.600   2189.97     0.0305     0.0021     0.0090     0.0060     0.0341     7.0918     9.6000     0.0245     0.1026
   32    0.620   2190.94     0.0292     0.0023     0.0097     0.0062     0.0331     7.8244     9.9200     0.0232     0.1356
   33    0.640   2191.91     0.0309     0.0020     0.0109     0.0064     0.0354     6.2118    10.2400     0.0252     0.1670
   34    0.660   2192.88     0.0330     0.0022     0.0117     0.0066     0.0378     6.7955    10.5600     0.0272     0.1772
   35    0.680   2193.90     0.0329     0.0017     0.0128     0.0068     0.0381     5.0695    10.8800     0.0272     0.2040
   36    0.700   2194.87     0.0328     0.0019     0.0131     0.0070     0.0383     5.8609    11.2000     0.0271     0.2237
   37    0.720   2195.84     0.0317     0.0023     0.0137     0.0072     0.0374     7.0152    11.5200     0.0259     0.2476
   38    0.740   2196.85     0.0325     0.0020     0.0144     0.0074     0.0384     6.4420    11.8400     0.0266     0.2520
   39    0.760   2197.78     0.0365     0.0019     0.0152     0.0076     0.0428     5.3895    12.1600     0.0306     0.2370
   40    0.780   2198.74     0.0339     0.0020     0.0158     0.0078     0.0405     6.1213    12.4800     0.0280     0.2792
   41    0.800   2199.76     0.0362     0.0020     0.0163     0.0080     0.0430     5.3374    12.8000     0.0302     0.2706
   42    0.820   2200.73     0.0345     0.0019     0.0170     0.0082     0.0415     5.5335    13.1200     0.0283     0.2975
   43    0.840   2201.70     0.0323     0.0020     0.0174     0.0084     0.0395     6.3266    13.4400     0.0261     0.3401
   44    0.860   2202.67     0.0328     0.0019     0.0176     0.0086     0.0401     5.5574    13.7600     0.0263     0.3342
   45    0.880   2203.59     0.0383     0.0018     0.0179     0.0088     0.0458     4.6487    14.0800     0.0317     0.2843
   46    0.900   2204.56     0.0353     0.0020     0.0184     0.0090     0.0429     5.6096    14.4000     0.0285     0.3210
   47    0.920   2205.56     0.0371     0.0018     0.0187     0.0092     0.0449     4.8621    14.7200     0.0302     0.3133
   48    0.940   2206.54     0.0397     0.0020     0.0191     0.0094     0.0476     5.2769    15.0400     0.0326     0.2917
   49    0.960   2207.51     0.0393     0.0023     0.0195     0.0096     0.0474     5.9205    15.3600     0.0321     0.3071
   50    0.980   2208.48     0.0404     0.0022     0.0194     0.0098     0.0486     5.3907    15.6800     0.0329     0.2958
   51    1.000   2209.47     0.0423     0.0022     0.0187     0.0100     0.0503     5.1758    16.0000     0.0343     0.2603
   52    1.020   2210.44     0.0408     0.0022     0.0185     0.0102     0.0486     5.5007    16.3200     0.0323     0.2578
   53    1.040   2211.42     0.0425     0.0022     0.0188     0.0104     0.0504     4.9267    16.6400     0.0338     0.2460
   54    1.060   2212.40     0.0424     0.0022     0.0193     0.0106     0.0503     4.9696    16.9600     0.0334     0.2511
   55    1.080   2213.39     0.0397     0.0020     0.0194     0.0108     0.0479     5.0895    17.2800     0.0306     0.2814
   56    1.100   2214.37     0.0395     0.0019     0.0200     0.0110     0.0478     4.7991    17.6000     0.0302     0.2911
   57    1.120   2215.35     0.0401     0.0021     0.0207     0.0112     0.0487     5.3859    17.9200     0.0308     0.3011
   58    1.140   2216.33     0.0441     0.0021     0.0218     0.0114     0.0530     4.8614    18.2400     0.0348     0.2874
   59    1.160   2217.30     0.0429     0.0023     0.0230     0.0116     0.0523     5.2630    18.5600     0.0338     0.3250
   60    1.180   2218.27     0.0404     0.0027     0.0241     0.0118     0.0504     6.6890    18.8800     0.0315     0.3814
   61    1.200   2219.27     0.0410     0.0023     0.0252     0.0120     0.0515     5.5155    19.2000     0.0323     0.4044
   62    1.220   2220.23     0.0412     0.0025     0.0260     0.0122     0.0520     6.0140    19.5200     0.0325     0.4156
   63    1.240   2221.17     0.0397     0.0024     0.0268     0.0124     0.0509     5.8495    19.8400     0.0311     0.4580
   64    1.260   2222.17     0.0399     0.0023     0.0275     0.0126     0.0513     5.5423    20.1600     0.0312     0.4691
   65    1.280   2223.11     0.0367     0.0022     0.0282     0.0128     0.0484     5.5656    20.4800     0.0279     0.5425
   66    1.300   2224.13     0.0378     0.0020     0.0288     0.0130     0.0498     5.1464    20.8000     0.0290     0.5395
   67    1.320   2225.10     0.0431     0.0018     0.0296     0.0132     0.0554     4.2585    21.1200     0.0342     0.4694
   68    1.340   2226.06     0.0400     0.0019     0.0303     0.0134     0.0526     4.8423    21.4400     0.0312     0.5360
   69    1.360   2227.04     0.0425     0.0022     0.0312     0.0136     0.0555     5.2839    21.7600     0.0338     0.5139
   70    1.380   2228.00     0.0457     0.0022     0.0310     0.0138     0.0588     4.8581    22.0800     0.0367     0.4721
   71    1.400   2228.98     0.0488     0.0024     0.0302     0.0140     0.0616     4.9916    22.4000     0.0392     0.4199
   72    1.420   2229.96     0.0533     0.0026     0.0300     0.0142     0.0660     5.0108    22.7200     0.0433     0.3697
   73    1.440   2230.94     0.0554     0.0029     0.0291     0.0144     0.0677     5.2796    23.0400     0.0447     0.3324
   74    1.460   2231.93     0.0566     0.0026     0.0286     0.0146     0.0686     4.6324    23.3600     0.0452     0.3108
   75    1.480   2232.92     0.0568     0.0029     0.0287     0.0148     0.0690     5.2082    23.6800     0.0453     0.3152
   76    1.500   2233.92     0.0589     0.0032     0.0268     0.0150     0.0703     5.4566    24.0000     0.0463     0.2626
   77    1.520   2234.89     0.0582     0.0031     0.0296     0.0152     0.0702     5.4640    24.3200     0.0459     0.2940
   78    1.540   2235.88     0.0579     0.0029     0.0320     0.0154     0.0710     5.0095    24.6400     0.0463     0.3404
   79    1.560   2236.88     0.0583     0.0027     0.0340     0.0156     0.0721     4.7629    24.9600     0.0472     0.3655
   80    1.580   2237.87     0.0575     0.0025     0.0352     0.0158     0.0721     4.3779    25.2800     0.0468     0.4028
   81    1.600   2238.84     0.0602     0.0028     0.0369     0.0160     0.0756     4.7068    25.6000     0.0500     0.4110
   82    1.620   2239.81     0.0627     0.0031     0.0387     0.0162     0.0786     5.0196    25.9200     0.0527     0.4098
   83    1.640   2240.78     0.0645     0.0027     0.0395     0.0164     0.0810     4.2335    26.2400     0.0548     0.4175
   84    1.660   2241.79     0.0688     0.0031     0.0387     0.0166     0.0853     4.4505    26.5600     0.0588     0.3852
   85    1.680   2242.73     0.0677     0.0031     0.0367     0.0168     0.0836     4.6273    26.8800     0.0567     0.3733
   86    1.700   2243.77     0.0664     0.0033     0.0372     0.0170     0.0817     4.9106    27.2000     0.0545     0.3592
   87    1.720   2244.73     0.0771     0.0036     0.0402     0.0172     0.0935     4.9251    27.5200     0.0660     0.3335
   88    1.740   2245.70     0.0860     0.0037     0.0420     0.0174     0.1035     4.4234    27.8400     0.0757     0.3214
   89    1.760   2246.67     0.0852     0.0035     0.0400     0.0176     0.1029     4.0874    28.1600     0.0748     0.3302
   90    1.780   2247.65     0.0837     0.0037     0.0371     0.0178     0.0995     4.4768    28.4800     0.0710     0.2768
   91    1.800   2248.61     0.0797     0.0035     0.0390     0.0180     0.0956     4.4404    28.8000     0.0668     0.2968
   92    1.820   2249.64     0.0774     0.0033     0.0443     0.0182     0.0953     4.3143    29.1200     0.0662     0.3679
   93    1.840   2250.59     0.0792     0.0035     0.0477     0.0184     0.0988     4.4253    29.4400     0.0694     0.4081
   94    1.860   2251.55     0.0799     0.0034     0.0491     0.0186     0.1003     4.3006    29.7600     0.0705     0.4230
   95    1.880   2252.52     0.0788     0.0034     0.0509     0.0188     0.0999     4.3085    30.0800     0.0699     0.4497
   96    1.900   2253.51     0.0785     0.0034     0.0522     0.0190     0.1003     4.3543    30.4000     0.0699     0.4714
   97    1.920   2254.49     0.0818     0.0034     0.0513     0.0192     0.1035     4.1985    30.7200     0.0728     0.4466
   98    1.940   2255.54     0.0799     0.0034     0.0540     0.0194     0.1022     4.1602    31.0400     0.0712     0.4762
   99    1.960   2256.51     0.0818     0.0034     0.0556     0.0196     0.1049     4.2195    31.3600     0.0736     0.4810
  100    1.980   2257.48     0.0843     0.0034     0.0573     0.0198     0.1082     3.9770    31.6800     0.0765     0.4830
  101    2.000   2258.44     0.0863     0.0036     0.0575     0.0200     0.1104     4.1996    32.0000     0.0784     0.4769
  102    2.020   2259.46     0.0902     0.0038     0.0565     0.0202     0.1138     4.1569    32.3200     0.0814     0.4419
  103    2.040   2260.43     0.0898     0.0039     0.0573     0.0204     0.1139     4.2891    32.6400     0.0812     0.4529
  104    2.060   2261.45     0.0906     0.0041     0.0578     0.0206     0.1147     4.5432    32.9600     0.0817     0.4506
  105    2.080   2262.42     0.0894     0.0041     0.0576     0.0208     0.1138     4.5889    33.2800     0.0805     0.4633
  106    2.100   2263.44     0.0856     0.0041     0.0556     0.0210     0.1092     4.8940    33.6000     0.0756     0.4662
  107    2.120   2264.41     0.0839     0.0041     0.0535     0.0212     0.1067     4.7831    33.9200     0.0728     0.4564
  108    2.140   2265.38     0.0809     0.0040     0.0541     0.0214     0.1033     4.9212    34.2400     0.0691     0.4631
  109    2.160   2266.34     0.0760     0.0039     0.0552     0.0216     0.0991     5.1204    34.5600     0.0645     0.5166
  110    2.180   2267.37     0.0736     0.0033     0.0587     0.0218     0.0980     4.4951    34.8800     0.0631     0.5728
  111    2.200   2268.31     0.0723     0.0034     0.0605     0.0220     0.0974     4.6227    35.2000     0.0622     0.6043
  112    2.220   2269.29     0.0756     0.0030     0.0629     0.0222     0.1017     4.0152    35.5200     0.0662     0.6025
  113    2.240   2270.27     0.0778     0.0033     0.0643     0.0224     0.1045     4.2312    35.8400     0.0687     0.6014
  114    2.260   2271.22     0.0828     0.0030     0.0662     0.0226     0.1102     3.6821    36.1600     0.0740     0.5745
  115    2.280   2272.24     0.0858     0.0032     0.0654     0.0228     0.1138     3.8296    36.4800     0.0773     0.5661
  116    2.300   2273.20     0.0850     0.0034     0.0619     0.0230     0.1118     3.9625    36.8000     0.0750     0.5438
  117    2.320   2274.20     0.0867     0.0030     0.0608     0.0232     0.1122     3.5077    37.1200     0.0751     0.5019
  118    2.340   2275.17     0.0871     0.0031     0.0650     0.0234     0.1138     3.5294    37.4400     0.0764     0.5250
  119    2.360   2276.11     0.0893     0.0032     0.0679     0.0236     0.1176     3.6786    37.7600     0.0798     0.5477
  120    2.380   2277.12     0.0900     0.0035     0.0704     0.0238     0.1194     3.7347    38.0800     0.0814     0.5696
  121    2.400   2278.12     0.0981     0.0038     0.0701     0.0240     0.1278     3.9737    38.4000     0.0894     0.5216
  122    2.420   2279.10     0.0998     0.0042     0.0632     0.0242     0.1273     4.2126    38.7200     0.0886     0.4665
  123    2.440   2280.07     0.0961     0.0045     0.0594     0.0244     0.1217     4.6471    39.0400     0.0826     0.4410
  124    2.460   2281.04     0.0891     0.0042     0.0556     0.0246     0.1129     4.6491    39.3600     0.0735     0.4370
  125    2.480   2286.58     0.0831     0.0045     0.0564     0.0248     0.1064     5.2931    39.6800     0.0667     0.4647
  126    2.500   2302.69     0.0772     0.0042     0.0591     0.0250     0.1016     5.0067    40.0000     0.0616     0.5541
  127    2.520   2318.81     0.0713     0.0044     0.0619     0.0252     0.0969     5.2307    40.3200     0.0566     0.6434
  128    2.540   2329.57     0.0660     0.0039     0.0645     0.0254     0.0929     5.8187    40.6400     0.0523     0.7398
  129    2.560   2330.55     0.0675     0.0035     0.0653     0.0256     0.0948     5.2922    40.9600     0.0538     0.7326
  130    2.580   2331.50     0.0640     0.0032     0.0670     0.0258     0.0919     4.8709    41.2800     0.0506     0.8010
  131    2.600   2332.49     0.0653     0.0030     0.0684     0.0260     0.0938     4.6827    41.6000     0.0522     0.8034
  132    2.620   2333.49     0.0673     0.0032     0.0711     0.0262     0.0968     4.8318    41.9200     0.0549     0.8037
  133    2.640   2334.51     0.0807     0.0034     0.0736     0.0264     0.1114     4.4011    42.2400     0.0692     0.6769
  134    2.660   2335.48     0.0916     0.0036     0.0752     0.0266     0.1229     4.0550    42.5600     0.0803     0.5972
  135    2.680   2336.44     0.1029     0.0041     0.0699     0.0268     0.1335     4.0653    42.8800     0.0906     0.5088
  136    2.700   2337.40     0.1111     0.0042     0.0642     0.0270     0.1389     3.8861    43.2000     0.0957     0.4088
  137    2.720   2338.35     0.1140     0.0047     0.0652     0.0272     0.1411     4.0566    43.5200     0.0976     0.3827
  138    2.740   2339.38     0.1118     0.0046     0.0600     0.0274     0.1381     4.1419    43.8400     0.0943     0.3745
  139    2.760   2340.35     0.1088     0.0047     0.0588     0.0276     0.1338     4.3149    44.1600     0.0897     0.3552
  140    2.780   2341.35     0.1055     0.0046     0.0631     0.0278     0.1313     4.3243    44.4800     0.0868     0.3873
  141    2.800   2342.32     0.0973     0.0048     0.0681     0.0280     0.1255     4.8568    44.8000     0.0807     0.4844
  142    2.820   2343.26     0.0948     0.0048     0.0712     0.0282     0.1244     5.0003    45.1200     0.0793     0.5324
  143    2.840   2344.23     0.0934     0.0045     0.0720     0.0284     0.1237     4.8196    45.4400     0.0782     0.5582
  144    2.860   2345.24     0.0935     0.0045     0.0719     0.0286     0.1240     4.7749    45.7600     0.0782     0.5604
  145    2.880   2346.20     0.0919     0.0044     0.0709     0.0288     0.1218     4.7142    46.0800     0.0758     0.5598
  146    2.900   2347.17     0.0908     0.0042     0.0724     0.0290     0.1211     4.6296    46.4000     0.0747     0.5768
  147    2.920   2348.20     0.0914     0.0041     0.0738     0.0292     0.1221     4.5041    46.7200     0.0754     0.5831
  148    2.940   2349.11     0.0896     0.0041     0.0754     0.0294     0.1211     4.5797    47.0400     0.0741     0.6154
  149    2.960   2350.08     0.0934     0.0042     0.0765     0.0296     0.1253     4.4583    47.3600     0.0780     0.5953
  150    2.980   2351.09     0.0891     0.0042     0.0766     0.0298     0.1213     4.7727    47.6800     0.0736     0.6365
  151    3.000   2352.13     0.0887     0.0039     0.0723     0.0300     0.1195     4.3231    48.0000     0.0715     0.6061
  152    3.020   2353.11     0.0865     0.0037     0.0712     0.0302     0.1166     4.2443    48.3200     0.0683     0.6098
  153    3.040   2354.08     0.0810     0.0038     0.0710     0.0304     0.1107     4.6036    48.6400     0.0621     0.6500
  154    3.060   2355.05     0.0813     0.0040     0.0722     0.0306     0.1114     4.8736    48.9600     0.0625     0.6582
  155    3.080   2356.00     0.0790     0.0040     0.0735     0.0308     0.1099     4.9807    49.2800     0.0606     0.7052
  156    3.100   2357.02     0.0794     0.0038     0.0715     0.0310     0.1094     4.9008    49.6000     0.0598     0.6758
  157    3.120   2358.00     0.0841     0.0038     0.0743     0.0312     0.1150     4.5859    49.9200     0.0651     0.6504
  158    3.140   2359.01     0.0863     0.0036     0.0740     0.0314     0.1173     4.1428    50.2400     0.0671     0.6327
  159    3.160   2360.00     0.0916     0.0035     0.0751     0.0316     0.1230     3.8562    50.5600     0.0725     0.5971
  160    3.180   2360.97     0.0993     0.0039     0.0743     0.0318     0.1308     3.9331    50.8800     0.0799     0.5410
  161    3.200   2361.94     0.1144     0.0046     0.0724     0.0320     0.1444     4.0063    51.2000     0.0932     0.4229
  162    3.220   2362.89     0.1166     0.0047     0.0722     0.0322     0.1465     4.0205    51.5200     0.0950     0.4114
  163    3.240   2363.85     0.1181     0.0049     0.0681     0.0324     0.1475     4.2241    51.8400     0.0956     0.3930
  164    3.260   2364.87     0.1210     0.0046     0.0645     0.0326     0.1481     3.8341    52.1600     0.0960     0.3347
  165    3.280   2365.83     0.1212     0.0049     0.0671     0.0328     0.1482     4.0378    52.4800     0.0957     0.3298
  166    3.300   2366.80     0.1213     0.0053     0.0711     0.0330     0.1508     4.3772    52.8000     0.0980     0.3792
  167    3.320   2367.76     0.1218     0.0055     0.0723     0.0332     0.1519     4.5410    53.1200     0.0988     0.3884
  168    3.340   2368.74     0.1178     0.0056     0.0692     0.0334     0.1473     4.7187    53.4400     0.0939     0.3928
  169    3.360   2369.71     0.1158     0.0057     0.0708     0.0336     0.1450     4.9053    53.7600     0.0913     0.3955
  170    3.380   2370.74     0.1130     0.0058     0.0732     0.0338     0.1434     5.0082    54.0800     0.0894     0.4316
  171    3.400   2371.71     0.1069     0.0054     0.0772     0.0340     0.1390     4.9591    54.4000     0.0846     0.5012
  172    3.420   2373.77     0.1031     0.0051     0.0790     0.0342     0.1360     4.9044    54.7200     0.0813     0.5435
  173    3.440   2376.97     0.1032     0.0048     0.0807     0.0344     0.1369     4.6167    55.0400     0.0818     0.5584
  174    3.460   2380.16     0.1034     0.0050     0.0829     0.0346     0.1377     4.8932    55.3600     0.0824     0.5732
  175    3.480   2381.53     0.1141     0.0049     0.0864     0.0348     0.1500     4.4048    55.6800     0.0943     0.5371
  176    3.500   2382.48     0.1253     0.0050     0.0842     0.0350     0.1611     4.0785    56.0000     0.1051     0.4796
  177    3.520   2383.53     0.1362     0.0046     0.0822     0.0352     0.1709     3.4320    56.3200     0.1146     0.4138
  178    3.540   2384.52     0.1382     0.0049     0.0863     0.0354     0.1737     3.5809    56.6400     0.1171     0.4209
  179    3.560   2385.51     0.1407     0.0050     0.0851     0.0356     0.1768     3.5401    56.9600     0.1198     0.4206
  180    3.580   2386.45     0.1419     0.0048     0.0830     0.0358     0.1771     3.3839    57.2800     0.1199     0.4013
  181    3.600   2387.40     0.1464     0.0052     0.0828     0.0360     0.1815     3.5605    57.6000     0.1239     0.3840
  182    3.620   2388.42     0.1520     0.0061     0.0776     0.0362     0.1854     4.1438    57.9200     0.1275     0.3413
  183    3.640   2389.43     0.1597     0.0065     0.0707     0.0364     0.1904     4.0489    58.2400     0.1322     0.2784
  184    3.660   2390.40     0.1643     0.0067     0.0616     0.0366     0.1921     4.1591    58.5600     0.1335     0.2206
  185    3.680   2391.40     0.1671     0.0071     0.0534     0.0368     0.1909     4.2831    58.8800     0.1320     0.1497
  186    3.700   2392.33     0.1727     0.0075     0.0423     0.0370     0.1923     4.3615    59.2000     0.1331     0.0739
  187    3.720   2393.31     0.1761     0.0078     0.0450     0.0372     0.1940     4.4305    59.5200     0.1345     0.0405
  188    3.740   2394.31     0.1865     0.0076     0.0472     0.0374     0.2064     4.0906    59.8400     0.1466     0.0683
  189    3.760   2395.29     0.1723     0.0076     0.0472     0.0376     0.1919     4.3393    60.1600     0.1318     0.0687
  190    3.780   2396.28     0.1626     0.0075     0.0514     0.0378     0.1837     4.5784    60.4800     0.1232     0.0996
  191    3.800   2397.25     0.1580     0.0074     0.0512     0.0380     0.1804     4.6753    60.8000     0.1196     0.1276
  192    3.820   2398.22     0.1440     0.0071     0.0561     0.0382     0.1677     4.8734    61.1200     0.1065     0.1707
  193    3.840   2399.19     0.1396     0.0068     0.0628     0.0384     0.1651     4.8567    61.4400     0.1036     0.2149
  194    3.860   2400.24     0.1409     0.0063     0.0682     0.0386     0.1687     4.4927    61.7600     0.1069     0.2574
  195    3.880   2401.21     0.1350     0.0061     0.0715     0.0388     0.1646     4.4210    62.0800     0.1025     0.3097
  196    3.900   2402.19     0.1367     0.0056     0.0758     0.0390     0.1677     4.0747    62.4000     0.1053     0.3308
  197    3.920   2403.17     0.1344     0.0054     0.0793     0.0392     0.1673     3.9946    62.7200     0.1045     0.3740
  198    3.940   2404.11     0.1331     0.0054     0.0837     0.0394     0.1675     4.0134    63.0400     0.1044     0.4058
  199    3.960   2405.14     0.1298     0.0052     0.0877     0.0396     0.1662     4.0046    63.3600     0.1028     0.4568
  200    3.980   2406.11     0.1279     0.0050     0.0912     0.0398     0.1657     3.9266    63.6800     0.1020     0.4914
  201    4.000   2407.13     0.1280     0.0046     0.0936     0.0400     0.1671     3.6141    64.0000     0.1031     0.5144
  202    4.020   2408.14     0.1292     0.0048     0.0946     0.0402     0.1688     3.6858    64.3200     0.1045     0.5190
  203    4.040   2409.09     0.1263     0.0048     0.0956     0.0404     0.1664     3.8234    64.6400     0.1017     0.5408
  204    4.060   2410.06     0.1282     0.0047     0.0971     0.0406     0.1688     3.7198    64.9600     0.1038     0.5402
  205    4.080   2411.03     0.1296     0.0047     0.0986     0.0408     0.1707     3.6629    65.2800     0.1054     0.5419
  206    4.100   2412.03     0.1288     0.0045     0.0980     0.0410     0.1701     3.5199    65.6000     0.1045     0.5484
  207    4.120   2413.03     0.1294     0.0046     0.0937     0.0412     0.1702     3.5392    65.9200     0.1043     0.5355
  208    4.140   2414.03     0.1251     0.0042     0.0935     0.0414     0.1634     3.3554    66.2400     0.0972     0.5114
  209    4.160   2414.97     0.1279     0.0047     0.0897     0.0416     0.1665     3.7512    66.5600     0.1000     0.5053
  210    4.180   2415.96     0.1314     0.0048     0.0963     0.0418     0.1703     3.7178    66.8800     0.1035     0.4921
  211    4.200   2416.93     0.1326     0.0050     0.0992     0.0420     0.1739     3.8268    67.2000     0.1067     0.5297
  212    4.220   2417.94     0.1316     0.0044     0.1014     0.0422     0.1738     3.3382    67.5200     0.1063     0.5497
  213    4.240   2418.90     0.1329     0.0047     0.1041     0.0424     0.1762     3.5278    67.8400     0.1083     0.5607
  214    4.260   2419.89     0.1331     0.0050     0.1079     0.0426     0.1777     3.7103    68.1600     0.1096     0.5807
  215    4.280   2420.86     0.1362     0.0051     0.1064     0.0428     0.1809     3.7560    68.4800     0.1125     0.5672
  216    4.300   2421.83     0.1361     0.0046     0.1079     0.0430     0.1813     3.3314    68.8000     0.1125     0.5752
  217    4.320   2422.80     0.1342     0.0048     0.1018     0.0432     0.1767     3.6490    69.1200     0.1076     0.5387
  218    4.340   2423.82     0.1258     0.0050     0.0994     0.0434     0.1678     3.7923    69.4400     0.0983     0.5751
  219    4.360   2424.79     0.1310     0.0051     0.0975     0.0436     0.1721     3.9356    69.7600     0.1024     0.5305
  220    4.380   2425.76     0.1365     0.0056     0.1002     0.0438     0.1782     4.1803    70.0800     0.1081     0.5132
  221    4.400   2426.73     0.1485     0.0060     0.1008     0.0440     0.1911     4.1697    70.4000     0.1207     0.4752
  222    4.420   2427.85     0.1551     0.0063     0.0977     0.0442     0.1967     4.1561    70.7200     0.1260     0.4368
  223    4.440   2445.83     0.1606     0.0064     0.0931     0.0444     0.2004     4.1051    71.0400     0.1294     0.3905
  224    4.460   2463.80     0.1662     0.0060     0.0885     0.0446     0.2041     3.8898    71.3600     0.1327     0.3443
  225    4.480   2476.49     0.1695     0.0060     0.0891     0.0448     0.2064     3.5389    71.6800     0.1347     0.3195
  226    4.500   2477.51     0.1670     0.0061     0.0926     0.0450     0.2054     3.6276    72.0000     0.1334     0.3486
  227    4.520   2478.50     0.1701     0.0059     0.0929     0.0452     0.2095     3.4896    72.3200     0.1372     0.3534
  228    4.540   2479.51     0.1704     0.0058     0.0922     0.0454     0.2089     3.3682    72.6400     0.1362     0.3391
  229    4.560   2480.47     0.1680     0.0056     0.0859     0.0456     0.2054     3.2958    72.9600     0.1324     0.3276
  230    4.580   2481.44     0.1633     0.0053     0.0896     0.0458     0.1998     3.2481    73.2800     0.1265     0.3248
  231    4.600   2482.42     0.1573     0.0055     0.0916     0.0460     0.1958     3.4826    73.6000     0.1222     0.3730
  232    4.620   2483.42     0.1520     0.0054     0.0947     0.0462     0.1914     3.5185    73.9200     0.1175     0.4048
  233    4.640   2484.36     0.1470     0.0047     0.0945     0.0464     0.1866     3.2201    74.2400     0.1123     0.4250
  234    4.660   2485.35     0.1464     0.0047     0.0993     0.0466     0.1874     3.2082    74.5600     0.1129     0.4522
  235    4.680   2486.33     0.1415     0.0050     0.1026     0.0468     0.1842     3.5450    74.8800     0.1094     0.5015
  236    4.700   2487.27     0.1424     0.0050     0.1051     0.0470     0.1862     3.4865    75.2000     0.1110     0.5148
  237    4.720   2488.26     0.1433     0.0050     0.1061     0.0472     0.1870     3.5336    75.5200     0.1115     0.5089
  238    4.740   2489.25     0.1469     0.0048     0.1087     0.0474     0.1927     3.3340    75.8400     0.1168     0.5272
  239    4.760   2490.21     0.1473     0.0048     0.1112     0.0476     0.1935     3.2743    76.1600     0.1173     0.5325
  240    4.780   2491.18     0.1534     0.0045     0.1108     0.0478     0.2001     2.9693    76.4800     0.1236     0.5119
  241    4.800   2492.16     0.1519     0.0049     0.1119     0.0480     0.1986     3.2642    76.8000     0.1218     0.5179
  242    4.820   2493.15     0.1562     0.0047     0.1125     0.0482     0.2032     3.0196    77.1200     0.1261     0.5061
  243    4.840   2494.09     0.1622     0.0050     0.1166     0.0484     0.2108     3.0963    77.4400     0.1333     0.5041
  244    4.860   2495.08     0.1657     0.0049     0.1134     0.0486     0.2140     2.9817    77.7600     0.1363     0.4880
  245    4.880   2496.05     0.1748     0.0051     0.1068     0.0488     0.2210     2.9945    78.0800     0.1429     0.4280
  246    4.900   2497.02     0.1803     0.0057     0.1027     0.0490     0.2236     3.1570    78.4000     0.1452     0.3725
  247    4.920   2497.99     0.1861     0.0056     0.1016     0.0492     0.2288     3.0194    78.7200     0.1501     0.3504
  248    4.940   2498.99     0.1837     0.0060     0.1010     0.0494     0.2263     3.2192    79.0400     0.1472     0.3524
  249    4.960   2499.98     0.1838     0.0057     0.0947     0.0496     0.2249     3.1094    79.3600     0.1455     0.3311
  250    4.980   2500.95     0.1835     0.0056     0.0902     0.0498     0.2221     3.0553    79.6800     0.1424     0.2949
  251    5.000   2501.94     0.1811     0.0051     0.0870     0.0500     0.2176     2.8364    80.0000     0.1376     0.2691
  252    5.020   2502.92     0.1877     0.0053     0.0901     0.0502     0.2247     2.8694    80.3200     0.1444     0.2633
  253    5.040   2503.89     0.1980     0.0057     0.0965     0.0504     0.2377     2.8963    80.6400     0.1570     0.2801
  254    5.060   2504.86     0.2115     0.0062     0.0979     0.0506     0.2531     2.9739    80.9600     0.1721     0.2805
  255    5.080   2505.88     0.2273     0.0073     0.0886     0.0508     0.2652     3.2560    81.2800     0.1839     0.2145
  256    5.100   2506.83     0.2343     0.0079     0.0762     0.0510     0.2697     3.3702    81.6000     0.1881     0.1758
  257    5.120   2507.82     0.2302     0.0081     0.0629     0.0512     0.2584     3.5108    81.9200     0.1764     0.0898
  258    5.140   2508.79     0.2215     0.0081     0.0605     0.0514     0.2464     3.5787    82.2400     0.1642     0.0486
  259    5.160   2509.76     0.2094     0.0077     0.0669     0.0516     0.2357     3.6336    82.5600     0.1532     0.0729
  260    5.180   2510.75     0.1987     0.0073     0.0760     0.0518     0.2293     3.6362    82.8800     0.1464     0.1441
  261    5.200   2511.73     0.1882     0.0066     0.0830     0.0520     0.2223     3.4873    83.2000     0.1391     0.2097
  262    5.220   2512.70     0.1789     0.0056     0.0876     0.0522     0.2147     3.1252    83.5200     0.1312     0.2530
  263    5.240   2513.67     0.1703     0.0053     0.0936     0.0524     0.2088     3.0619    83.8400     0.1250     0.3148
  264    5.260   2514.64     0.1669     0.0049     0.0977     0.0526     0.2074     2.9232    84.1600     0.1232     0.3561
  265    5.280   2515.57     0.1665     0.0048     0.1000     0.0528     0.2081     2.9054    84.4800     0.1237     0.3753
  266    5.300   2516.53     0.1672     0.0047     0.1035     0.0530     0.2102     2.7934    84.8000     0.1254     0.3937
  267    5.320   2517.50     0.1644     0.0044     0.1055     0.0532     0.2085     2.6997    85.1200     0.1234     0.4195
  268    5.340   2518.49     0.1622     0.0045     0.1051     0.0534     0.2066     2.7793    85.4400     0.1211     0.4314
  269    5.360   2519.42     0.1571     0.0049     0.1045     0.0536     0.2008     3.0822    85.7600     0.1151     0.4384
  270    5.380   2520.46     0.1500     0.0045     0.1069     0.0538     0.1947     2.9984    86.0800     0.1086     0.4829
  271    5.400   2521.43     0.1426     0.0049     0.1076     0.0540     0.1879     3.3744    86.4000     0.1015     0.5321
  272    5.420   2522.41     0.1382     0.0042     0.1104     0.0542     0.1838     3.0212    86.7200     0.0970     0.5588
  273    5.440   2523.37     0.1350     0.0041     0.1123     0.0544     0.1819     3.0024    87.0400     0.0948     0.6023
  274    5.460   2524.39     0.1337     0.0041     0.1165     0.0546     0.1820     3.0959    87.3600     0.0947     0.6383
  275    5.480   2525.41     0.1384     0.0042     0.1191     0.0548     0.1881     3.0824    87.6800     0.1004     0.6334
  276    5.500   2526.38     0.1450     0.0045     0.1201     0.0550     0.1954     3.1447    88.0000     0.1074     0.6057
  277    5.520   2527.34     0.1539     0.0048     0.1213     0.0552     0.2047     3.1482    88.3200     0.1164     0.5663
  278    5.540   2528.21     0.1595     0.0043     0.1215     0.0554     0.2108     2.7074    88.6400     0.1221     0.5467
  279    5.560   2529.02     0.1629     0.0048     0.1183     0.0556     0.2131     2.9678    88.9600     0.1241     0.5141
  280    5.580   2529.91     0.1650     0.0052     0.1136     0.0558     0.2137     3.1859    89.2800     0.1244     0.4845
  281    5.600   2530.88     0.1657     0.0052     0.1166     0.0560     0.2144     3.1006    89.6000     0.1248     0.4801
  282    5.620   2531.86     0.1631     0.0053     0.1184     0.0562     0.2138     3.2467    89.9200     0.1238     0.5192
  283    5.640   2532.85     0.1676     0.0055     0.1187     0.0564     0.2175     3.3065    90.2400     0.1273     0.4901
  284    5.660   2533.84     0.1721     0.0052     0.1229     0.0566     0.2234     3.0168    90.5600     0.1328     0.4927
  285    5.680   2534.81     0.1690     0.0054     0.1226     0.0568     0.2206     3.1793    90.8800     0.1297     0.5087
  286    5.700   2535.81     0.1712     0.0053     0.1188     0.0570     0.2220     3.0757    91.2000     0.1308     0.4896
  287    5.720   2536.78     0.1678     0.0050     0.1190     0.0572     0.2169     2.9578    91.5200     0.1254     0.4767
  288    5.740   2537.75     0.1639     0.0051     0.1235     0.0574     0.2152     3.1380    91.8400     0.1233     0.5256
  289    5.760   2538.72     0.1605     0.0055     0.1257     0.0576     0.2128     3.4733    92.1600     0.1206     0.5555
  290    5.780   2539.72     0.1605     0.0054     0.1297     0.0578     0.2144     3.3363    92.4800     0.1219     0.5776
  291    5.800   2540.74     0.1603     0.0052     0.1307     0.0580     0.2147     3.2312    92.8000     0.1219     0.5877
  292    5.820   2541.71     0.1651     0.0054     0.1333     0.0582     0.2209     3.2910    93.1200     0.1278     0.5844
  293    5.840   2542.66     0.1680     0.0054     0.1336     0.0584     0.2240     3.2192    93.4400     0.1305     0.5740
  294    5.860   2543.68     0.1715     0.0055     0.1329     0.0586     0.2280     3.2336    93.7600     0.1342     0.5645
  295    5.880   2544.64     0.1702     0.0056     0.1278     0.0588     0.2244     3.2705    94.0800     0.1303     0.5387
  296    5.900   2545.61     0.1696     0.0059     0.1229     0.0590     0.2219     3.4931    94.4000     0.1275     0.5132
  297    5.920   2546.58     0.1676     0.0060     0.1240     0.0592     0.2192     3.5830    94.7200     0.1244     0.5101
  298    5.940   2547.60     0.1669     0.0061     0.1284     0.0594     0.2203     3.6232    95.0400     0.1252     0.5403
  299    5.960   2548.59     0.1700     0.0059     0.1314     0.0596     0.2247     3.4727    95.3600     0.1294     0.5462
  300    5.980   2549.57     0.1774     0.0054     0.1347     0.0598     0.2336     3.0558    95.6800     0.1379     0.5365
  301    6.000   2550.57     0.1811     0.0055     0.1379     0.0600     0.2384     3.0345    96.0000     0.1424     0.5368
  302    6.020   2551.56     0.1833     0.0054     0.1414     0.0602     0.2423     2.9533    96.3200     0.1460     0.5502
  303    6.040   2552.58     0.1906     0.0057     0.1444     0.0604     0.2508     3.0346    96.6400     0.1542     0.5378
  304    6.060   2553.56     0.2023     0.0062     0.1445     0.0606     0.2631     3.1054    96.9600     0.1662     0.5075
  305    6.080   2554.54     0.2144     0.0067     0.1405     0.0608     0.2742     3.1935    97.2800     0.1769     0.4615
  306    6.100   2555.54     0.2220     0.0072     0.1363     0.0610     0.2798     3.2185    97.6000     0.1822     0.4200
  307    6.120   2556.51     0.2239     0.0069     0.1292     0.0612     0.2796     3.1245    97.9200     0.1817     0.3936
  308    6.140   2557.51     0.2190     0.0074     0.1195     0.0614     0.2701     3.3634    98.2400     0.1719     0.3500
  309    6.160   2558.47     0.2151     0.0073     0.1190     0.0616     0.2646     3.3795    98.5600     0.1661     0.3397
  310    6.180   2559.44     0.2101     0.0070     0.1234     0.0618     0.2611     3.3255    98.8800     0.1622     0.3678
  311    6.200   2560.41     0.2072     0.0067     0.1302     0.0620     0.2611     3.2351    99.2000     0.1619     0.4089
  312    6.220   2561.38     0.2121     0.0065     0.1359     0.0622     0.2684     3.1186    99.5200     0.1689     0.4251
  313    6.240   2562.38     0.2149     0.0068     0.1397     0.0624     0.2731     3.1569    99.8400     0.1732     0.4385
  314    6.260   2563.35     0.2221     0.0070     0.1412     0.0626     0.2812     3.1953   100.1600     0.1811     0.4313
  315    6.280   2564.35     0.2271     0.0071     0.1395     0.0628     0.2855     3.1552   100.4800     0.1851     0.4119
  316    6.300   2565.33     0.2311     0.0072     0.1374     0.0630     0.2889     3.1437   100.8000     0.1881     0.3967
  317    6.320   2567.77     0.2378     0.0075     0.1364     0.0632     0.2957     3.1314   101.1200     0.1946     0.3831
  318    6.340   2584.65     0.2358     0.0074     0.1326     0.0634     0.2921     3.1209   101.4400     0.1906     0.3694
  319    6.360   2601.53     0.2338     0.0075     0.1288     0.0636     0.2885     3.2347   101.7600     0.1867     0.3556
  320    6.380   2616.82     0.2316     0.0076     0.1293     0.0638     0.2850     3.3485   102.0800     0.1830     0.3468
  321    6.400   2617.79     0.2236     0.0077     0.1340     0.0640     0.2789     3.4624   102.4000     0.1765     0.3839
  322    6.420   2618.76     0.2125     0.0078     0.1395     0.0642     0.2700     3.6673   102.7200     0.1673     0.4340
  323    6.440   2619.85     0.2044     0.0073     0.1451     0.0644     0.2646     3.5439   103.0400     0.1615     0.4879
  324    6.460   2635.48     0.2038     0.0070     0.1445     0.0646     0.2646     3.4720   103.3600     0.1613     0.4977
  325    6.480   2660.15     0.2067     0.0068     0.1438     0.0648     0.2672     3.3802   103.6800     0.1635     0.4852
  326    6.500   2684.82     0.2096     0.0062     0.1431     0.0650     0.2698     3.0578   104.0000     0.1658     0.4728
  327    6.520   2703.87     0.2098     0.0059     0.1448     0.0652     0.2701     2.8091   104.3200     0.1658     0.4728
  328    6.540   2704.52     0.2055     0.0061     0.1474     0.0654     0.2671     2.9680   104.6400     0.1624     0.4994
  329    6.560   2705.17     0.2036     0.0060     0.1527     0.0656     0.2671     2.9493   104.9600     0.1621     0.5284
  330    6.580   2705.83     0.2015     0.0056     0.1535     0.0658     0.2662     2.7652   105.2800     0.1609     0.5487
  331    6.600   2706.45     0.2030     0.0055     0.1544     0.0660     0.2676     2.7234   105.6000     0.1620     0.5418
  332    6.620   2707.09     0.2072     0.0054     0.1527     0.0662     0.2716     2.5914   105.9200     0.1657     0.5260
  333    6.640   2707.69     0.2057     0.0057     0.1531     0.0664     0.2694     2.7573   106.2400     0.1632     0.5235
  334    6.660   2708.34     0.2051     0.0061     0.1555     0.0666     0.2703     2.9132   106.5600     0.1637     0.5411
  335    6.680   2709.02     0.2096     0.0064     0.1561     0.0668     0.2752     3.0691   106.8800     0.1683     0.5314
  336    6.700   2709.67     0.2123     0.0068     0.1505     0.0670     0.2767     3.2250   107.2000     0.1695     0.5097
  337    6.720   2710.34     0.2149     0.0069     0.1427     0.0672     0.2757     3.2032   107.5200     0.1682     0.4613
  338    6.740   2711.00     0.2105     0.0072     0.1410     0.0674     0.2698     3.3983   107.8400     0.1620     0.4559
  339    6.760   2721.07     0.2064     0.0066     0.1460     0.0676     0.2670     3.1629   108.1600     0.1588     0.4826
  340    6.780   2737.15     0.2035     0.0063     0.1512     0.0678     0.2662     3.0075   108.4800     0.1577     0.5180
  341    6.800   2753.23     0.2005     0.0060     0.1564     0.0680     0.2655     2.9032   108.8000     0.1567     0.5534
  342    6.820   2767.37     0.1992     0.0057     0.1620     0.0682     0.2664     2.8716   109.1200     0.1573     0.5833
  343    6.840   2768.38     0.2042     0.0054     0.1671     0.0684     0.2738     2.6545   109.4400     0.1643     0.5914
  344    6.860   2769.40     0.2082     0.0056     0.1657     0.0686     0.2786     2.7222   109.7600     0.1688     0.5863
  345    6.880   2770.42     0.2135     0.0059     0.1637     0.0688     0.2827     2.7861   110.0800     0.1726     0.5552
  346    6.900   2771.42     0.2173     0.0060     0.1624     0.0690     0.2856     2.7525   110.4000     0.1752     0.5347
  347    6.920   2772.42     0.2209     0.0062     0.1587     0.0692     0.2879     2.8156   110.7200     0.1772     0.5096
  348    6.940   2773.37     0.2199     0.0063     0.1566     0.0694     0.2858     2.8808   111.0400     0.1748     0.5011
  349    6.960   2774.42     0.2230     0.0061     0.1609     0.0696     0.2902     2.7360   111.3600     0.1788     0.5051
  350    6.980   2775.43     0.2198     0.0065     0.1643     0.0698     0.2879     2.9489   111.6800     0.1763     0.5247
  351    7.000   2776.45     0.2190     0.0059     0.1635     0.0700     0.2877     2.6838   112.0000     0.1757     0.5329
  352    7.020   2777.43     0.2164     0.0059     0.1603     0.0702     0.2843     2.7342   112.3200     0.1720     0.5325
  353    7.040   2778.39     0.2172     0.0060     0.1604     0.0704     0.2842     2.7663   112.6400     0.1716     0.5190
  354    7.060   2779.38     0.2181     0.0058     0.1653     0.0706     0.2868     2.6601   112.9600     0.1738     0.5347
  355    7.080   2780.39     0.2193     0.0060     0.1658     0.0708     0.2895     2.7654   113.2800     0.1762     0.5458
  356    7.100   2781.41     0.2242     0.0057     0.1605     0.0710     0.2926     2.5652   113.6000     0.1790     0.5132
  357    7.120   2782.42     0.2242     0.0058     0.1599     0.0712     0.2918     2.5681   113.9200     0.1778     0.5045
  358    7.140   2783.42     0.2208     0.0056     0.1549     0.0714     0.2865     2.5225   114.2400     0.1723     0.4937
  359    7.160   2784.33     0.2153     0.0057     0.1577     0.0716     0.2813     2.6445   114.5600     0.1668     0.5139
  360    7.180   2785.34     0.2095     0.0059     0.1627     0.0718     0.2763     2.8092   114.8800     0.1614     0.5404
  361    7.200   2786.35     0.2130     0.0057     0.1648     0.0720     0.2823     2.6773   115.2000     0.1671     0.5558
  362    7.220   2787.36     0.2162     0.0056     0.1601     0.0722     0.2837     2.5978   115.5200     0.1682     0.5265
  363    7.240   2788.39     0.2204     0.0057     0.1633     0.0724     0.2891     2.5636   115.8400     0.1732     0.5255
  364    7.260   2789.36     0.2213     0.0057     0.1617     0.0726     0.2895     2.5720   116.1600     0.1734     0.5176
  365    7.280   2790.33     0.2227     0.0061     0.1600     0.0728     0.2897     2.7270   116.4800     0.1733     0.5008
  366    7.300   2791.27     0.2211     0.0060     0.1626     0.0730     0.2890     2.6979   116.8000     0.1722     0.5152
  367    7.320   2792.27     0.2205     0.0058     0.1648     0.0732     0.2898     2.6442   117.1200     0.1726     0.5310
  368    7.340   2793.31     0.2173     0.0060     0.1646     0.0734     0.2863     2.7677   117.4400     0.1688     0.5386
  369    7.360   2794.32     0.2107     0.0057     0.1638     0.0736     0.2797     2.7189   117.7600     0.1620     0.5606
  370    7.380   2795.30     0.2129     0.0060     0.1641     0.0738     0.2824     2.8174   118.0800     0.1643     0.5574
  371    7.400   2796.31     0.2170     0.0058     0.1645     0.0740     0.2857     2.6711   118.4000     0.1673     0.5355
  372    7.420   2797.24     0.2206     0.0059     0.1687     0.0742     0.2906     2.6783   118.7200     0.1719     0.5378
  373    7.440   2798.26     0.2274     0.0059     0.1713     0.0744     0.2992     2.5800   119.0400     0.1801     0.5362
  374    7.460   2799.32     0.2360     0.0064     0.1621     0.0746     0.3055     2.7086   119.3600     0.1861     0.4887
  375    7.480   2800.36     0.2369     0.0062     0.1606     0.0748     0.3040     2.6209   119.6800     0.1843     0.4618
  376    7.500   2801.29     0.2304     0.0063     0.1640     0.0750     0.2987     2.7237   120.0000     0.1787     0.4900
  377    7.520   2802.29     0.2320     0.0062     0.1688     0.0752     0.3022     2.6810   120.3200     0.1819     0.5057
  378    7.540   2803.27     0.2367     0.0057     0.1734     0.0754     0.3089     2.3855   120.6400     0.1883     0.5129
  379    7.560   2804.25     0.2299     0.0061     0.1767     0.0756     0.3035     2.6351   120.9600     0.1825     0.5454
  380    7.580   2805.31     0.2282     0.0058     0.1796     0.0758     0.3038     2.5256   121.2800     0.1826     0.5715
  381    7.600   2806.31     0.2264     0.0058     0.1756     0.0760     0.3014     2.5493   121.6000     0.1798     0.5700
  382    7.620   2807.28     0.2265     0.0058     0.1736     0.0762     0.2994     2.5736   121.9200     0.1775     0.5489
  383    7.640   2808.26     0.2221     0.0063     0.1761     0.0764     0.2954     2.8493   122.2400     0.1732     0.5675
  384    7.660   2809.30     0.2203     0.0064     0.1764     0.0766     0.2943     2.9154   122.5600     0.1718     0.5806
  385    7.680   2810.25     0.2169     0.0064     0.1766     0.0768     0.2912     2.9442   122.8800     0.1683     0.5935
  386    7.700   2811.20     0.2158     0.0061     0.1736     0.0770     0.2894     2.8304   123.2000     0.1662     0.5903
  387    7.720   2812.16     0.2100     0.0058     0.1742     0.0772     0.2827     2.7703   123.5200     0.1591     0.6022
  388    7.740   2813.22     0.2052     0.0057     0.1791     0.0774     0.2798     2.8009   123.8400     0.1560     0.6435
  389    7.760   2814.20     0.2026     0.0056     0.1800     0.0776     0.2785     2.7569   124.1600     0.1544     0.6687
  390    7.780   2815.20     0.2080     0.0056     0.1771     0.0778     0.2828     2.7094   124.4800     0.1583     0.6343
  391    7.800   2816.17     0.2204     0.0057     0.1817     0.0780     0.2960     2.5867   124.8000     0.1712     0.5965
  392    7.820   2817.13     0.2279     0.0061     0.1852     0.0782     0.3052     2.6709   125.1200     0.1801     0.5880
  393    7.840   2818.18     0.2439     0.0062     0.1836     0.0784     0.3215     2.5418   125.4400     0.1961     0.5428
  394    7.860   2819.17     0.2557     0.0063     0.1771     0.0786     0.3311     2.4779   125.7600     0.2054     0.4915
  395    7.880   2820.21     0.2549     0.0068     0.1724     0.0788     0.3281     2.6685   126.0800     0.2021     0.4731
  396    7.900   2821.18     0.2541     0.0069     0.1687     0.0790     0.3252     2.7048   126.4000     0.1988     0.4536
  397    7.920   2822.23     0.2520     0.0068     0.1704     0.0792     0.3235     2.6863   126.7200     0.1968     0.4622
  398    7.940   2823.19     0.2465     0.0065     0.1702     0.0794     0.3180     2.6344   127.0400     0.1909     0.4753
  399    7.960   2824.20     0.2472     0.0067     0.1705     0.0796     0.3185     2.7061   127.3600     0.1911     0.4711
  400    7.980   2825.22     0.2426     0.0064     0.1756     0.0798     0.3155     2.6321   127.6800     0.1878     0.4993
  401    8.000   2826.23     0.2335     0.0060     0.1808     0.0800     0.3086     2.5619   128.0000     0.1806     0.5477
  402    8.020   2827.20     0.2297     0.0056     0.1786     0.0802     0.3060     2.4464   128.3200     0.1777     0.5719
  403    8.040   2828.20     0.2242     0.0059     0.1750     0.0804     0.2973     2.6485   128.6400     0.1687     0.5562
  404    8.060   2829.17     0.2159     0.0047     0.1772     0.0806     0.2901     2.1393   128.9600     0.1612     0.5974
  405    8.080   2830.21     0.2012     0.0061     0.1729     0.0808     0.2743     2.9628   129.2800     0.1451     0.6429
  406    8.100   2831.20     0.1932     0.0060     0.1707     0.0810     0.2651     3.0590   129.6000     0.1355     0.6666
  407    8.120   2832.15     0.1899     0.0058     0.1698     0.0812     0.2617     3.0542   129.9200     0.1318     0.6819
  408    8.140   2833.17     0.1899     0.0057     0.1755     0.0814     0.2632     2.9862   130.2400     0.1330     0.6994
  409    8.160   2835.39     0.1685     0.0055     0.1808     0.0816     0.2441     2.8178   130.5600     0.1136     0.8676
  410    8.180   2836.53     0.1968     0.0053     0.1883     0.0818     0.2748     2.6494   130.8800     0.1440     0.7229
  411    8.200   2837.52     0.2074     0.0056     0.1922     0.0820     0.2878     2.7060   131.2000     0.1566     0.6978
  412    8.220   2838.50     0.2131     0.0061     0.1958     0.0822     0.2947     2.8897   131.5200     0.1632     0.6868
  413    8.240   2839.49     0.2216     0.0065     0.1966     0.0824     0.3048     2.9437   131.8400     0.1729     0.6680
  414    8.260   2849.82     0.2295     0.0067     0.1861     0.0826     0.3092     3.0229   132.1600     0.1770     0.6081
  415    8.280   2862.67     0.2385     0.0068     0.1757     0.0828     0.3138     3.0759   132.4800     0.1813     0.5354
  416    8.300   2875.52     0.2475     0.0067     0.1683     0.0830     0.3184     2.8088   132.8000     0.1856     0.4627
  417    8.320   2877.23     0.2460     0.0064     0.1778     0.0832     0.3188     2.5982   133.1200     0.1857     0.4859
  418    8.340   2878.20     0.2395     0.0066     0.1836     0.0834     0.3159     2.7376   133.4400     0.1824     0.5391
  419    8.360   2879.20     0.2338     0.0062     0.1876     0.0836     0.3122     2.6585   133.7600     0.1785     0.5783
  420    8.380   2880.21     0.2358     0.0060     0.1889     0.0838     0.3156     2.5707   134.0800     0.1815     0.5850
  421    8.400   2881.21     0.2221     0.0060     0.1924     0.0840     0.3024     2.6601   134.4000     0.1680     0.6379
  422    8.420   2882.18     0.2356     0.0056     0.1934     0.0842     0.3176     2.3949   134.7200     0.1828     0.6075
  423    8.440   2883.25     0.2334     0.0054     0.1961     0.0844     0.3152     2.3248   135.0400     0.1802     0.6129
  424    8.460   2884.19     0.2282     0.0056     0.1925     0.0846     0.3094     2.4702   135.3600     0.1741     0.6252
  425    8.480   2885.19     0.2281     0.0056     0.1944     0.0848     0.3094     2.4463   135.6800     0.1737     0.6263
  426    8.500   2886.21     0.2327     0.0055     0.1986     0.0850     0.3151     2.3862   136.0000     0.1791     0.6209
  427    8.520   2887.18     0.2387     0.0056     0.1941     0.0852     0.3212     2.3642   136.3200     0.1849     0.6020
  428    8.540   2888.15     0.2350     0.0056     0.1930     0.0854     0.3159     2.3780   136.6400     0.1792     0.5973
  429    8.560   2889.20     0.2300     0.0053     0.1934     0.0856     0.3116     2.2900   136.9600     0.1747     0.6221
  430    8.580   2890.19     0.2243     0.0055     0.1919     0.0858     0.3044     2.4455   137.2800     0.1672     0.6276
  431    8.600   2891.19     0.2244     0.0055     0.1975     0.0860     0.3065     2.4624   137.6000     0.1689     0.6484
  432    8.620   2892.15     0.2431     0.0054     0.2022     0.0862     0.3279     2.2404   137.9200     0.1900     0.6092
  433    8.640   2893.12     0.2423     0.0056     0.2023     0.0864     0.3279     2.2899   138.2400     0.1897     0.6194
  434    8.660   2894.10     0.2446     0.0052     0.1841     0.0866     0.3249     2.1424   138.5600     0.1863     0.5611
  435    8.680   2895.09     0.2371     0.0053     0.1785     0.0868     0.3126     2.2202   138.8800     0.1737     0.5354
  436    8.700   2896.10     0.2230     0.0053     0.1812     0.0870     0.2987     2.3883   139.2000     0.1595     0.5854
  437    8.720   2897.09     0.2296     0.0057     0.1828     0.0872     0.3058     2.4938   139.5200     0.1663     0.5672
  438    8.740   2898.09     0.2446     0.0054     0.1863     0.0874     0.3220     2.2540   139.8400     0.1822     0.5325
  439    8.760   2899.08     0.2595     0.0057     0.1934     0.0876     0.3403     2.2073   140.1600     0.2002     0.5235
  440    8.780   2900.05     0.2704     0.0052     0.1965     0.0878     0.3525     1.9386   140.4800     0.2120     0.5079
  441    8.800   2901.05     0.2725     0.0051     0.2022     0.0880     0.3560     1.8804   140.8000     0.2152     0.5150
  442    8.820   2902.07     0.2726     0.0052     0.2050     0.0882     0.3590     1.9183   141.1200     0.2178     0.5389
  443    8.840   2903.05     0.2731     0.0053     0.2040     0.0884     0.3590     1.9435   141.4400     0.2176     0.5336
  444    8.860   2904.05     0.2750     0.0051     0.2032     0.0886     0.3601     1.8393   141.7600     0.2184     0.5226
  445    8.880   2905.04     0.2767     0.0059     0.2009     0.0888     0.3619     2.1434   142.0800     0.2198     0.5189
  446    8.900   2906.07     0.2819     0.0061     0.1963     0.0890     0.3647     2.1820   142.4000     0.2223     0.4872
  447    8.920   2907.04     0.2782     0.0063     0.1984     0.0892     0.3606     2.2521   142.7200     0.2179     0.4916
  448    8.940   2908.08     0.2814     0.0071     0.2030     0.0894     0.3661     2.5322   143.0400     0.2231     0.5035
  449    8.960   2909.06     0.3266     0.0066     0.1953     0.0896     0.4107     2.0930   143.3600     0.2674     0.4174
  450    8.980   2910.07     0.3696     0.0056     0.1898     0.0898     0.4492     1.5013   143.6800     0.3055     0.3269
  451    9.000   2911.05     0.3607     0.0059     0.1785     0.0900     0.4382     1.6384   144.0000     0.2942     0.3211
  452    9.020   2912.06     0.3454     0.0062     0.1515     0.0902     0.4118     1.7851   144.3200     0.2675     0.2528
  453    9.040   2913.05     0.3907     0.0061     0.1619     0.0904     0.4565     1.6189   144.6400     0.3119     0.2127
  454    9.060   2914.01     0.3761     0.0055     0.1744     0.0906     0.4476     1.4463   144.9600     0.3026     0.2632
  455    9.080   2915.02     0.3799     0.0049     0.1775     0.0908     0.4545     1.3063   145.2800     0.3092     0.2810
  456    9.100   2916.01     0.3850     0.0048     0.1862     0.0910     0.4615     1.2071   145.6000     0.3159     0.2892
  457    9.120   2916.98     0.3509     0.0049     0.1944     0.0912     0.4311     1.3714   145.9200     0.2851     0.3497
  458    9.140   2917.96     0.3609     0.0052     0.2032     0.0914     0.4453     1.4592   146.2400     0.2991     0.3660
  459    9.160   2918.99     0.3876     0.0058     0.2005     0.0916     0.4731     1.4887   146.5600     0.3266     0.3430
  460    9.180   2919.96     0.3938     0.0061     0.1893     0.0918     0.4737     1.5644   146.8800     0.3268     0.3012
  461    9.200   2920.92     0.3983     0.0072     0.1825     0.0920     0.4760     1.8125   147.2000     0.3288     0.2835
  462    9.220   2921.96     0.3865     0.0070     0.1850     0.0922     0.4640     1.7998   147.5200     0.3165     0.2915
  463    9.240   2922.95     0.3692     0.0070     0.1623     0.0924     0.4404     1.8757   147.8400     0.2926     0.2638
  464    9.260   2923.95     0.3652     0.0063     0.1553     0.0926     0.4289     1.7307   148.1600     0.2808     0.2103
  465    9.280   2924.91     0.3579     0.0063     0.1683     0.0928     0.4266     1.7688   148.4800     0.2781     0.2546
  466    9.300   2925.90     0.3641     0.0060     0.1772     0.0930     0.4374     1.6646   148.8000     0.2886     0.2832
  467    9.320   2926.90     0.4429     0.0053     0.1797     0.0932     0.5184     1.1975   149.1200     0.3693     0.2349
  468    9.340   2927.91     0.5064     0.0055     0.1749     0.0934     0.5792     1.0869   149.4400     0.4298     0.1861
  469    9.360   2928.91     0.4810     0.0061     0.1796     0.0936     0.5560     1.2615   149.7600     0.4062     0.2092
  470    9.380   2929.93     0.4411     0.0061     0.1898     0.0938     0.5188     1.3592   150.0800     0.3687     0.2482
  471    9.400   2930.94     0.3900     0.0061     0.1979     0.0940     0.4717     1.5632   150.4000     0.3213     0.3129
  472    9.420   2931.92     0.3697     0.0071     0.2056     0.0942     0.4551     1.9259   150.7200     0.3044     0.3583
  473    9.440   2932.94     0.3483     0.0075     0.2127     0.0944     0.4364     2.1352   151.0400     0.2854     0.4049
  474    9.460   2933.93     0.3469     0.0078     0.2182     0.0946     0.4380     2.2750   151.3600     0.2866     0.4265
  475    9.480   2934.91     0.3599     0.0076     0.2232     0.0948     0.4526     2.1177   151.6800     0.3010     0.4190
  476    9.500   2935.90     0.3774     0.0078     0.2318     0.0950     0.4733     2.0756   152.0000     0.3213     0.4151
  477    9.520   2936.92     0.4020     0.0072     0.2378     0.0952     0.5008     1.8036   152.3200     0.3485     0.4021
  478    9.540   2937.91     0.4251     0.0066     0.2419     0.0954     0.5263     1.5683   152.6400     0.3736     0.3892
  479    9.560   2938.88     0.4202     0.0069     0.2471     0.0956     0.5233     1.6410   152.9600     0.3703     0.4047
  480    9.580   2939.89     0.4175     0.0066     0.2510     0.0958     0.5224     1.5856   153.2800     0.3691     0.4168
  481    9.600   2940.87     0.4184     0.0072     0.2491     0.0960     0.5236     1.7359   153.6000     0.3700     0.4177
  482    9.620   2941.84     0.4523     0.0079     0.2537     0.0962     0.5576     1.8226   153.9200     0.4036     0.3845
  483    9.640   2942.85     0.4983     0.0080     0.2190     0.0964     0.5997     1.6115   154.2400     0.4455     0.3252
  484    9.660   2943.84     0.4991     0.0079     0.2157     0.0966     0.5918     1.6327   154.5600     0.4373     0.2847
  485    9.680   2944.85     0.4868     0.0082     0.1862     0.0968     0.5747     1.6948   154.8800     0.4199     0.2677
  486    9.700   2945.85     0.4956     0.0065     0.1992     0.0970     0.5761     1.2958   155.2000     0.4209     0.2250
  487    9.720   2946.81     0.4495     0.0065     0.2089     0.0972     0.5353     1.4375   155.5200     0.3797     0.2817
  488    9.740   2947.84     0.4332     0.0068     0.2220     0.0974     0.5254     1.5766   155.8400     0.3695     0.3303
  489    9.760   2948.83     0.4212     0.0068     0.2260     0.0976     0.5157     1.6083   156.1600     0.3596     0.3546
  490    9.780   2949.82     0.3854     0.0067     0.2244     0.0978     0.4803     1.7316   156.4800     0.3238     0.3957
  491    9.800   2950.81     0.3565     0.0072     0.2123     0.0980     0.4477     2.0306   156.8000     0.2909     0.4093
  492    9.820   2951.79     0.3735     0.0077     0.1955     0.0982     0.4569     2.0695   157.1200     0.2997     0.3347
  493    9.840   2952.79     0.4031     0.0075     0.1988     0.0984     0.4841     1.8636   157.4400     0.3267     0.2896
  494    9.860   2953.78     0.4321     0.0070     0.2082     0.0986     0.5192     1.6363   157.7600     0.3615     0.3009
  495    9.880   2954.78     0.4252     0.0069     0.2035     0.0988     0.5128     1.6253   158.0800     0.3547     0.3095
  496    9.900   2955.81     0.4448     0.0071     0.2111     0.0990     0.5316     1.6016   158.4000     0.3732     0.2885
  497    9.920   2956.82     0.4203     0.0086     0.2166     0.0992     0.5105     2.0157   158.7200     0.3518     0.3286
  498    9.940   2957.84     0.3882     0.0086     0.2191     0.0994     0.4797     2.1941   159.0400     0.3207     0.3692
  499    9.960   2958.83     0.3860     0.0097     0.2241     0.0996     0.4801     2.5075   159.3600     0.3208     0.3885
  500    9.980   2959.82     0.3813     0.0100     0.2185     0.0998     0.4740     2.6047   159.6800     0.3143     0.3848
  501   10.000   2960.82     0.3949     0.0107     0.2162     0.1000     0.4860     2.7277   160.0000     0.3260     0.3587
  502   10.020   2961.79     0.3989     0.0106     0.2159     0.1002     0.4894     2.6534   160.3200     0.3291     0.3503
  503   10.040   2962.79     0.3966     0.0113     0.2200     0.1004     0.4877     2.7992   160.6400     0.3270     0.3558
  504   10.060   2963.80     0.4031     0.0118     0.2307     0.1006     0.4984     2.9319   160.9600     0.3375     0.3746
  505   10.080   2964.75     0.4134     0.0117     0.2386     0.1008     0.5130     2.8456   161.2800     0.3517     0.3874
  506   10.100   2965.73     0.4406     0.0123     0.2514     0.1010     0.5440     2.8302   161.6000     0.3824     0.3797
  507   10.120   2966.73     0.4651     0.0114     0.2521     0.1012     0.5711     2.5295   161.9200     0.4092     0.3692
  508   10.140   2984.37     0.4529     0.0115     0.2519     0.1014     0.5587     2.4772   162.2400     0.3965     0.3803
  509   10.160   3002.38     0.4396     0.0117     0.2519     0.1016     0.5454     2.5573   162.5600     0.3828     0.3925
  510   10.180   3008.88     0.4420     0.0118     0.2648     0.1018     0.5513     2.6555   162.8800     0.3884     0.4081
  511   10.200   3009.92     0.4289     0.0113     0.2692     0.1020     0.5412     2.6201   163.2000     0.3780     0.4376
  512   10.220   3010.94     0.4442     0.0109     0.2704     0.1022     0.5572     2.4854   163.5200     0.3937     0.4241
  513   10.240   3011.94     0.4536     0.0101     0.2825     0.1024     0.5705     2.2279   163.8400     0.4066     0.4326
  514   10.260   3012.96     0.4627     0.0092     0.2890     0.1026     0.5831     1.9993   164.1600     0.4189     0.4392
  515   10.280   3013.90     0.4575     0.0085     0.2899     0.1028     0.5797     1.8508   164.4800     0.4152     0.4533
  516   10.300   3014.82     0.4403     0.0080     0.2713     0.1030     0.5577     1.8234   164.8000     0.3929     0.4496
  517   10.320   3015.81     0.4134     0.0082     0.2449     0.1032     0.5196     1.9786   165.1200     0.3545     0.4222
  518   10.340   3016.87     0.3619     0.0085     0.2180     0.1034     0.4580     2.3174   165.4400     0.2925     0.4287
  519   10.360   3017.92     0.3524     0.0091     0.1927     0.1036     0.4354     2.6142   165.7600     0.2696     0.3485
  520   10.380   3018.91     0.3282     0.0085     0.1904     0.1038     0.4096     2.5665   166.0800     0.2436     0.3699
  521   10.400   3019.92     0.3230     0.0088     0.1870     0.1040     0.4020     2.6873   166.4000     0.2356     0.3569
  522   10.420   3020.88     0.3444     0.0090     0.1860     0.1042     0.4225     2.7167   166.7200     0.2558     0.3211
  523   10.440   3021.86     0.4097     0.0094     0.2065     0.1044     0.4928     2.2988   167.0400     0.3257     0.2868
  524   10.460   3022.88     0.3988     0.0089     0.2212     0.1046     0.4906     2.2202   167.3600     0.3232     0.3527
  525   10.480   3023.87     0.3874     0.0081     0.2270     0.1048     0.4817     2.1004   167.6800     0.3140     0.3811
  526   10.500   3024.87     0.4137     0.0073     0.2265     0.1050     0.5091     1.7876   168.0000     0.3411     0.3578
  527   10.520   3025.86     0.4100     0.0068     0.2239     0.1052     0.5043     1.6584   168.3200     0.3360     0.3548
  528   10.540   3026.86     0.4106     0.0055     0.2297     0.1054     0.5068     1.3503   168.6400     0.3382     0.3658
  529   10.560   3027.88     0.4320     0.0043     0.2331     0.1056     0.5291     1.0065   168.9600     0.3602     0.3493
  530   10.580   3028.87     0.4888     0.0040     0.2341     0.1058     0.5873     0.8314   169.2800     0.4180     0.3085
  531   10.600   3029.84     0.5132     0.0042     0.2229     0.1060     0.6078     0.8252   169.6000     0.4382     0.2723
  532   10.620   3030.80     0.5041     0.0051     0.2168     0.1062     0.5965     1.0169   169.9200     0.4266     0.2668
  533   10.640   3031.80     0.6213     0.0058     0.2038     0.1064     0.7104     1.0193   170.2400     0.5401     0.1994
  534   10.660   3032.77     1.0635     0.0065     0.1736     0.1066     1.1443     0.6761   170.5600     0.9737     0.0898
  535   10.680   3033.79     1.9277     0.0071     0.1535     0.1068     1.9953     0.3941   170.8800     1.8245     0.0300
  536   10.700   3034.80     2.7579     0.0080     0.1362     0.1070     2.8180     0.3021   171.2000     2.6468     0.0137
  537   10.720   3035.74     3.4227     0.0105     0.1293     0.1072     3.4770     0.3167   171.5200     3.3054     0.0067
  538   10.740   3036.73     3.9256     0.0140     0.1250     0.1074     3.9794     0.3636   171.8400     3.8076     0.0055
  539   10.760   3037.74     4.2979     0.0175     0.1264     0.1076     4.3527     0.4112   172.1600     4.1805     0.0055
  540   10.780   3038.79     4.3208     0.0200     0.1225     0.1078     4.3725     0.4628   172.4800     4.2000     0.0036
  541   10.800   3039.76     4.1952     0.0210     0.1262     0.1080     4.2478     0.4970   172.8000     4.0750     0.0043
  542   10.820   3040.74     3.9568     0.0205     0.1276     0.1082     4.0102     0.5147   173.1200     3.8370     0.0049
  543   10.840   3041.68     3.6959     0.0192     0.1316     0.1084     3.7505     0.5204   173.4400     3.5771     0.0060
  544   10.860   3042.68     3.4523     0.0183     0.1390     0.1086     3.5093     0.5294   173.7600     3.3356     0.0081
  545   10.880   3043.75     3.2134     0.0170     0.1449     0.1088     3.2757     0.5247   174.0800     3.1016     0.0128
  546   10.900   3044.75     2.9724     0.0146     0.1431     0.1090     3.0327     0.4882   174.4000     2.8583     0.0121
  547   10.920   3045.74     2.6693     0.0143     0.1416     0.1092     2.7292     0.5264   174.7200     2.5545     0.0131
  548   10.940   3046.78     2.4014     0.0127     0.1427     0.1094     2.4602     0.5194   175.0400     2.2852     0.0134
  549   10.960   3051.29     2.2037     0.0118     0.1287     0.1096     2.2598     0.6579   175.3600     2.0845     0.0112
  550   10.980   3057.29     2.0538     0.0131     0.1194     0.1098     2.1041     0.6636   175.6800     1.9285     0.0052
  551   11.000   3058.26     1.8401     0.0132     0.1302     0.1100     1.8916     0.6957   176.0000     1.7156     0.0074
  552   11.020   3059.23     1.5742     0.0130     0.1338     0.1102     1.6297     0.8097   176.3200     1.4534     0.0151
  553   11.040   3060.22     1.3220     0.0128     0.1409     0.1104     1.3802     0.9332   176.6400     1.2036     0.0235
  554   11.060   3061.19     1.0822     0.0119     0.1502     0.1106     1.1442     1.0680   176.9600     0.9672     0.0382
  555   11.080   3062.17     0.9301     0.0123     0.1626     0.1108     0.9961     1.2954   177.2800     0.8188     0.0568
  556   11.100   3063.13     0.8973     0.0112     0.1749     0.1110     0.9693     1.2432   177.6000     0.7917     0.0763
  557   11.120   3064.16     0.9321     0.0102     0.1797     0.1112     1.0074     1.1085   177.9200     0.8295     0.0821
  558   11.140   3065.16     1.0208     0.0104     0.1791     0.1114     1.0956     1.0326   178.2400     0.9174     0.0727
  559   11.160   3066.15     1.0629     0.0099     0.1862     0.1116     1.1401     0.9371   178.5600     0.9616     0.0753
  560   11.180   3067.15     1.0449     0.0098     0.1870     0.1118     1.1229     0.9311   178.8800     0.9440     0.0784
  561   11.200   3068.15     0.9986     0.0091     0.1908     0.1120     1.0782     0.8974   179.2000     0.8990     0.0862
  562   11.220   3069.12     0.9509     0.0095     0.1920     0.1122     1.0317     0.9961   179.5200     0.8522     0.0940
  563   11.240   3070.10     0.9485     0.0096     0.1907     0.1124     1.0285     1.0145   179.8400     0.8487     0.0921
  564   11.260   3071.13     1.0038     0.0092     0.1943     0.1126     1.0853     0.9267   180.1600     0.9051     0.0900
  565   11.280   3072.09     1.0143     0.0081     0.1943     0.1128     1.0957     0.7942   180.4800     0.9152     0.0886
  566   11.300   3073.06     0.9389     0.0075     0.2001     0.1130     1.0217     0.7955   180.8000     0.8409     0.1002
  567   11.320   3074.03     0.8838     0.0075     0.2076     0.1132     0.9698     0.8395   181.1200     0.7887     0.1162
  568   11.340   3075.11     0.8479     0.0068     0.2107     0.1134     0.9365     0.7928   181.4400     0.7550     0.1290
  569   11.360   3076.12     0.7864     0.0065     0.2183     0.1136     0.8770     0.8215   181.7600     0.6952     0.1468
  570   11.380   3077.12     0.7208     0.0063     0.2218     0.1138     0.8132     0.8681   182.0800     0.6312     0.1687
  571   11.400   3078.13     0.6578     0.0059     0.2298     0.1140     0.7534     0.8878   182.4000     0.5710     0.1989
  572   11.420   3079.13     0.6323     0.0059     0.2385     0.1142     0.7311     0.9218   182.7200     0.5484     0.2208
  573   11.440   3080.05     0.6060     0.0065     0.2497     0.1144     0.7093     1.0458   183.0400     0.5263     0.2500
  574   11.460   3081.12     0.6196     0.0071     0.2574     0.1146     0.7267     1.1089   183.3600     0.5434     0.2583
  575   11.480   3082.11     0.6627     0.0078     0.2598     0.1148     0.7719     1.1720   183.6800     0.5882     0.2471
  576   11.500   3083.16     0.6683     0.0087     0.2582     0.1150     0.7772     1.3023   184.0000     0.5932     0.2433
  577   11.520   3084.10     0.6367     0.0090     0.2536     0.1152     0.7444     1.4100   184.3200     0.5601     0.2523
  578   11.540   3085.04     0.6240     0.0094     0.2495     0.1154     0.7284     1.5162   184.6400     0.5438     0.2452
  579   11.560   3092.19     0.5975     0.0097     0.2554     0.1156     0.7040     1.5592   184.9600     0.5190     0.2673
  580   11.580   3100.44     0.5719     0.0102     0.2614     0.1158     0.6808     1.6447   185.2800     0.4955     0.2917
  581   11.600   3108.25     0.5457     0.0105     0.2710     0.1160     0.6573     1.8336   185.6000     0.4717     0.3178
  582   11.620   3109.25     0.5233     0.0110     0.2860     0.1162     0.6409     2.0880   185.9200     0.4550     0.3600
  583   11.640   3110.23     0.5261     0.0109     0.2924     0.1164     0.6474     2.0649   186.2400     0.4612     0.3741
  584   11.660   3111.25     0.5262     0.0112     0.3052     0.1166     0.6524     2.1258   186.5600     0.4659     0.3946
  585   11.680   3112.25     0.5310     0.0114     0.3127     0.1168     0.6614     2.1401   186.8800     0.4745     0.4081
  586   11.700   3113.17     0.5281     0.0117     0.3221     0.1170     0.6620     2.2241   187.2000     0.4748     0.4252
  587   11.720   3114.22     0.5246     0.0114     0.3315     0.1172     0.6626     2.1750   187.5200     0.4751     0.4450
  588   11.740   3115.19     0.5246     0.0113     0.3395     0.1174     0.6658     2.1546   187.8400     0.4780     0.4581
  589   11.760   3116.24     0.5193     0.0114     0.3476     0.1176     0.6643     2.1894   188.1600     0.4761     0.4779
  590   11.780   3117.23     0.5085     0.0111     0.3545     0.1178     0.6562     2.1821   188.4800     0.4677     0.5000
  591   11.800   3118.24     0.5072     0.0111     0.3626     0.1180     0.6581     2.1758   188.8000     0.4693     0.5142
  592   11.820   3119.18     0.5152     0.0113     0.3697     0.1182     0.6693     2.1987   189.1200     0.4802     0.5182
  593   11.840   3120.25     0.5142     0.0112     0.3760     0.1184     0.6714     2.1707   189.4400     0.4820     0.5312
  594   11.860   3121.27     0.5188     0.0115     0.3830     0.1186     0.6788     2.2189   189.7600     0.4890     0.5363
  595   11.880   3122.25     0.5253     0.0115     0.3856     0.1188     0.6873     2.1962   190.0800     0.4973     0.5369
  596   11.900   3123.22     0.5300     0.0113     0.3873     0.1190     0.6921     2.1321   190.4000     0.5017     0.5322
  597   11.920   3124.19     0.5299     0.0118     0.3895     0.1192     0.6933     2.2373   190.7200     0.5026     0.5370
  598   11.940   3125.21     0.5233     0.0119     0.3926     0.1194     0.6872     2.2675   191.0400     0.4961     0.5456
  599   11.960   3126.22     0.5192     0.0121     0.3985     0.1196     0.6856     2.3275   191.3600     0.4942     0.5594
  600   11.980   3127.29     0.5345     0.0124     0.4021     0.1198     0.7034     2.3205   191.6800     0.5117     0.5517
  601   12.000   3128.26     0.5434     0.0123     0.3989     0.1200     0.7121     2.2821   192.0000     0.5201     0.5415
  602   12.020   3129.30     0.5571     0.0131     0.3950     0.1202     0.7232     2.3601   192.3200     0.5308     0.5182
  603   12.040   3135.45     0.5520     0.0131     0.3831     0.1204     0.7153     2.3734   192.6400     0.5226     0.5132
  604   12.060   3156.18     0.5534     0.0129     0.3668     0.1206     0.7098     2.3388   192.9600     0.5168     0.4870
  605   12.080   3168.16     0.5457     0.0131     0.3732     0.1208     0.7005     2.3846   193.2800     0.5072     0.4884
  606   12.100   3169.12     0.5403     0.0135     0.3829     0.1210     0.7001     2.4966   193.6000     0.5065     0.5126
  607   12.120   3170.17     0.5436     0.0127     0.3931     0.1212     0.7072     2.3374   193.9200     0.5133     0.5228
  608   12.140   3171.12     0.5420     0.0128     0.4026     0.1214     0.7100     2.3683   194.2400     0.5157     0.5399
  609   12.160   3172.09     0.5436     0.0133     0.4085     0.1216     0.7144     2.4444   194.5600     0.5198     0.5483
  610   12.180   3173.14     0.5575     0.0133     0.4119     0.1218     0.7303     2.3989   194.8800     0.5354     0.5410
  611   12.200   3174.11     0.5625     0.0137     0.4130     0.1220     0.7359     2.4428   195.2000     0.5407     0.5377
  612   12.220   3175.10     0.5633     0.0138     0.4167     0.1222     0.7375     2.4500   195.5200     0.5420     0.5398
  613   12.240   3176.08     0.5531     0.0138     0.4089     0.1224     0.7251     2.4990   195.8400     0.5293     0.5425
  614   12.260   3177.09     0.5445     0.0141     0.4141     0.1226     0.7177     2.5815   196.1600     0.5216     0.5558
  615   12.280   3178.06     0.5434     0.0142     0.4190     0.1228     0.7187     2.6221   196.4800     0.5222     0.5642
  616   12.300   3179.07     0.5415     0.0140     0.4263     0.1230     0.7195     2.5819   196.8000     0.5227     0.5756
  617   12.320   3180.08     0.5406     0.0141     0.4338     0.1232     0.7216     2.6105   197.1200     0.5245     0.5866
  618   12.340   3181.12     0.5402     0.0140     0.4396     0.1234     0.7240     2.5825   197.4400     0.5266     0.5970
  619   12.360   3182.13     0.5452     0.0141     0.4448     0.1236     0.7313     2.5905   197.7600     0.5335     0.5988
  620   12.380   3183.11     0.5498     0.0145     0.4419     0.1238     0.7375     2.6454   198.0800     0.5394     0.5991
  621   12.400   3184.13     0.5602     0.0144     0.4299     0.1240     0.7422     2.5832   198.4000     0.5438     0.5689
  622   12.420   3185.08     0.5525     0.0144     0.4293     0.1242     0.7321     2.5935   198.7200     0.5334     0.5689
  623   12.440   3186.11     0.5468     0.0144     0.4331     0.1244     0.7281     2.6240   199.0400     0.5291     0.5809
  624   12.460   3187.11     0.5371     0.0139     0.4391     0.1246     0.7208     2.5662   199.3600     0.5215     0.5998
  625   12.480   3188.11     0.5362     0.0138     0.4472     0.1248     0.7226     2.5600   199.6800     0.5229     0.6101
  626   12.500   3189.10     0.5367     0.0132     0.4545     0.1250     0.7267     2.4702   200.0000     0.5267     0.6213
  627   12.520   3190.08     0.5399     0.0134     0.4613     0.1252     0.7327     2.4960   200.3200     0.5324     0.6272
  628   12.540   3191.06     0.5411     0.0139     0.4644     0.1254     0.7361     2.5804   200.6400     0.5355     0.6332
  629   12.560   3192.05     0.5523     0.0141     0.4597     0.1256     0.7462     2.5559   200.9600     0.5452     0.6165
  630   12.580   3192.99     0.5546     0.0140     0.4498     0.1258     0.7451     2.5298   201.2800     0.5438     0.6026
  631   12.600   3194.01     0.5635     0.0141     0.4412     0.1260     0.7494     2.5128   201.6000     0.5478     0.5779
  632   12.620   3195.00     0.5628     0.0141     0.4469     0.1262     0.7498     2.5026   201.9200     0.5479     0.5825
  633   12.640   3195.99     0.5565     0.0139     0.4470     0.1264     0.7443     2.4914   202.2400     0.5420     0.5917
  634   12.660   3197.02     0.5561     0.0139     0.4467     0.1266     0.7439     2.4915   202.5600     0.5413     0.5920
  635   12.680   3197.95     0.5567     0.0139     0.4414     0.1268     0.7430     2.4906   202.8800     0.5402     0.5867
  636   12.700   3198.93     0.5526     0.0139     0.4403     0.1270     0.7378     2.5145   203.2000     0.5346     0.5874
  637   12.720   3199.93     0.5593     0.0141     0.4321     0.1272     0.7420     2.5241   203.5200     0.5385     0.5717
  638   12.740   3200.94     0.5611     0.0134     0.4315     0.1274     0.7428     2.3984   203.8400     0.5390     0.5665
  639   12.760   3201.93     0.5591     0.0137     0.4240     0.1276     0.7376     2.4516   204.1600     0.5335     0.5576
  640   12.780   3202.97     0.5575     0.0136     0.4183     0.1278     0.7345     2.4451   204.4800     0.5301     0.5541
  641   12.800   3203.96     0.5515     0.0134     0.4130     0.1280     0.7259     2.4251   204.8000     0.5211     0.5514
  642   12.820   3204.95     0.5344     0.0134     0.4202     0.1282     0.7096     2.4935   205.1200     0.5044     0.5726
  643   12.840   3205.94     0.5350     0.0139     0.4231     0.1284     0.7120     2.5914   205.4400     0.5066     0.5787
  644   12.860   3206.94     0.5277     0.0136     0.4279     0.1286     0.7072     2.5760   205.7600     0.5014     0.5961
  645   12.880   3208.00     0.5196     0.0135     0.4287     0.1288     0.6998     2.5983   206.0800     0.4937     0.6082
  646   12.900   3209.00     0.5286     0.0133     0.4219     0.1290     0.7062     2.5129   206.4000     0.4998     0.5883
  647   12.920   3209.96     0.5301     0.0129     0.4297     0.1292     0.7093     2.4326   206.7200     0.5026     0.5921
  648   12.940   3210.95     0.5303     0.0129     0.4374     0.1294     0.7129     2.4306   207.0400     0.5058     0.6035
  649   12.960   3211.97     0.5294     0.0133     0.4428     0.1296     0.7147     2.5149   207.3600     0.5074     0.6145
  650   12.980   3212.93     0.5306     0.0127     0.4469     0.1298     0.7178     2.3993   207.6800     0.5101     0.6192
  651   13.000   3213.96     0.5257     0.0124     0.4427     0.1300     0.7131     2.3595   208.0000     0.5051     0.6258
  652   13.020   3214.94     0.5297     0.0127     0.4390     0.1302     0.7160     2.4043   208.3200     0.5076     0.6172
  653   13.040   3215.95     0.5409     0.0131     0.4393     0.1304     0.7260     2.4264   208.6400     0.5174     0.5998
  654   13.060   3216.92     0.5415     0.0132     0.4427     0.1306     0.7271     2.4380   208.9600     0.5181     0.6006
  655   13.080   3217.86     0.5483     0.0136     0.4372     0.1308     0.7321     2.4802   209.2800     0.5228     0.5868
  656   13.100   3218.91     0.5531     0.0131     0.4348     0.1310     0.7360     2.3756   209.6000     0.5264     0.5785
  657   13.120   3219.89     0.5506     0.0129     0.4376     0.1312     0.7340     2.3453   209.9200     0.5240     0.5827
  658   13.140   3220.89     0.5513     0.0125     0.4345     0.1314     0.7345     2.2656   210.2400     0.5242     0.5814
  659   13.160   3221.89     0.5541     0.0126     0.4378     0.1316     0.7382     2.2734   210.5600     0.5277     0.5814
  660   13.180   3222.89     0.5604     0.0123     0.4459     0.1318     0.7471     2.2047   210.8800     0.5362     0.5831
  661   13.200   3223.86     0.5659     0.0126     0.4476     0.1320     0.7543     2.2420   211.2000     0.5431     0.5832
  662   13.220   3224.87     0.5742     0.0125     0.4457     0.1322     0.7612     2.1766   211.5200     0.5497     0.5694
  663   13.240   3225.87     0.6056     0.0125     0.4341     0.1324     0.7892     2.0537   211.8400     0.5773     0.5275
  664   13.260   3226.86     0.5946     0.0128     0.4197     0.1326     0.7716     2.1552   212.1600     0.5594     0.5164
  665   13.280   3227.85     0.5838     0.0127     0.4016     0.1328     0.7569     2.1841   212.4800     0.5445     0.5131
  666   13.300   3228.87     0.5845     0.0129     0.4090     0.1330     0.7535     2.1811   212.8000     0.5407     0.4986
  667   13.320   3229.85     0.5572     0.0123     0.4112     0.1332     0.7275     2.1959   213.1200     0.5144     0.5295
  668   13.340   3230.86     0.5502     0.0122     0.4202     0.1334     0.7256     2.2158   213.4400     0.5122     0.5551
  669   13.360   3231.88     0.5408     0.0121     0.4290     0.1336     0.7197     2.2397   213.7600     0.5060     0.5780
  670   13.380   3232.90     0.5301     0.0126     0.4377     0.1338     0.7131     2.3700   214.0800     0.4990     0.6046
  671   13.400   3233.89     0.5280     0.0127     0.4466     0.1340     0.7142     2.4080   214.4000     0.4998     0.6192
  672   13.420   3234.92     0.5303     0.0112     0.4533     0.1342     0.7197     2.1174   214.7200     0.5050     0.6272
  673   13.440   3235.86     0.5437     0.0097     0.4609     0.1344     0.7360     1.7946   215.0400     0.5210     0.6208
  674   13.460   3236.86     0.5467     0.0110     0.4655     0.1346     0.7418     2.0165   215.3600     0.5264     0.6265
  675   13.480   3237.87     0.5547     0.0117     0.4664     0.1348     0.7507     2.1255   215.6800     0.5350     0.6203
  676   13.500   3238.89     0.5803     0.0122     0.4657     0.1350     0.7759     2.1257   216.0000     0.5599     0.5912
  677   13.520   3239.88     0.6144     0.0132     0.4258     0.1352     0.7991     2.1655   216.3200     0.5827     0.5227
  678   13.540   3240.87     0.6139     0.0135     0.3568     0.1354     0.7664     2.1794   216.6400     0.5498     0.4141
  679   13.560   3241.87     0.5825     0.0144     0.3899     0.1356     0.7435     2.4548   216.9600     0.5265     0.4706
  680   13.580   3242.83     0.5682     0.0147     0.3986     0.1358     0.7347     2.5839   217.2800     0.5174     0.5036
  681   13.600   3243.81     0.5587     0.0144     0.4014     0.1360     0.7274     2.5775   217.6000     0.5098     0.5214
  682   13.620   3244.84     0.5496     0.0142     0.4007     0.1362     0.7191     2.5618   217.9200     0.5011     0.5332
  683   13.640   3245.82     0.5403     0.0135     0.4102     0.1364     0.7122     2.4874   218.2400     0.4940     0.5527
  684   13.660   3246.83     0.5384     0.0132     0.4185     0.1366     0.7126     2.4574   218.5600     0.4940     0.5632
  685   13.680   3247.80     0.5438     0.0125     0.4254     0.1368     0.7215     2.3085   218.8800     0.5027     0.5696
  686   13.700   3248.78     0.5459     0.0129     0.4286     0.1370     0.7258     2.3640   219.2000     0.5066     0.5752
  687   13.720   3249.77     0.5446     0.0131     0.4335     0.1372     0.7258     2.4012   219.5200     0.5063     0.5811
  688   13.740   3250.80     0.5448     0.0130     0.4353     0.1374     0.7277     2.3880   219.8400     0.5079     0.5868
  689   13.760   3251.82     0.5448     0.0121     0.4373     0.1376     0.7278     2.2165   220.1600     0.5076     0.5871
  690   13.780   3252.82     0.5512     0.0125     0.4418     0.1378     0.7358     2.2764   220.4800     0.5153     0.5858
  691   13.800   3253.81     0.5676     0.0127     0.4518     0.1380     0.7556     2.2436   220.8000     0.5348     0.5792
  692   13.820   3254.82     0.5956     0.0127     0.4616     0.1382     0.7880     2.1555   221.1200     0.5669     0.5642
  693   13.840   3255.79     0.6368     0.0140     0.4624     0.1384     0.8311     2.2126   221.4400     0.6097     0.5320
  694   13.860   3256.84     0.6700     0.0143     0.4315     0.1386     0.8554     2.1479   221.7600     0.6337     0.4781
  695   13.880   3257.85     0.6748     0.0154     0.4321     0.1388     0.8555     2.3000   222.0800     0.6334     0.4599
  696   13.900   3258.83     0.6679     0.0164     0.4281     0.1390     0.8486     2.4529   222.4000     0.6262     0.4654
  697   13.920   3259.78     0.6760     0.0170     0.4154     0.1392     0.8525     2.5392   222.7200     0.6298     0.4463
  698   13.940   3260.79     0.6717     0.0172     0.4203     0.1394     0.8470     2.5533   223.0400     0.6239     0.4456
  699   13.960   3261.81     0.6828     0.0174     0.4344     0.1396     0.8617     2.5754   223.3600     0.6383     0.4484
  700   13.980   3273.77     0.6868     0.0178     0.4308     0.1398     0.8684     2.6078   223.6800     0.6448     0.4542
  701   14.000   3292.97     0.6923     0.0179     0.4257     0.1400     0.8718     2.6254   224.0000     0.6478     0.4438
  702   14.020   3312.16     0.6979     0.0184     0.4217     0.1402     0.8752     2.6595   224.3200     0.6509     0.4334
  703   14.040   3315.57     0.6951     0.0192     0.4243     0.1404     0.8740     2.7574   224.6400     0.6493     0.4396
  704   14.060   3316.55     0.6994     0.0190     0.4065     0.1406     0.8734     2.7176   224.9600     0.6485     0.4223
  705   14.080   3317.54     0.6968     0.0187     0.4166     0.1408     0.8682     2.6790   225.2800     0.6430     0.4158
  706   14.100   3318.58     0.6944     0.0186     0.4208     0.1410     0.8709     2.6705   225.6000     0.6453     0.4329
  707   14.120   3319.59     0.7089     0.0184     0.4250     0.1412     0.8877     2.6124   225.9200     0.6618     0.4298
  708   14.140   3320.56     0.7259     0.0189     0.4275     0.1414     0.9048     2.6132   226.2400     0.6785     0.4192
  709   14.160   3321.56     0.7494     0.0198     0.4167     0.1416     0.9256     2.6531   226.5600     0.6990     0.3976
  710   14.180   3322.49     0.7617     0.0206     0.4135     0.1418     0.9363     2.7029   226.8800     0.7095     0.3864
  711   14.200   3323.48     0.7693     0.0218     0.4039     0.1420     0.9388     2.8285   227.2000     0.7116     0.3677
  712   14.220   3324.54     0.7905     0.0224     0.3888     0.1422     0.9563     2.8580   227.5200     0.7288     0.3468
  713   14.240   3325.57     0.7993     0.0226     0.3716     0.1424     0.9561     2.8249   227.8400     0.7282     0.3172
  714   14.260   3326.58     0.7898     0.0226     0.3696     0.1426     0.9442     2.8641   228.1600     0.7161     0.3144
  715   14.280   3327.59     0.7803     0.0220     0.3743     0.1428     0.9368     2.8172   228.4800     0.7083     0.3245
  716   14.300   3328.62     0.7851     0.0216     0.3800     0.1430     0.9435     2.7643   228.8000     0.7147     0.3277
  717   14.320   3329.56     0.7942     0.0214     0.3801     0.1432     0.9536     2.7000   229.1200     0.7245     0.3262
  718   14.340   3330.53     0.8044     0.0220     0.3898     0.1434     0.9682     2.7409   229.4400     0.7387     0.3337
  719   14.360   3331.52     0.8295     0.0235     0.3745     0.1436     0.9896     2.8379   229.7600     0.7598     0.3126
  720   14.380   3332.61     0.8515     0.0258     0.3772     0.1438     1.0104     3.0443   230.0800     0.7803     0.3005
  721   14.400   3333.63     0.8804     0.0285     0.3708     0.1440     1.0365     3.2502   230.4000     0.8061     0.2824
  722   14.420   3334.60     0.9159     0.0293     0.3527     0.1442     1.0671     3.2112   230.7200     0.8364     0.2582
  723   14.440   3335.57     0.9409     0.0297     0.3324     0.1444     1.0835     3.1695   231.0400     0.8524     0.2289
  724   14.460   3336.55     0.9281     0.0306     0.3267     0.1446     1.0651     3.2952   231.3600     0.8338     0.2180
  725   14.480   3337.62     0.9006     0.0314     0.3350     0.1448     1.0397     3.4651   231.6800     0.8080     0.2308
  726   14.500   3338.62     0.8754     0.0305     0.3477     0.1450     1.0199     3.4807   232.0000     0.7879     0.2526
  727   14.520   3339.62     0.8907     0.0299     0.3524     0.1452     1.0377     3.3635   232.3200     0.8054     0.2543
  728   14.540   3340.56     0.9087     0.0290     0.3556     0.1454     1.0578     3.2013   232.6400     0.8251     0.2540
  729   14.560   3341.53     0.9065     0.0305     0.3527     0.1456     1.0554     3.3689   232.9600     0.8224     0.2540
  730   14.580   3342.55     0.9134     0.0314     0.3531     0.1458     1.0611     3.4393   233.2800     0.8278     0.2486
  731   14.600   3343.58     0.9257     0.0301     0.3489     0.1460     1.0729     3.2623   233.6000     0.8393     0.2437
  732   14.620   3344.60     0.9241     0.0292     0.3512     0.1462     1.0714     3.1489   233.9200     0.8375     0.2444
  733   14.640   3345.58     0.9374     0.0295     0.3642     0.1464     1.0882     3.1606   234.2400     0.8540     0.2492
  734   14.660   3346.57     0.9723     0.0303     0.3747     0.1466     1.1280     3.1157   234.5600     0.8934     0.2507
  735   14.680   3347.58     1.0369     0.0320     0.3843     0.1468     1.1977     3.0873   234.8800     0.9628     0.2451
  736   14.700   3348.54     1.1238     0.0332     0.3699     0.1470     1.2829     2.9658   235.2000     1.0477     0.2214
  737   14.720   3349.54     1.1512     0.0341     0.3367     0.1472     1.2987     2.9580   235.5200     1.0632     0.1918
  738   14.740   3350.61     1.1402     0.0349     0.3238     0.1474     1.2764     3.0594   235.8400     1.0406     0.1701
  739   14.760   3351.65     1.1129     0.0350     0.3281     0.1476     1.2500     3.1387   236.1600     1.0138     0.1763
  740   14.780   3352.64     1.0736     0.0331     0.3317     0.1478     1.2118     3.0785   236.4800     0.9753     0.1857
  741   14.800   3353.63     1.0714     0.0322     0.3384     0.1480     1.2145     3.0060   236.8000     0.9777     0.1971
  742   14.820   3354.59     1.0824     0.0315     0.3470     0.1482     1.2268     2.9135   237.1200     0.9897     0.1975
  743   14.840   3355.62     1.0763     0.0314     0.3486     0.1484     1.2218     2.9125   237.4400     0.9844     0.2011
  744   14.860   3356.68     1.0890     0.0343     0.3623     0.1486     1.2393     3.1558   237.7600     1.0016     0.2089
  745   14.880   3357.71     1.0825     0.0370     0.3422     0.1488     1.2309     3.4098   238.0800     0.9928     0.2059
  746   14.900   3358.72     1.0417     0.0369     0.3458     0.1490     1.1878     3.5207   238.4000     0.9494     0.2093
  747   14.920   3359.63     0.9994     0.0357     0.3269     0.1492     1.1381     3.5586   238.7200     0.8994     0.2013
  748   14.940   3360.63     0.9547     0.0338     0.3323     0.1494     1.0934     3.5262   239.0400     0.8544     0.2119
  749   14.960   3361.65     0.9259     0.0331     0.3438     0.1496     1.0684     3.5482   239.3600     0.8290     0.2287
  750   14.980   3362.70     0.8931     0.0332     0.3724     0.1498     1.0452     3.7060   239.6800     0.8055     0.2635
  751   15.000   3363.67     0.9357     0.0329     0.3975     0.1500     1.0992     3.5363   240.0000     0.8592     0.2784
  752   15.020   3364.65     1.0485     0.0320     0.4174     0.1502     1.2218     3.0986   240.3200     0.9815     0.2675
  753   15.040   3365.62     1.1593     0.0340     0.4286     0.1504     1.3386     2.9357   240.6400     1.0980     0.2520
  754   15.060   3366.62     1.2449     0.0369     0.4247     0.1506     1.4242     2.9630   240.9600     1.1832     0.2335
  755   15.080   3367.67     1.3429     0.0407     0.4205     0.1508     1.5164     3.0497   241.2800     1.2751     0.2057
  756   15.100   3368.68     1.4123     0.0458     0.4292     0.1510     1.5903     3.2483   241.6000     1.3487     0.2024
  757   15.120   3369.67     1.4705     0.0469     0.4237     0.1512     1.6496     3.2018   241.9200     1.4077     0.1955
  758   15.140   3370.65     1.4737     0.0469     0.4157     0.1514     1.6473     3.1808   242.2400     1.4051     0.1865
  759   15.160   3371.71     1.4585     0.0468     0.4079     0.1516     1.6321     3.2077   242.5600     1.3895     0.1883
  760   15.180   3372.70     1.4493     0.0494     0.4182     0.1518     1.6204     3.4113   242.8800     1.3775     0.1855
  761   15.200   3373.71     1.4881     0.0505     0.4401     0.1520     1.6722     3.3928   243.2000     1.4290     0.2004
  762   15.220   3374.75     1.5869     0.0447     0.4509     0.1522     1.7744     2.9384   243.5200     1.5308     0.1922
  763   15.240   3375.72     1.6105     0.0387     0.4605     0.1524     1.8057     2.4750   243.8400     1.5619     0.2000
  764   15.260   3376.80     1.6350     0.0344     0.4494     0.1526     1.8208     2.1227   244.1600     1.5767     0.1838
  765   15.280   3377.82     1.6633     0.0402     0.4750     0.1528     1.8601     2.4336   244.4800     1.6156     0.1954
  766   15.300   3378.83     1.8584     0.0518     0.4824     0.1530     2.0600     2.9218   244.8000     1.8152     0.1802
  767   15.320   3381.88     1.9552     0.0523     0.3942     0.1532     2.1345     2.6984   245.1200     1.8894     0.1445
  768   15.340   3386.39     1.9865     0.0541     0.2995     0.1534     2.1260     2.7915   245.4400     1.8806     0.0946
  769   15.360   3390.90     2.0177     0.0527     0.2232     0.1536     2.1175     2.6627   245.7600     1.8717     0.0447
  770   15.380   3392.59     1.8322     0.0510     0.2482     0.1538     1.9335     2.7573   246.0800     1.6874     0.0520
  771   15.400   3393.62     1.6722     0.0508     0.2770     0.1540     1.7822     3.0193   246.4000     1.5358     0.0704
  772   15.420   3394.63     1.6018     0.0506     0.3049     0.1542     1.7272     3.1533   246.7200     1.4804     0.0974
  773   15.440   3395.61     1.5772     0.0466     0.3301     0.1544     1.7126     2.9498   247.0400     1.4656     0.1147
  774   15.460   3396.63     1.5653     0.0430     0.3251     0.1546     1.7037     2.7663   247.3600     1.4563     0.1201
  775   15.480   3397.61     1.7537     0.0393     0.3070     0.1548     1.8845     2.2724   247.6800     1.6368     0.0960
  776   15.500   3398.63     1.9891     0.0356     0.2817     0.1550     2.1131     1.7991   248.0000     1.8651     0.0753
  777   15.520   3399.66     2.0349     0.0317     0.2756     0.1552     2.1502     1.5557   248.3200     1.9019     0.0628
  778   15.540   3400.65     1.9335     0.0265     0.2825     0.1554     2.0497     1.3668   248.6400     1.8010     0.0674
  779   15.560   3401.64     1.7542     0.0235     0.2934     0.1556     1.8753     1.3358   248.9600     1.6263     0.0816
  780   15.580   3402.67     1.6674     0.0270     0.3082     0.1558     1.7947     1.6167   249.2800     1.5454     0.0953
  781   15.600   3403.66     1.7902     0.0284     0.3090     0.1560     1.9191     1.5870   249.6000     1.6695     0.0905
  782   15.620   3404.74     1.9025     0.0272     0.3037     0.1562     2.0337     1.4294   249.9200     1.7838     0.0876
  783   15.640   3405.71     1.9168     0.0303     0.3240     0.1564     2.0494     1.5799   250.2400     1.7992     0.0886
  784   15.660   3406.75     1.8493     0.0284     0.3548     0.1566     1.9948     1.5394   250.5600     1.7442     0.1088
  785   15.680   3407.71     1.7881     0.0318     0.3617     0.1568     1.9408     1.7757   250.8800     1.6899     0.1222
  786   15.700   3408.74     1.9441     0.0305     0.3572     0.1570     2.0973     1.5647   251.2000     1.8461     0.1125
  787   15.720   3409.82     2.1382     0.0297     0.3283     0.1572     2.2823     1.3911   251.5200     2.0307     0.0916
  788   15.740   3410.85     2.2697     0.0308     0.2845     0.1574     2.3982     1.3569   251.8400     2.1464     0.0693
  789   15.760   3411.87     2.2057     0.0292     0.2942     0.1576     2.3277     1.3252   252.1600     2.0756     0.0641
  790   15.780   3412.89     2.0762     0.0250     0.3037     0.1578     2.2020     1.2040   252.4800     1.9496     0.0728
  791   15.800   3413.88     1.8512     0.0267     0.3197     0.1580     1.9841     1.4649   252.8000     1.7313     0.0918
  792   15.820   3414.91     1.5410     0.0302     0.3386     0.1582     1.6800     1.9675   253.1200     1.4269     0.1214
  793   15.840   3415.95     1.5365     0.0351     0.3758     0.1584     1.6888     2.2823   253.4400     1.4354     0.1422
  794   15.860   3417.00     1.8934     0.0351     0.3558     0.1586     2.0482     1.8799   253.7600     1.7944     0.1176
  795   15.880   3418.02     2.1983     0.0317     0.3034     0.1588     2.3322     1.4448   254.0800     2.0781     0.0771
  796   15.900   3419.06     2.1071     0.0340     0.3043     0.1590     2.2347     1.6508   254.4000     1.9803     0.0731
  797   15.920   3420.03     1.8891     0.0384     0.2985     0.1592     2.0157     2.0231   254.7200     1.7609     0.0807
  798   15.940   3421.03     1.7102     0.0406     0.2956     0.1594     1.8350     2.3192   255.0400     1.5799     0.0872
  799   15.960   3422.06     1.5249     0.0376     0.3066     0.1596     1.6511     2.3772   255.3600     1.3958     0.1011
  800   15.980   3423.06     1.3402     0.0305     0.3254     0.1598     1.4740     2.1900   255.6800     1.2183     0.1306
  801   16.000   3429.76     1.2680     0.0312     0.3506     0.1600     1.4115     2.9723   256.0000     1.1555     0.1569
  802   16.020   3446.50     1.3964     0.0285     0.3767     0.1602     1.5508     2.7180   256.3200     1.2945     0.1599
  803   16.040   3461.36     1.5375     0.0277     0.3963     0.1604     1.7022     1.8108   256.6400     1.4456     0.1605
  804   16.060   3462.36     1.8140     0.0287     0.3713     0.1606     1.9804     1.5891   256.9600     1.7234     0.1371
  805   16.080   3463.39     1.9912     0.0326     0.3700     0.1608     2.1423     1.6339   257.2800     1.8850     0.1056
  806   16.100   3464.41     1.9406     0.0379     0.3654     0.1610     2.0952     1.9486   257.6000     1.8376     0.1127
  807   16.120   3465.43     1.8728     0.0427     0.3772     0.1612     2.0281     2.2801   257.9200     1.7702     0.1178
  808   16.140   3466.45     2.0288     0.0433     0.3211     0.1614     2.1707     2.1377   258.2400     1.9124     0.0923
  809   16.160   3467.48     2.0853     0.0411     0.2917     0.1616     2.2149     1.9728   258.5600     1.9563     0.0750
  810   16.180   3468.43     2.0746     0.0379     0.2782     0.1618     2.1902     1.8280   258.8800     1.9313     0.0588
  811   16.200   3469.48     1.9879     0.0348     0.2779     0.1620     2.1054     1.7489   259.2000     1.8462     0.0638
  812   16.220   3470.49     1.8731     0.0366     0.2645     0.1622     1.9860     1.9520   259.5200     1.7265     0.0618
  813   16.240   3471.53     1.8226     0.0357     0.2733     0.1624     1.9350     1.9592   259.8400     1.6751     0.0628
  814   16.260   3472.59     1.6687     0.0319     0.2881     0.1626     1.7882     1.8936   260.1600     1.5280     0.0798
  815   16.280   3473.57     1.5956     0.0276     0.3031     0.1628     1.7204     1.7252   260.4800     1.4599     0.0920
  816   16.300   3474.59     1.6537     0.0246     0.3071     0.1630     1.7817     1.4869   260.8000     1.5209     0.0932
  817   16.320   3475.62     1.5832     0.0216     0.3220     0.1632     1.7160     1.3557   261.1200     1.4549     0.1052
  818   16.340   3476.63     1.3998     0.0214     0.3378     0.1634     1.5389     1.5102   261.4400     1.2775     0.1315
  819   16.360   3477.61     1.3140     0.0205     0.3536     0.1636     1.4612     1.5528   261.7600     1.1995     0.1559
  820   16.380   3478.59     1.3182     0.0182     0.3582     0.1638     1.4673     1.3818   262.0800     1.2052     0.1587
  821   16.400   3479.62     1.3250     0.0189     0.3736     0.1640     1.4786     1.4303   262.4000     1.2162     0.1657
  822   16.420   3480.63     1.4012     0.0224     0.3998     0.1642     1.5662     1.6215   262.7200     1.3035     0.1755
  823   16.440   3481.61     1.7367     0.0272     0.3978     0.1644     1.9069     1.6099   263.0400     1.6438     0.1468
  824   16.460   3482.62     2.0563     0.0263     0.3403     0.1646     2.2081     1.2909   263.3600     1.9447     0.1015
  825   16.480   3483.61     2.1268     0.0277     0.3193     0.1648     2.2604     1.3007   263.6800     1.9968     0.0768
  826   16.500   3484.62     1.9344     0.0290     0.3362     0.1650     2.0722     1.4945   264.0000     1.8082     0.0903
  827   16.520   3485.62     1.6202     0.0284     0.3734     0.1652     1.7718     1.7181   264.3200     1.5075     0.1304
  828   16.540   3486.62     1.3213     0.0250     0.4019     0.1654     1.4849     1.8683   264.6400     1.2202     0.1839
  829   16.560   3487.65     1.2153     0.0233     0.4350     0.1656     1.3935     1.9151   264.9600     1.1285     0.2291
  830   16.580   3488.67     1.1796     0.0247     0.4632     0.1658     1.3708     2.0940   265.2800     1.1055     0.2617
  831   16.600   3489.65     1.3134     0.0319     0.4967     0.1660     1.5170     2.4554   265.6000     1.2514     0.2550
  832   16.620   3490.65     1.8251     0.0353     0.4860     0.1662     2.0362     1.9795   265.9200     1.7702     0.1907
  833   16.640   3491.66     2.2073     0.0357     0.4226     0.1664     2.3918     1.6204   266.2400     2.1256     0.1285
  834   16.660   3492.68     1.9993     0.0368     0.4416     0.1666     2.1785     1.8347   266.5600     1.9119     0.1361
  835   16.680   3493.71     1.5902     0.0398     0.4852     0.1668     1.7859     2.5190   266.8800     1.5190     0.1972
  836   16.700   3494.70     1.2682     0.0378     0.5345     0.1670     1.4845     2.9694   267.2000     1.2173     0.2859
  837   16.720   3495.72     1.1629     0.0314     0.5818     0.1672     1.4039     2.6894   267.5200     1.1364     0.3579
  838   16.740   3496.70     1.1523     0.0232     0.6057     0.1674     1.4030     2.0098   267.8400     1.1352     0.3783
  839   16.760   3497.76     1.1269     0.0218     0.6294     0.1676     1.3877     1.9349   268.1600     1.1195     0.4050
  840   16.780   3498.80     1.1186     0.0218     0.6517     0.1678     1.3895     1.9459   268.4800     1.1210     0.4258
  841   16.800   3499.81     1.1235     0.0223     0.6698     0.1680     1.4030     1.9840   268.8000     1.1342     0.4387
  842   16.820   3500.80     1.1301     0.0213     0.6825     0.1682     1.4152     1.8882   269.1200     1.1461     0.4457
  843   16.840   3501.81     1.1470     0.0187     0.7015     0.1684     1.4390     1.6348   269.4400     1.1695     0.4504
  844   16.860   3502.79     1.1535     0.0161     0.7127     0.1686     1.4502     1.3940   269.7600     1.1805     0.4557
  845   16.880   3503.84     1.1650     0.0171     0.7271     0.1688     1.4685     1.4766   270.0800     1.1984     0.4622
  846   16.900   3504.84     1.2364     0.0206     0.7258     0.1690     1.5420     1.6711   270.4000     1.2716     0.4394
  847   16.920   3505.82     1.3973     0.0240     0.7084     0.1692     1.6976     1.7480   270.7200     1.4269     0.3834
  848   16.940   3506.84     1.7755     0.0259     0.6395     0.1694     2.0571     1.4642   271.0400     1.7861     0.2814
  849   16.960   3507.83     2.1477     0.0297     0.5225     0.1696     2.3840     1.3838   271.3600     2.1127     0.1863
  850   16.980   3508.88     2.3017     0.0303     0.4982     0.1698     2.5111     1.3168   271.6800     2.2395     0.1469
  851   17.000   3509.86     2.3110     0.0323     0.4987     0.1700     2.5206     1.3956   272.0000     2.2486     0.1462
  852   17.020   3510.85     2.3352     0.0464     0.5078     0.1702     2.5486     1.9881   272.3200     2.2762     0.1485
  853   17.040   3511.86     2.4949     0.0532     0.5057     0.1704     2.7094     2.1319   272.6400     2.4368     0.1397
  854   17.060   3512.90     2.4010     0.0521     0.5129     0.1706     2.6146     2.1769   272.9600     2.3416     0.1444
  855   17.080   3513.92     2.1915     0.0510     0.5219     0.1708     2.4088     2.3155   273.2800     2.1355     0.1625
  856   17.100   3514.91     1.8093     0.0489     0.5891     0.1710     2.0423     2.7219   273.6000     1.7687     0.2182
  857   17.120   3515.90     1.4638     0.0457     0.6455     0.1712     1.7267     3.1312   273.9200     1.4528     0.3136
  858   17.140   3516.93     1.3279     0.0406     0.6533     0.1714     1.6024     3.0533   274.2400     1.3281     0.3629
  859   17.160   3517.97     1.3076     0.0293     0.7021     0.1716     1.5957     2.2400   274.5600     1.3212     0.3894
  860   17.180   3519.02     1.2893     0.0218     0.7320     0.1718     1.5933     1.6910   274.8800     1.3184     0.4188
  861   17.200   3520.02     1.2780     0.0225     0.7607     0.1720     1.5934     1.7569   275.2000     1.3182     0.4391
  862   17.220   3521.03     1.2835     0.0237     0.7766     0.1722     1.6073     1.8451   275.5200     1.3317     0.4495
  863   17.240   3522.04     1.2820     0.0247     0.7998     0.1724     1.6148     1.9278   275.8400     1.3389     0.4630
  864   17.260   3523.04     1.3043     0.0255     0.7965     0.1726     1.6417     1.9578   276.1600     1.3656     0.4620
  865   17.280   3524.10     1.3082     0.0256     0.7578     0.1728     1.6296     1.9573   276.4800     1.3532     0.4379
  866   17.300   3525.10     1.2945     0.0254     0.7630     0.1730     1.6151     1.9585   276.8000     1.3383     0.4411
  867   17.320   3526.14     1.2988     0.0247     0.7642     0.1732     1.6185     1.9043   277.1200     1.3414     0.4384
  868   17.340   3527.16     1.3072     0.0251     0.7718     0.1734     1.6298     1.9196   277.4400     1.3524     0.4397
  869   17.360   3528.15     1.2960     0.0261     0.7750     0.1736     1.6200     2.0111   277.7600     1.3423     0.4454
  870   17.380   3529.18     1.2973     0.0248     0.7929     0.1738     1.6286     1.9124   278.0800     1.3505     0.4553
  871   17.400   3530.17     1.3345     0.0241     0.7963     0.1740     1.6699     1.8150   278.4000     1.3915     0.4487
  872   17.420   3531.16     1.3708     0.0253     0.7857     0.1742     1.7030     1.8542   278.7200     1.4242     0.4330
  873   17.440   3532.19     1.3990     0.0262     0.7787     0.1744     1.7256     1.8710   279.0400     1.4466     0.4171
  874   17.460   3533.14     1.3707     0.0265     0.7919     0.1746     1.7010     1.9262   279.3600     1.4216     0.4304
  875   17.480   3534.14     1.4013     0.0282     0.7721     0.1748     1.7298     2.0219   279.6800     1.4501     0.4189
  876   17.500   3535.15     1.4466     0.0291     0.7519     0.1750     1.7622     2.0154   280.0000     1.4822     0.3889
  877   17.520   3536.20     1.4513     0.0278     0.7447     0.1752     1.7653     1.9138   280.3200     1.4849     0.3854
  878   17.540   3537.20     1.4237     0.0255     0.7520     0.1754     1.7391     1.7918   280.6400     1.4584     0.3945
  879   17.560   3538.18     1.3846     0.0239     0.7603     0.1756     1.7026     1.7279   280.9600     1.4216     0.4090
  880   17.580   3539.23     1.3365     0.0236     0.7741     0.1758     1.6579     1.7626   281.2800     1.3766     0.4282
  881   17.600   3540.22     1.3487     0.0264     0.8054     0.1760     1.6820     1.9618   281.6000     1.4004     0.4410
  882   17.620   3541.25     1.4018     0.0260     0.7684     0.1762     1.7419     1.8596   281.9200     1.4600     0.4339
  883   17.640   3542.26     1.4775     0.0261     0.6792     0.1764     1.7732     1.7652   282.2400     1.4909     0.3539
  884   17.660   3543.26     1.4102     0.0270     0.6695     0.1766     1.6869     1.9157   282.5600     1.4044     0.3435
  885   17.680   3544.27     1.3939     0.0284     0.6958     0.1768     1.6832     2.0387   282.8800     1.4003     0.3657
  886   17.700   3545.26     1.3767     0.0266     0.7129     0.1770     1.6726     1.9333   283.2000     1.3894     0.3798
  887   17.720   3546.33     1.3851     0.0256     0.7266     0.1772     1.6899     1.8452   283.5200     1.4064     0.3900
  888   17.740   3547.36     1.3975     0.0239     0.7433     0.1774     1.7075     1.7118   283.8400     1.4236     0.3939
  889   17.760   3548.36     1.4111     0.0236     0.7587     0.1776     1.7285     1.6724   284.1600     1.4443     0.4002
  890   17.780   3549.38     1.3631     0.0240     0.7699     0.1778     1.6834     1.7489   284.4800     1.3990     0.4181
  891   17.800   3550.40     1.3431     0.0257     0.7820     0.1780     1.6698     1.8904   284.8000     1.3850     0.4332
  892   17.820   3551.43     1.3219     0.0273     0.7787     0.1782     1.6531     2.0320   285.1200     1.3680     0.4462
  893   17.840   3552.43     1.3369     0.0290     0.6970     0.1784     1.6432     2.1684   285.4400     1.3577     0.4056
  894   17.860   3553.43     1.3004     0.0301     0.7066     0.1786     1.5983     2.3046   285.7600     1.3126     0.4043
  895   17.880   3554.47     1.2804     0.0308     0.6986     0.1788     1.5768     2.4036   286.0800     1.2908     0.4083
  896   17.900   3566.62     1.3300     0.0325     0.6558     0.1790     1.6117     2.5415   286.4000     1.3253     0.3734
  897   17.920   3582.30     1.3988     0.0319     0.6129     0.1792     1.6625     2.4966   286.7200     1.3758     0.3287
  898   17.940   3596.80     1.4606     0.0356     0.5979     0.1794     1.7085     2.4537   287.0400     1.4214     0.2890
  899   17.960   3597.85     1.4945     0.0427     0.5989     0.1796     1.7490     2.9005   287.3600     1.4616     0.2920
  900   17.980   3598.83     1.6910     0.0415     0.5856     0.1798     1.9423     2.4915   287.6800     1.6547     0.2532
  901   18.000   3599.78     1.9293     0.0387     0.5344     0.1800     2.1560     2.0178   288.0000     1.8680     0.1926
  902   18.020   3600.79     1.9282     0.0351     0.5162     0.1802     2.1477     1.8189   288.3200     1.8594     0.1842
  903   18.040   3601.79     1.6414     0.0324     0.5639     0.1804     1.8693     1.9433   288.6400     1.5806     0.2294
  904   18.060   3602.84     1.4323     0.0306     0.5934     0.1806     1.6770     2.1293   288.9600     1.3880     0.2898
  905   18.080   3603.82     1.3505     0.0283     0.6330     0.1808     1.6120     2.0995   289.2800     1.3227     0.3339
  906   18.100   3604.87     1.3203     0.0246     0.6589     0.1810     1.5934     1.8641   289.6000     1.3038     0.3599
  907   18.120   3605.83     1.3148     0.0236     0.6905     0.1812     1.5998     1.7944   289.9200     1.3099     0.3798
  908   18.140   3606.86     1.2969     0.0232     0.7160     0.1814     1.5946     1.7895   290.2400     1.3043     0.4043
  909   18.160   3607.86     1.3123     0.0248     0.7379     0.1816     1.6198     1.8887   290.5600     1.3292     0.4141
  910   18.180   3608.93     1.3465     0.0254     0.7513     0.1818     1.6600     1.8880   290.8800     1.3691     0.4123
  911   18.200   3609.97     1.3796     0.0259     0.7657     0.1820     1.6989     1.8746   291.2000     1.4077     0.4107
  912   18.220   3610.98     1.4019     0.0253     0.7618     0.1822     1.7218     1.8112   291.5200     1.4303     0.4051
  913   18.240   3611.95     1.4157     0.0261     0.7770     0.1824     1.7404     1.8472   291.8400     1.4485     0.4078
  914   18.260   3612.96     1.4022     0.0274     0.7867     0.1826     1.7298     1.9516   292.1600     1.4377     0.4156
  915   18.280   3614.02     1.3554     0.0276     0.8015     0.1828     1.6895     2.0298   292.4800     1.3970     0.4385
  916   18.300   3615.05     1.3490     0.0281     0.8250     0.1830     1.6928     2.0863   292.8000     1.4000     0.4539
  917   18.320   3616.02     1.3834     0.0277     0.8369     0.1832     1.7331     2.0104   293.1200     1.4400     0.4510
  918   18.340   3617.01     1.4282     0.0273     0.8443     0.1834     1.7828     1.9147   293.4400     1.4893     0.4438
  919   18.360   3618.02     1.4442     0.0274     0.8442     0.1836     1.7975     1.8967   293.7600     1.5038     0.4373
  920   18.380   3619.07     1.4533     0.0277     0.8484     0.1838     1.8092     1.9060   294.0800     1.5151     0.4380
  921   18.400   3620.09     1.4439     0.0274     0.8499     0.1840     1.8006     1.8941   294.4000     1.5062     0.4417
  922   18.420   3621.08     1.4374     0.0278     0.8488     0.1842     1.7940     1.9328   294.7200     1.4993     0.4434
  923   18.440   3622.03     1.4193     0.0285     0.8641     0.1844     1.7797     2.0093   295.0400     1.4847     0.4537
  924   18.460   3623.06     1.4015     0.0288     0.8772     0.1846     1.7698     2.0556   295.3600     1.4745     0.4696
  925   18.480   3624.09     1.4237     0.0295     0.8775     0.1848     1.7913     2.0702   295.6800     1.4956     0.4617
  926   18.500   3625.11     1.4361     0.0290     0.8869     0.1850     1.8070     2.0222   296.0000     1.5110     0.4620
  927   18.520   3626.12     1.4444     0.0286     0.8918     0.1852     1.8179     1.9794   296.3200     1.5216     0.4628
  928   18.540   3627.08     1.4490     0.0286     0.9021     0.1854     1.8270     1.9741   296.6400     1.5304     0.4669
  929   18.560   3628.09     1.4778     0.0290     0.9071     0.1856     1.8577     1.9583   296.9600     1.5607     0.4606
  930   18.580   3629.14     1.5071     0.0281     0.9101     0.1858     1.8891     1.8658   297.2800     1.5918     0.4546
  931   18.600   3630.13     1.5054     0.0292     0.8969     0.1860     1.8859     1.9390   297.6000     1.5883     0.4532
  932   18.620   3631.14     1.5015     0.0287     0.8808     0.1862     1.8718     1.9129   297.9200     1.5739     0.4419
  933   18.640   3632.12     1.4778     0.0296     0.8966     0.1864     1.8515     2.0025   298.2400     1.5532     0.4528
  934   18.660   3633.18     1.4789     0.0298     0.9081     0.1866     1.8602     2.0130   298.5600     1.5617     0.4619
  935   18.680   3634.23     1.4933     0.0303     0.9011     0.1868     1.8726     2.0292   298.8800     1.5737     0.4551
  936   18.700   3635.27     1.4749     0.0310     0.9057     0.1870     1.8535     2.1037   299.2000     1.5543     0.4597
  937   18.720   3636.23     1.4887     0.0320     0.9138     0.1872     1.8724     2.1486   299.5200     1.5729     0.4618
  938   18.740   3637.27     1.4763     0.0317     0.9175     0.1874     1.8602     2.1395   299.8400     1.5603     0.4657
  939   18.760   3638.27     1.4514     0.0310     0.9292     0.1876     1.8400     2.1366   300.1600     1.5399     0.4791
  940   18.780   3639.35     1.4371     0.0308     0.9501     0.1878     1.8334     2.1374   300.4800     1.5329     0.4930
  941   18.800   3640.35     1.4165     0.0309     0.9663     0.1880     1.8207     2.1796   300.8000     1.5199     0.5095
  942   18.820   3641.30     1.4273     0.0309     0.9744     0.1882     1.8361     2.1625   301.1200     1.5350     0.5115
  943   18.840   3642.33     1.4459     0.0307     0.9717     0.1884     1.8544     2.1241   301.4400     1.5530     0.5050
  944   18.860   3643.34     1.4425     0.0306     0.9656     0.1886     1.8481     2.1247   301.7600     1.5463     0.5025
  945   18.880   3644.41     1.4396     0.0301     0.9684     0.1888     1.8435     2.0876   302.0800     1.5414     0.5014
  946   18.900   3645.42     1.4313     0.0304     0.9826     0.1890     1.8424     2.1245   302.4000     1.5400     0.5129
  947   18.920   3646.43     1.4244     0.0307     0.9931     0.1892     1.8392     2.1547   302.7200     1.5365     0.5197
  948   18.940   3647.39     1.4261     0.0296     0.9983     0.1894     1.8454     2.0792   303.0400     1.5423     0.5245
  949   18.960   3648.40     1.4732     0.0295     0.9789     0.1896     1.8870     2.0024   303.3600     1.5837     0.5025
  950   18.980   3649.48     1.4761     0.0282     0.9494     0.1898     1.8785     1.9071   303.6800     1.5748     0.4879
  951   19.000   3650.51     1.4570     0.0291     0.9456     0.1900     1.8548     1.9951   304.0000     1.5508     0.4883
  952   19.020   3651.49     1.4321     0.0292     0.9407     0.1902     1.8275     2.0349   304.3200     1.5232     0.4931
  953   19.040   3652.51     1.4147     0.0283     0.9460     0.1904     1.8115     1.9997   304.6400     1.5069     0.5006
  954   19.060   3653.50     1.3966     0.0288     0.9453     0.1906     1.7933     2.0651   304.9600     1.4884     0.5066
  955   19.080   3654.58     1.3849     0.0287     0.9557     0.1908     1.7850     2.0694   305.2800     1.4797     0.5148
  956   19.100   3655.61     1.3906     0.0286     0.9602     0.1910     1.7943     2.0587   305.6000     1.4887     0.5173
  957   19.120   3656.58     1.3826     0.0281     0.9471     0.1912     1.7819     2.0296   305.9200     1.4760     0.5147
  958   19.140   3657.57     1.3701     0.0286     0.9408     0.1914     1.7663     2.0896   306.2400     1.4600     0.5150
  959   19.160   3658.65     1.3307     0.0274     0.9465     0.1916     1.7261     2.0614   306.5600     1.4196     0.5282
  960   19.180   3659.74     1.3056     0.0270     0.9526     0.1918     1.7059     2.0721   306.8800     1.3990     0.5442
  961   19.200   3660.76     1.3091     0.0267     0.9573     0.1920     1.7111     2.0406   307.2000     1.4039     0.5451
  962   19.220   3661.79     1.3129     0.0268     0.9553     0.1922     1.7151     2.0392   307.5200     1.4076     0.5437
  963   19.240   3662.80     1.3033     0.0258     0.9588     0.1924     1.7042     1.9761   307.8400     1.3963     0.5458
  964   19.260   3663.78     1.2784     0.0264     0.9639     0.1926     1.6817     2.0627   308.1600     1.3736     0.5590
  965   19.280   3664.79     1.2685     0.0280     0.9795     0.1928     1.6771     2.2103   308.4800     1.3686     0.5699
  966   19.300   3665.86     1.2793     0.0279     0.9843     0.1930     1.6950     2.1897   308.8000     1.3862     0.5749
  967   19.320   3666.85     1.3365     0.0285     0.9831     0.1932     1.7505     2.1399   309.1200     1.4413     0.5498
  968   19.340   3667.84     1.4022     0.0292     0.9600     0.1934     1.8074     2.0844   309.4400     1.4980     0.5150
  969   19.360   3668.86     1.4485     0.0294     0.9597     0.1936     1.8493     2.0335   309.7600     1.5395     0.4940
  970   19.380   3669.84     1.4964     0.0301     0.9643     0.1938     1.9022     2.0145   310.0800     1.5921     0.4851
  971   19.400   3670.83     1.5403     0.0295     0.9421     0.1940     1.9384     1.9132   310.4000     1.6280     0.4630
  972   19.420   3671.86     1.5288     0.0292     0.9325     0.1942     1.9217     1.9110   310.7200     1.6110     0.4601
  973   19.440   3672.92     1.5112     0.0288     0.9302     0.1944     1.9007     1.9046   311.0400     1.5897     0.4612
  974   19.460   3673.91     1.5078     0.0296     0.9055     0.1946     1.8908     1.9587   311.3600     1.5794     0.4541
  975   19.480   3674.91     1.4901     0.0289     0.9121     0.1948     1.8729     1.9402   311.6800     1.5612     0.4590
  976   19.500   3675.91     1.4768     0.0290     0.8896     0.1950     1.8545     1.9642   312.0000     1.5425     0.4567
  977   19.520   3676.89     1.4388     0.0288     0.8637     0.1952     1.8051     2.0017   312.3200     1.4927     0.4534
  978   19.540   3677.95     1.4441     0.0296     0.8836     0.1954     1.8081     2.0505   312.6400     1.4955     0.4489
  979   19.560   3679.02     1.4875     0.0303     0.9250     0.1956     1.8727     2.0314   312.9600     1.5597     0.4625
  980   19.580   3680.00     1.5208     0.0310     0.9325     0.1958     1.9122     2.0376   313.2800     1.5989     0.4605
  981   19.600   3680.99     1.5473     0.0305     0.9334     0.1960     1.9398     1.9677   313.6000     1.6262     0.4541
  982   19.620   3681.99     1.5593     0.0310     0.9089     0.1962     1.9450     2.0008   313.9200     1.6311     0.4428
  983   19.640   3683.06     1.5452     0.0324     0.9071     0.1964     1.9257     2.0895   314.2400     1.6115     0.4403
  984   19.660   3684.10     1.5353     0.0343     0.9310     0.1966     1.9224     2.2266   314.5600     1.6078     0.4509
  985   19.680   3685.17     1.5591     0.0371     0.9412     0.1968     1.9540     2.3868   314.8800     1.6391     0.4535
  986   19.700   3686.17     1.5948     0.0408     0.9275     0.1970     1.9874     2.5634   315.2000     1.6722     0.4412
  987   19.720   3687.18     1.6406     0.0403     0.9162     0.1972     2.0272     2.4614   315.5200     1.7117     0.4225
  988   19.740   3688.27     1.6617     0.0378     0.8708     0.1974     2.0496     2.2651   315.8400     1.7338     0.4188
  989   19.760   3733.79     1.8773     0.0380     0.6919     0.1976     2.1938     2.2734   316.1600     1.8776     0.3010
  990   19.780   3760.20     1.9247     0.0361     0.7110     0.1978     2.2145     1.8716   316.4800     1.8980     0.2595
  991   19.800   3761.22     1.7662     0.0353     0.7542     0.1980     2.0773     1.9899   316.8000     1.7605     0.3083
  992   19.820   3762.22     1.6269     0.0341     0.8017     0.1982     1.9553     2.0943   317.1200     1.6382     0.3564
  993   19.840   3763.28     1.6276     0.0321     0.8371     0.1984     1.9741     1.9742   317.4400     1.6567     0.3783
  994   19.860   3764.27     1.6345     0.0308     0.8535     0.1986     1.9910     1.8872   317.7600     1.6733     0.3887
  995   19.880   3765.28     1.6454     0.0312     0.8367     0.1988     2.0034     1.8972   318.0800     1.6853     0.3878
  996   19.900   3766.28     1.6163     0.0333     0.8688     0.1990     1.9748     2.0583   318.4000     1.6564     0.3952
  997   19.920   3767.26     1.5721     0.0332     0.9019     0.1992     1.9431     2.1130   318.7200     1.6244     0.4211
  998   19.940   3768.29     1.5400     0.0319     0.9190     0.1994     1.9242     2.0695   319.0400     1.6051     0.4456
  999   19.960   3769.32     1.5254     0.0307     0.9303     0.1996     1.9147     2.0134   319.3600     1.5953     0.4559
 1000   19.980   3770.32     1.5300     0.0333     0.9511     0.1998     1.9278     2.1803   319.6800     1.6081     0.4647
 1001   20.000   3771.31     1.5710     0.0333     0.9616     0.2000     1.9757     2.1162   320.0000     1.6557     0.4612
 1002   20.020   3772.35     1.6784     0.0335     0.9557     0.2002     2.0808     1.9957   320.3200     1.7605     0.4307
 1003   20.040   3773.37     1.7955     0.0335     0.8925     0.2004     2.1803     1.8649   320.6400     1.8596     0.3848
 1004   20.060   3774.36     1.7689     0.0352     0.8698     0.2006     2.1354     1.9900   320.9600     1.8145     0.3704
 1005   20.080   3775.40     1.7265     0.0356     0.8456     0.2008     2.0844     2.0609   321.2800     1.7631     0.3694
 1006   20.100   3776.41     1.6589     0.0363     0.8725     0.2010     2.0224     2.1859   321.6000     1.7008     0.3907
 1007   20.120   3777.43     1.6342     0.0340     0.8917     0.2012     2.0049     2.0805   321.9200     1.6830     0.4050
 1008   20.140   3778.45     1.6104     0.0318     0.9109     0.2014     1.9913     1.9748   322.2400     1.6691     0.4227
 1009   20.160   3779.48     1.5755     0.0316     0.9431     0.2016     1.9684     2.0027   322.5600     1.6458     0.4458
 1010   20.180   3780.52     1.6078     0.0314     0.9638     0.2018     2.0099     1.9551   322.8800     1.6871     0.4480
 1011   20.200   3781.52     1.6387     0.0306     0.9670     0.2020     2.0451     1.8695   323.2000     1.7219     0.4447
 1012   20.220   3782.53     1.6800     0.0277     0.9618     0.2022     2.0850     1.6489   323.5200     1.7615     0.4326
 1013   20.240   3783.55     1.6453     0.0257     0.9460     0.2024     2.0460     1.5583   323.8400     1.7221     0.4365
 1014   20.260   3784.56     1.5591     0.0274     0.9352     0.2026     1.9500     1.7511   324.1600     1.6259     0.4480
 1015   20.280   3785.57     1.4690     0.0277     0.9570     0.2028     1.8673     1.8838   324.4800     1.5428     0.4833
 1016   20.300   3786.63     1.4095     0.0278     0.9804     0.2030     1.8181     1.9728   324.8000     1.4933     0.5155
 1017   20.320   3787.64     1.5267     0.0286     0.9209     0.2032     1.9316     1.8741   325.1200     1.6065     0.4739
 1018   20.340   3788.64     1.4938     0.0294     0.7930     0.2034     1.8307     1.9710   325.4400     1.5053     0.3972
 1019   20.360   3789.62     1.4776     0.0304     0.8487     0.2036     1.8285     2.0591   325.7600     1.5028     0.4205
 1020   20.380   3790.65     1.5305     0.0299     0.8736     0.2038     1.8938     1.9545   326.0800     1.5677     0.4218
 1021   20.400   3791.67     1.6059     0.0304     0.8961     0.2040     1.9799     1.8991   326.4000     1.6535     0.4152
 1022   20.420   3792.72     1.6290     0.0321     0.9147     0.2042     2.0104     1.9711   326.7200     1.6837     0.4181
 1023   20.440   3793.75     1.6670     0.0325     0.9220     0.2044     2.0529     1.9489   327.0400     1.7259     0.4139
 1024   20.460   3794.73     1.7136     0.0311     0.9164     0.2046     2.1008     1.8175   327.3600     1.7735     0.4045
 1025   20.480   3795.77     1.7821     0.0311     0.8814     0.2048     2.1563     1.7421   327.6800     1.8287     0.3753
 1026   20.500   3796.75     1.7317     0.0313     0.8692     0.2050     2.0974     1.8122   328.0000     1.7694     0.3763
 1027   20.520   3797.78     1.6422     0.0328     0.8806     0.2052     2.0082     2.0028   328.3200     1.6798     0.3966
 1028   20.540   3798.80     1.5695     0.0323     0.9162     0.2054     1.9484     2.0578   328.6400     1.6198     0.4301
 1029   20.560   3799.84     1.5781     0.0337     0.9597     0.2056     1.9749     2.1319   328.9600     1.6459     0.4490
 1030   20.580   3800.87     1.6470     0.0338     0.9817     0.2058     2.0589     2.0466   329.2800     1.7296     0.4482
 1031   20.600   3801.93     1.7610     0.0337     0.9745     0.2060     2.1725     1.9131   329.6000     1.8429     0.4198
 1032   20.620   3802.94     1.7854     0.0347     0.9713     0.2062     2.1921     1.9466   329.9200     1.8622     0.4092
 1033   20.640   3803.96     1.7795     0.0359     0.9465     0.2064     2.1788     2.0176   330.2400     1.8485     0.4026
 1034   20.660   3804.99     1.7263     0.0327     0.9620     0.2066     2.1258     1.8970   330.5600     1.7953     0.4148
 1035   20.680   3806.04     1.7009     0.0322     0.9759     0.2068     2.1082     1.8937   330.8800     1.7773     0.4293
 1036   20.700   3807.08     1.6688     0.0310     0.9903     0.2070     2.0815     1.8566   331.2000     1.7503     0.4431
 1037   20.720   3808.13     1.6635     0.0308     1.0096     0.2072     2.0860     1.8508   331.5200     1.7545     0.4553
 1038   20.740   3809.11     1.6497     0.0324     1.0411     0.2074     2.0817     1.9665   331.8400     1.7498     0.4692
 1039   20.760   3810.13     1.7644     0.0326     1.0358     0.2076     2.2031     1.8484   332.1600     1.8709     0.4474
 1040   20.780   3811.16     1.8170     0.0322     1.0086     0.2078     2.2455     1.7729   332.4800     1.9130     0.4247
 1041   20.800   3812.22     1.7496     0.0322     0.9630     0.2080     2.1521     1.8360   332.8000     1.8193     0.4125
 1042   20.820   3813.20     1.6710     0.0324     0.9885     0.2082     2.0827     1.9388   333.1200     1.7495     0.4412
 1043   20.840   3814.18     1.5985     0.0333     1.0127     0.2084     2.0206     2.0844   333.4400     1.6872     0.4722
 1044   20.860   3815.24     1.5760     0.0324     1.0212     0.2086     2.0042     2.0555   333.7600     1.6705     0.4855
 1045   20.880   3816.22     1.5703     0.0314     1.0356     0.2088     2.0040     1.9978   334.0800     1.6699     0.4933
 1046   20.900   3817.28     1.5859     0.0316     1.0319     0.2090     2.0189     1.9914   334.4000     1.6845     0.4879
 1047   20.920   3818.27     1.5818     0.0310     1.0425     0.2092     2.0185     1.9623   334.7200     1.6838     0.4933
 1048   20.940   3819.31     1.5887     0.0316     1.0447     0.2094     2.0231     1.9922   335.0400     1.6880     0.4887
 1049   20.960   3820.38     1.5663     0.0316     1.0526     0.2096     2.0092     2.0189   335.3600     1.6738     0.5047
 1050   20.980   3821.37     1.5611     0.0310     1.0465     0.2098     2.0003     1.9866   335.6800     1.6646     0.5021
 1051   21.000   3822.36     1.5435     0.0314     1.0572     0.2100     1.9865     2.0325   336.0000     1.6505     0.5119
 1052   21.020   3823.41     1.5279     0.0324     1.0799     0.2102     1.9780     2.1159   336.3200     1.6417     0.5247
 1053   21.040   3824.44     1.5118     0.0324     1.1018     0.2104     1.9716     2.1400   336.6400     1.6349     0.5409
 1054   21.060   3825.48     1.5178     0.0324     1.1114     0.2106     1.9822     2.1346   336.9600     1.6452     0.5441
 1055   21.080   3826.49     1.5174     0.0333     1.1403     0.2108     1.9934     2.1892   337.2800     1.6561     0.5570
 1056   21.100   3827.58     1.5525     0.0337     1.1549     0.2110     2.0360     2.1672   337.6000     1.6984     0.5535
 1057   21.120   3828.57     1.5843     0.0334     1.1666     0.2112     2.0725     2.1052   337.9200     1.7346     0.5483
 1058   21.140   3829.64     1.5896     0.0350     1.1732     0.2114     2.0823     2.2022   338.2400     1.7440     0.5514
 1059   21.160   3830.67     1.5951     0.0354     1.1665     0.2116     2.0860     2.2156   338.5600     1.7475     0.5478
 1060   21.180   3831.70     1.6030     0.0350     1.1667     0.2118     2.0934     2.1838   338.8800     1.7545     0.5448
 1061   21.200   3832.75     1.5966     0.0351     1.1610     0.2120     2.0854     2.1991   339.2000     1.7462     0.5451
 1062   21.220   3833.73     1.5831     0.0345     1.1685     0.2122     2.0730     2.1795   339.5200     1.7335     0.5505
 1063   21.240   3834.79     1.5668     0.0345     1.1791     0.2124     2.0608     2.1998   339.8400     1.7209     0.5600
 1064   21.260   3835.83     1.5797     0.0357     1.1866     0.2126     2.0770     2.2579   340.1600     1.7368     0.5593
 1065   21.280   3836.81     1.5983     0.0356     1.1864     0.2128     2.0969     2.2291   340.4800     1.7564     0.5547
 1066   21.300   3837.82     1.6454     0.0364     1.1652     0.2130     2.1394     2.2112   340.8000     1.7986     0.5356
 1067   21.320   3838.82     1.6560     0.0367     1.1358     0.2132     2.1357     2.2170   341.1200     1.7946     0.5175
 1068   21.340   3839.82     1.6573     0.0363     1.1400     0.2134     2.1366     2.1882   341.4400     1.7951     0.5168
 1069   21.360   3840.88     1.6672     0.0358     1.1432     0.2136     2.1468     2.1467   341.7600     1.8050     0.5143
 1070   21.380   3841.89     1.6681     0.0365     1.1428     0.2138     2.1460     2.1899   342.0800     1.8040     0.5123
 1071   21.400   3842.94     1.6839     0.0374     1.1442     0.2140     2.1645     2.2214   342.4000     1.8221     0.5106
 1072   21.420   3843.94     1.6718     0.0375     1.1487     0.2142     2.1545     2.2551   342.7200     1.8118     0.5161
 1073   21.440   3844.94     1.6257     0.0379     1.1249     0.2144     2.1009     2.3184   343.0400     1.7579     0.5217
 1074   21.460   3845.95     1.6105     0.0384     1.1207     0.2146     2.0835     2.3818   343.3600     1.7402     0.5239
 1075   21.480   3847.00     1.6115     0.0378     1.1186     0.2148     2.0819     2.3375   343.6800     1.7382     0.5207
 1076   21.500   3848.03     1.5562     0.0386     1.0979     0.2150     2.0228     2.4638   344.0000     1.6788     0.5336
 1077   21.520   3854.45     1.5222     0.0385     1.0615     0.2152     1.9719     2.5270   344.3200     1.6276     0.5256
 1078   21.540   3873.40     1.5218     0.0364     1.0348     0.2154     1.9603     2.3920   344.6400     1.6157     0.5127
 1079   21.560   3892.35     1.5214     0.0353     1.0081     0.2156     1.9487     2.3218   344.9600     1.6037     0.4998
 1080   21.580   3900.90     1.5104                1.0281     0.2158     1.9371              345.2800     1.5918     0.5028
 1081   21.600   3901.98     1.4371                1.0444     0.2160     1.8739              345.6000     1.5283     0.5394
 1082   21.620   3902.95     1.3973                1.0498     0.2162     1.8366              345.9200     1.4907     0.5566
 1083   21.640   3903.93     1.3672                1.0601     0.2164     1.8124              346.2400     1.4661     0.5753
 1084   21.660   3904.99     1.3781                1.0748     0.2166     1.8278              346.5600     1.4812     0.5767
 1085   21.680   3906.08     1.3911                           0.2168     1.8479              346.8800     1.5010     0.5801
 
 
