

 Program UNIPLOT                         version 05.36.02
 _______________
 (c) Fugro Netherlands Marine, Nootdorp, The Netherlands


 ASCII representation of data plotted on a graph.

 This ASCII file presents data interpolated to values per fixed depth interval.
 The data are corrected for the depth-offset differences between the various 
 transducers in the penetrometer.

 The records at the start of penetration may include no values or anomalous
 values where a depth offset implies incomplete penetration of a particular
 sensor into the ground.

 The records at the end of penetration may include no values for data channels
 where the transducer did not reach this depth.

 The reference level for test values is (1) the ground surface for onshore tests and (2) the seafloor for nearshore and offshore tests.

 UNICAS data file          : CPT-1007.003                            
 Output using command file : PlotASCII.cmd

 ASCII file created at : date          :08-Nov-2021
                         time          :15:11:31
 Project number                        :20024805                                                                                            
 Date of testing                       :06-Nov-2021                                                                                         
 Location                              :Hong Kong Offshore Wind Farm Project                                                                
 Test name                             :CPT-1007
 Penetrometer                          :F7.5CKE2HAW2/B/2711
 Serial no                             :1701-2711

 Table description:
 Column ID                             :Parameter name
 ___________________________________________________________________________________
 Rec                                   :Record ID, Record ID [-]
 Depth                                 :Depth, Depth [m]
 Time                                  :Time, Time [s]
 Cone                                  :Cone Resistance, Cone Resistance [MPa]
 Friction                              :Sleeve Friction, Sleeve Friction [MPa]
 Pore 2                                :Porewater Pressure, Porewater Pressure at Shoulder [MPa]
 HydroPress                            :Hydrostatic Pressure, Hydrostatic Pressure [MPa]
 qt                                    :Total Cone Resistance, Total Cone Resistance [MPa]
 Fric_ratio                            :Friction Ratio, Friction Ratio [%]
 SigmaVert                             :Vertical stress, Vertical stress [kPa] as specified in ground model
 Qnet                                  :Net Cone Resistance, Net Cone Resistance [MPa], unit weight as specified in ground model
 Bq                                    :Porewater Pressure Ratio, Porewater Pressure Ratio [-], unit weight as specified in ground model


 Data table:
  Rec    Depth      Time       Cone   Friction     Pore 2 HydroPress         qt Fric_ratio  SigmaVert       Qnet         Bq
   No        m         s        MPa        MPa        MPa        MPa        MPa          %        kPa        MPa          -
    1    0.000   1723.91     0.0000                           0.0000     0.0000                0.0000     0.0000           
    2    0.020   1724.90     0.0068                0.0004     0.0002     0.0069                0.3200     0.0066    -0.0156
    3    0.040   1725.91     0.0043                0.0006     0.0004     0.0048                0.6400     0.0041     0.1570
    4    0.060   1726.84     0.0093     0.0004     0.0012     0.0006     0.0096     5.0964     0.9600     0.0086     0.0185
    5    0.080   1727.87     0.0047     0.0004     0.0003     0.0008     0.0048     4.3166     1.2800     0.0036    -1.0220
    6    0.100   1728.90     0.0024     0.0005     0.0011     0.0010     0.0028     5.7421     1.6000     0.0012    -0.0726
    7    0.120   1729.86     0.0080     0.0006     0.0022     0.0012     0.0087     7.1676     1.9200     0.0068     0.0902
    8    0.140   1730.86     0.0086     0.0007     0.0022     0.0014     0.0095     8.0818     2.2400     0.0073     0.1013
    9    0.160   1731.87     0.0068     0.0004     0.0028     0.0016     0.0078     5.0792     2.5600     0.0053     0.1947
   10    0.180   1733.83     0.0116     0.0006     0.0029     0.0018     0.0128     5.6750     2.8800     0.0099     0.1097
   11    0.200   1737.18     0.0126     0.0010     0.0029     0.0020     0.0138     8.8394     3.2000     0.0106     0.0854
   12    0.220   1740.53     0.0136     0.0007     0.0029     0.0022     0.0149     6.4714     3.5200     0.0113     0.0611
   13    0.240   1742.47     0.0172     0.0010     0.0034     0.0024     0.0187     6.2417     3.8400     0.0148     0.0754
   14    0.260   1743.50     0.0161     0.0013     0.0031     0.0026     0.0173     8.3135     4.1600     0.0131     0.0279
   15    0.280   1744.51     0.0179     0.0015     0.0030     0.0028     0.0192     8.1726     4.4800     0.0147     0.0132
   16    0.300   1745.50     0.0181     0.0012     0.0033     0.0030     0.0194     6.5543     4.8000     0.0146     0.0122
   17    0.320   1746.51     0.0187     0.0012     0.0039     0.0032     0.0202     6.2927     5.1200     0.0151     0.0147
   18    0.340   1747.50     0.0149     0.0015     0.0020     0.0034     0.0166    10.2513     5.4400     0.0112     0.0499
   19    0.360   1748.46     0.0183     0.0015     0.0039     0.0036     0.0198     8.6083     5.7600     0.0140    -0.0117
   20    0.380   1749.45     0.0161     0.0013     0.0053     0.0038     0.0181     8.0203     6.0800     0.0120     0.0923
   21    0.400   1750.40     0.0156     0.0013     0.0057     0.0040     0.0180     7.9960     6.4000     0.0116     0.1481
   22    0.420   1751.42     0.0206     0.0017     0.0063     0.0042     0.0232     8.2478     6.7200     0.0165     0.1189
   23    0.440   1752.46     0.0154     0.0015     0.0062     0.0044     0.0181     8.8648     7.0400     0.0110     0.1775
   24    0.460   1753.45     0.0170     0.0015     0.0065     0.0046     0.0195     8.3286     7.3600     0.0122     0.1089
   25    0.480   1754.40     0.0174     0.0015     0.0076     0.0048     0.0206     8.4666     7.6800     0.0129     0.2080
   26    0.500   1755.40     0.0214     0.0016     0.0079     0.0050     0.0247     7.8276     8.0000     0.0167     0.1713
   27    0.520   1756.36     0.0184     0.0016     0.0079     0.0052     0.0217     8.5825     8.3200     0.0134     0.2015
   28    0.540   1757.34     0.0184     0.0013     0.0082     0.0054     0.0218     7.5835     8.6400     0.0132     0.1957
   29    0.560   1758.32     0.0157     0.0018     0.0071     0.0056     0.0185    11.1955     8.9600     0.0095     0.1030
   30    0.580   1759.35     0.0190     0.0018     0.0085     0.0058     0.0225     9.1899     9.2800     0.0132     0.1799
   31    0.600   1760.36     0.0197     0.0018     0.0099     0.0060     0.0238     8.7376     9.6000     0.0142     0.2610
   32    0.620   1761.34     0.0198     0.0016     0.0108     0.0062     0.0242     8.0873     9.9200     0.0142     0.2961
   33    0.640   1762.29     0.0225     0.0017     0.0111     0.0064     0.0271     7.7857    10.2400     0.0168     0.2719
   34    0.660   1763.26     0.0235     0.0016     0.0115     0.0066     0.0284     6.6692    10.5600     0.0178     0.2793
   35    0.680   1764.28     0.0253     0.0018     0.0107     0.0068     0.0301     7.4059    10.8800     0.0192     0.2334
   36    0.700   1765.29     0.0223     0.0017     0.0110     0.0070     0.0268     7.5644    11.2000     0.0156     0.2363
   37    0.720   1766.28     0.0220     0.0019     0.0112     0.0072     0.0267     8.6537    11.5200     0.0152     0.2640
   38    0.740   1767.29     0.0233     0.0018     0.0119     0.0074     0.0283     7.5754    11.8400     0.0164     0.2661
   39    0.760   1768.28     0.0231     0.0019     0.0125     0.0076     0.0282     8.0079    12.1600     0.0160     0.2863
   40    0.780   1769.25     0.0234     0.0020     0.0126     0.0078     0.0288     8.2362    12.4800     0.0163     0.3103
   41    0.800   1770.20     0.0245     0.0022     0.0128     0.0080     0.0297     9.2902    12.8000     0.0169     0.2625
   42    0.820   1771.19     0.0282     0.0018     0.0133     0.0082     0.0337     6.0101    13.1200     0.0205     0.2296
   43    0.840   1772.23     0.0297     0.0019     0.0150     0.0084     0.0357     7.1065    13.4400     0.0223     0.2727
   44    0.860   1773.21     0.0307     0.0020     0.0140     0.0086     0.0370     6.5960    13.7600     0.0232     0.2738
   45    0.880   1774.18     0.0358     0.0023     0.0132     0.0088     0.0413     6.5596    14.0800     0.0272     0.1617
   46    0.900   1775.16     0.0338     0.0026     0.0119     0.0090     0.0391     7.1544    14.4000     0.0247     0.1425
   47    0.920   1776.15     0.0320     0.0027     0.0131     0.0092     0.0376     8.6298    14.7200     0.0229     0.1862
   48    0.940   1777.10     0.0337     0.0026     0.0136     0.0094     0.0391     7.4808    15.0400     0.0241     0.1515
   49    0.960   1778.11     0.0317     0.0022     0.0152     0.0096     0.0377     6.6657    15.3600     0.0224     0.2131
   50    0.980   1779.11     0.0294     0.0023     0.0173     0.0098     0.0363     7.8759    15.6800     0.0207     0.3258
   51    1.000   1780.09     0.0257     0.0022     0.0184     0.0100     0.0333     8.5330    16.0000     0.0173     0.4779
   52    1.020   1781.10     0.0264     0.0020     0.0170     0.0102     0.0336     7.3304    16.3200     0.0173     0.4081
   53    1.040   1782.08     0.0287     0.0018     0.0172     0.0104     0.0358     6.2170    16.6400     0.0191     0.3385
   54    1.060   1783.07     0.0282     0.0018     0.0170     0.0106     0.0353     6.3597    16.9600     0.0183     0.3463
   55    1.080   1784.04     0.0287     0.0020     0.0177     0.0108     0.0355     7.4471    17.2800     0.0182     0.3040
   56    1.100   1785.07     0.0263     0.0022     0.0177     0.0110     0.0338     8.6195    17.6000     0.0162     0.4291
   57    1.120   1786.08     0.0304     0.0022     0.0177     0.0112     0.0377     7.1553    17.9200     0.0198     0.3170
   58    1.140   1787.06     0.0288     0.0024     0.0189     0.0114     0.0365     8.3281    18.2400     0.0182     0.3755
   59    1.160   1788.04     0.0298     0.0020     0.0199     0.0116     0.0380     6.7191    18.5600     0.0194     0.4113
   60    1.180   1799.35     0.0294     0.0024     0.0197     0.0118     0.0377     7.7332    18.8800     0.0189     0.4311
   61    1.200   1818.42     0.0271     0.0023     0.0194     0.0120     0.0353     7.5220    19.2000     0.0161     0.4708
   62    1.220   1828.47     0.0267     0.0022     0.0215     0.0122     0.0353     8.3412    19.5200     0.0158     0.5194
   63    1.240   1829.50     0.0262     0.0018     0.0230     0.0124     0.0356     7.0794    19.8400     0.0158     0.6398
   64    1.260   1830.50     0.0293     0.0020     0.0233     0.0126     0.0392     6.8483    20.1600     0.0191     0.5795
   65    1.280   1831.46     0.0328     0.0018     0.0245     0.0128     0.0431     5.4994    20.4800     0.0226     0.5219
   66    1.300   1832.44     0.0279     0.0020     0.0252     0.0130     0.0385     6.7940    20.8000     0.0177     0.6983
   67    1.320   1833.41     0.0326     0.0018     0.0238     0.0132     0.0429     5.5279    21.1200     0.0217     0.5148
   68    1.340   1834.40     0.0328     0.0019     0.0236     0.0134     0.0427     6.0665    21.4400     0.0213     0.4807
   69    1.360   1835.41     0.0352     0.0020     0.0245     0.0136     0.0454     5.8956    21.7600     0.0236     0.4510
   70    1.380   1836.40     0.0317     0.0021     0.0240     0.0138     0.0410     6.7877    22.0800     0.0189     0.4445
   71    1.400   1837.37     0.0300     0.0020     0.0242     0.0140     0.0398     6.4222    22.4000     0.0174     0.5301
   72    1.420   1838.33     0.0362     0.0019     0.0258     0.0142     0.0470     5.5081    22.7200     0.0243     0.4774
   73    1.440   1839.32     0.0382     0.0018     0.0272     0.0144     0.0493     4.6185    23.0400     0.0262     0.4595
   74    1.460   1840.33     0.0412     0.0021     0.0272     0.0146     0.0526     5.2356    23.3600     0.0292     0.4319
   75    1.480   1841.26     0.0462     0.0020     0.0287     0.0148     0.0579     4.4100    23.6800     0.0343     0.3875
   76    1.500   1842.27     0.0497     0.0022     0.0304     0.0150     0.0623     4.5272    24.0000     0.0383     0.3906
   77    1.520   1843.24     0.0474     0.0022     0.0295     0.0152     0.0600     4.7370    24.3200     0.0357     0.4183
   78    1.540   1844.24     0.0472     0.0021     0.0293     0.0154     0.0595     4.7145    24.6400     0.0348     0.3986
   79    1.560   1845.24     0.0487     0.0023     0.0317     0.0156     0.0615     4.6645    24.9600     0.0365     0.4081
   80    1.580   1846.21     0.0529     0.0022     0.0355     0.0158     0.0674     4.2640    25.2800     0.0422     0.4440
   81    1.600   1847.20     0.0555     0.0022     0.0375     0.0160     0.0710     4.0160    25.6000     0.0454     0.4618
   82    1.620   1848.15     0.0589     0.0024     0.0343     0.0162     0.0739     4.1505    25.9200     0.0480     0.4052
   83    1.640   1849.16     0.0621     0.0026     0.0321     0.0164     0.0755     4.1916    26.2400     0.0492     0.3140
   84    1.660   1850.13     0.0607     0.0028     0.0296     0.0166     0.0738     4.5191    26.5600     0.0473     0.3085
   85    1.680   1851.07     0.0597     0.0027     0.0287     0.0168     0.0720     4.4841    26.8800     0.0452     0.2799
   86    1.700   1852.10     0.0631     0.0028     0.0315     0.0170     0.0759     4.3725    27.2000     0.0487     0.2784
   87    1.720   1853.10     0.0576     0.0024     0.0328     0.0172     0.0715     4.0827    27.5200     0.0440     0.3640
   88    1.740   1854.08     0.0544     0.0021     0.0351     0.0174     0.0689     3.9096    27.8400     0.0410     0.4170
   89    1.760   1855.06     0.0577     0.0023     0.0352     0.0176     0.0728     3.9699    28.1600     0.0446     0.4115
   90    1.780   1856.04     0.0559     0.0021     0.0379     0.0178     0.0715     3.8061    28.4800     0.0430     0.4503
   91    1.800   1857.07     0.0543     0.0022     0.0395     0.0180     0.0712     4.0959    28.8000     0.0424     0.5248
   92    1.820   1858.03     0.0576     0.0023     0.0387     0.0182     0.0739     4.1727    29.1200     0.0448     0.4627
   93    1.840   1859.02     0.0613     0.0026     0.0411     0.0184     0.0784     4.2856    29.4400     0.0490     0.4562
   94    1.860   1859.99     0.0591     0.0023     0.0424     0.0186     0.0770     3.9303    29.7600     0.0472     0.5094
   95    1.880   1860.97     0.0596     0.0022     0.0423     0.0188     0.0775     3.7045    30.0800     0.0474     0.5003
   96    1.900   1861.93     0.0596     0.0025     0.0440     0.0190     0.0776     4.0039    30.4000     0.0472     0.5051
   97    1.920   1862.93     0.0661     0.0026     0.0477     0.0192     0.0856     4.0150    30.7200     0.0549     0.4971
   98    1.940   1863.91     0.0685     0.0025     0.0479     0.0194     0.0887     3.6501    31.0400     0.0576     0.4986
   99    1.960   1864.88     0.0651     0.0025     0.0479     0.0196     0.0852     3.7918    31.3600     0.0538     0.5250
  100    1.980   1865.87     0.0671     0.0027     0.0498     0.0198     0.0878     4.0243    31.6800     0.0561     0.5251
  101    2.000   1866.84     0.0685     0.0025     0.0509     0.0200     0.0897     3.6557    32.0000     0.0577     0.5276
  102    2.020   1867.83     0.0669     0.0027     0.0500     0.0202     0.0882     4.0295    32.3200     0.0559     0.5438
  103    2.040   1868.82     0.0653     0.0031     0.0510     0.0204     0.0865     4.7565    32.6400     0.0539     0.5589
  104    2.060   1869.79     0.0644     0.0029     0.0496     0.0206     0.0854     4.4259    32.9600     0.0525     0.5621
  105    2.080   1870.74     0.0604     0.0027     0.0493     0.0208     0.0812     4.3843    33.2800     0.0479     0.5976
  106    2.100   1871.72     0.0607     0.0022     0.0452     0.0210     0.0810     3.6328    33.6000     0.0474     0.5757
  107    2.120   1872.74     0.0664     0.0026     0.0447     0.0212     0.0840     3.7016    33.9200     0.0500     0.4143
  108    2.140   1873.74     0.0574     0.0028     0.0453     0.0214     0.0766     4.9201    34.2400     0.0423     0.5734
  109    2.160   1874.69     0.0564     0.0029     0.0429     0.0216     0.0746     5.0907    34.5600     0.0400     0.5453
  110    2.180   1875.67     0.0620     0.0026     0.0509     0.0218     0.0817     4.3051    34.8800     0.0469     0.5374
  111    2.200   1876.63     0.0734     0.0031     0.0536     0.0220     0.0953     4.5732    35.2000     0.0601     0.5064
  112    2.220   1877.62     0.0874     0.0034     0.0503     0.0222     0.1099     4.0502    35.5200     0.0744     0.4220
  113    2.240   1878.63     0.0986     0.0035     0.0444     0.0224     0.1180     3.6420    35.8400     0.0821     0.2902
  114    2.260   1879.64     0.1141     0.0043     0.0452     0.0226     0.1321     3.7691    36.1600     0.0960     0.2112
  115    2.280   1880.63     0.1262     0.0045     0.0470     0.0228     0.1453     3.6242    36.4800     0.1088     0.2075
  116    2.300   1881.59     0.1354     0.0052     0.0475     0.0230     0.1549     3.8650    36.8000     0.1181     0.1995
  117    2.320   1882.58     0.1416     0.0056     0.0430     0.0232     0.1593     4.0004    37.1200     0.1222     0.1545
  118    2.340   1883.53     0.1490     0.0052     0.0351     0.0234     0.1659     3.5109    37.4400     0.1285     0.1313
  119    2.360   1884.51     0.1529     0.0051     0.0376     0.0236     0.1684     3.3135    37.7600     0.1306     0.1018
  120    2.380   1885.54     0.1458     0.0049     0.0434     0.0238     0.1633     3.3281    38.0800     0.1252     0.1431
  121    2.400   1886.51     0.1379     0.0053     0.0487     0.0240     0.1567     3.8014    38.4000     0.1183     0.1756
  122    2.420   1887.50     0.1337     0.0051     0.0488     0.0242     0.1554     3.7921    38.7200     0.1167     0.2359
  123    2.440   1888.47     0.1384     0.0056     0.0372     0.0244     0.1560     4.0607    39.0400     0.1170     0.1504
  124    2.460   1889.43     0.1485     0.0054     0.0319     0.0246     0.1624     3.6943    39.3600     0.1230     0.0690
  125    2.480   1890.39     0.1578     0.0055     0.0347     0.0248     0.1719     3.4926    39.6800     0.1322     0.0647
  126    2.500   1891.38     0.1588     0.0059     0.0349     0.0250     0.1732     3.7066    40.0000     0.1332     0.0695
  127    2.520   1892.41     0.1659     0.0060     0.0425     0.0252     0.1833     3.6414    40.3200     0.1430     0.1134
  128    2.540   1893.38     0.1621     0.0054     0.0385     0.0254     0.1791     3.3550    40.6400     0.1384     0.1089
  129    2.560   1894.37     0.1550     0.0054     0.0365     0.0256     0.1704     3.4765    40.9600     0.1294     0.0853
  130    2.580   1895.36     0.1513     0.0054     0.0389     0.0258     0.1671     3.4839    41.2800     0.1258     0.0929
  131    2.600   1896.28     0.1446     0.0054     0.0396     0.0260     0.1607     3.6889    41.6000     0.1191     0.1032
  132    2.620   1897.30     0.1342     0.0050     0.0528     0.0262     0.1549     3.6650    41.9200     0.1130     0.2035
  133    2.640   1898.27     0.1299     0.0044     0.0590     0.0264     0.1541     3.3660    42.2400     0.1119     0.2791
  134    2.660   1899.27     0.1285     0.0047     0.0621     0.0266     0.1540     3.5659    42.5600     0.1114     0.3055
  135    2.680   1900.27     0.1236     0.0042     0.0663     0.0268     0.1510     3.4049    42.8800     0.1081     0.3553
  136    2.700   1901.25     0.1226     0.0042     0.0674     0.0270     0.1507     3.4314    43.2000     0.1075     0.3721
  137    2.720   1902.27     0.1178     0.0042     0.0710     0.0272     0.1471     3.5377    43.5200     0.1036     0.4117
  138    2.740   1903.21     0.1106     0.0044     0.0704     0.0274     0.1406     3.9317    43.8400     0.0968     0.4550
  139    2.760   1904.19     0.1096     0.0038     0.0699     0.0276     0.1383     3.4176    44.1600     0.0941     0.4330
  140    2.780   1905.19     0.1072     0.0044     0.0712     0.0278     0.1370     4.1093    44.4800     0.0925     0.4652
  141    2.800   1906.21     0.1106     0.0041     0.0698     0.0280     0.1400     3.7096    44.8000     0.0952     0.4403
  142    2.820   1907.19     0.1047     0.0040     0.0711     0.0282     0.1344     3.7600    45.1200     0.0892     0.4754
  143    2.840   1908.16     0.1026     0.0041     0.0712     0.0284     0.1327     3.9191    45.4400     0.0873     0.4964
  144    2.860   1909.14     0.1005     0.0039     0.0670     0.0286     0.1285     3.8783    45.7600     0.0827     0.4606
  145    2.880   1910.11     0.0971     0.0040     0.0720     0.0288     0.1265     4.0697    46.0800     0.0805     0.5146
  146    2.900   1911.12     0.0941     0.0039     0.0737     0.0290     0.1248     4.1638    46.4000     0.0784     0.5632
  147    2.920   1912.05     0.0932     0.0042     0.0738     0.0292     0.1239     4.5161    46.7200     0.0772     0.5700
  148    2.940   1913.05     0.0975     0.0042     0.0731     0.0294     0.1281     4.4438    47.0400     0.0811     0.5384
  149    2.960   1914.06     0.0967     0.0042     0.0710     0.0296     0.1269     4.3778    47.3600     0.0795     0.5329
  150    2.980   1915.03     0.0920     0.0040     0.0720     0.0298     0.1217     4.2982    47.6800     0.0741     0.5525
  151    3.000   1916.05     0.0909     0.0042     0.0739     0.0300     0.1216     4.6033    48.0000     0.0736     0.5845
  152    3.020   1917.05     0.0930     0.0040     0.0730     0.0302     0.1239     4.2556    48.3200     0.0755     0.5726
  153    3.040   1927.47     0.0905     0.0041     0.0736     0.0304     0.1213     4.8679    48.6400     0.0727     0.5944
  154    3.060   1942.06     0.0961     0.0038     0.0743     0.0306     0.1272     4.4664    48.9600     0.0782     0.5570
  155    3.080   1947.66     0.0820     0.0038     0.0737     0.0308     0.1132     4.4651    49.2800     0.0639     0.6832
  156    3.100   1948.65     0.0801     0.0036     0.0739     0.0310     0.1108     4.5466    49.6000     0.0612     0.6864
  157    3.120   1949.62     0.0765     0.0034     0.0774     0.0312     0.1086     4.4594    49.9200     0.0587     0.7694
  158    3.140   1950.62     0.0775     0.0036     0.0794     0.0314     0.1109     4.7071    50.2400     0.0607     0.7929
  159    3.160   1951.60     0.0833     0.0034     0.0853     0.0316     0.1181     4.2297    50.5600     0.0675     0.7605
  160    3.180   1952.59     0.0881     0.0038     0.0866     0.0318     0.1248     4.3526    50.8800     0.0739     0.7509
  161    3.200   1953.57     0.0912     0.0039     0.0871     0.0320     0.1277     4.2800    51.2000     0.0765     0.7173
  162    3.220   1954.54     0.0932     0.0034     0.0865     0.0322     0.1298     3.6600    51.5200     0.0783     0.7032
  163    3.240   1955.56     0.0933     0.0038     0.0853     0.0324     0.1297     4.0921    51.8400     0.0779     0.6995
  164    3.260   1956.51     0.0989     0.0040     0.0831     0.0326     0.1344     4.0025    52.1600     0.0823     0.6323
  165    3.280   1957.52     0.0972     0.0034     0.0789     0.0328     0.1305     3.4942    52.4800     0.0780     0.5959
  166    3.300   1958.51     0.0915     0.0036     0.0795     0.0330     0.1251     3.9364    52.8000     0.0723     0.6511
  167    3.320   1959.47     0.0931     0.0036     0.0825     0.0332     0.1275     3.8678    53.1200     0.0744     0.6558
  168    3.340   1960.47     0.0873     0.0032     0.0798     0.0334     0.1214     3.5767    53.4400     0.0680     0.7051
  169    3.360   1961.45     0.0935     0.0035     0.0831     0.0336     0.1274     3.8471    53.7600     0.0736     0.6377
  170    3.380   1962.41     0.0956     0.0038     0.0878     0.0338     0.1322     4.0134    54.0800     0.0781     0.6815
  171    3.400   1963.41     0.1000     0.0036     0.0878     0.0340     0.1368     3.5727    54.4000     0.0824     0.6503
  172    3.420   1964.42     0.1015     0.0034     0.0849     0.0342     0.1377     3.4570    54.7200     0.0830     0.6265
  173    3.440   1965.38     0.1001     0.0037     0.0831     0.0344     0.1349     3.7707    55.0400     0.0799     0.6082
  174    3.460   1966.37     0.0955     0.0037     0.0848     0.0346     0.1307     3.7092    55.3600     0.0754     0.6543
  175    3.480   1967.33     0.0983     0.0032     0.0864     0.0348     0.1343     3.2581    55.6800     0.0786     0.6489
  176    3.500   1968.29     0.0930     0.0037     0.0866     0.0350     0.1295     3.9945    56.0000     0.0735     0.7054
  177    3.520   1969.26     0.0920     0.0031     0.0825     0.0352     0.1276     3.3433    56.3200     0.0713     0.6949
  178    3.540   1970.29     0.0855     0.0035     0.0796     0.0354     0.1192     3.9816    56.6400     0.0625     0.7164
  179    3.560   1971.26     0.0840     0.0036     0.0786     0.0356     0.1169     4.2335    56.9600     0.0600     0.7135
  180    3.580   1972.26     0.0838     0.0038     0.0796     0.0358     0.1167     4.6569    57.2800     0.0594     0.7175
  181    3.600   1973.23     0.0823     0.0032     0.0876     0.0360     0.1181     3.8150    57.6000     0.0605     0.8137
  182    3.620   1974.20     0.0820     0.0037     0.0917     0.0362     0.1200     4.7152    57.9200     0.0620     0.8798
  183    3.640   1975.19     0.0887     0.0033     0.0953     0.0364     0.1283     3.6752    58.2400     0.0700     0.8246
  184    3.660   1976.18     0.0904     0.0032     0.0962     0.0366     0.1309     3.6459    58.5600     0.0723     0.8273
  185    3.680   1977.12     0.0915     0.0037     0.0948     0.0368     0.1316     4.0100    58.8800     0.0727     0.8074
  186    3.700   1978.11     0.0924     0.0035     0.0935     0.0370     0.1318     3.8478    59.2000     0.0726     0.7818
  187    3.720   1979.15     0.0942     0.0038     0.0921     0.0372     0.1330     3.9732    59.5200     0.0735     0.7529
  188    3.740   1980.13     0.0979     0.0040     0.0900     0.0374     0.1362     4.0724    59.8400     0.0764     0.7045
  189    3.760   1981.12     0.1038     0.0037     0.0902     0.0376     0.1415     3.6395    60.1600     0.0814     0.6408
  190    3.780   1982.11     0.1059     0.0041     0.0922     0.0378     0.1444     3.8897    60.4800     0.0839     0.6423
  191    3.800   1983.07     0.1111     0.0037     0.0919     0.0380     0.1495     3.3643    60.8000     0.0887     0.6033
  192    3.820   1983.99     0.1140     0.0038     0.0896     0.0382     0.1520     3.3608    61.1200     0.0909     0.5756
  193    3.840   1985.02     0.1104     0.0035     0.0868     0.0384     0.1481     3.1443    61.4400     0.0867     0.5928
  194    3.860   1986.03     0.1131     0.0041     0.0857     0.0386     0.1496     3.6779    61.7600     0.0879     0.5502
  195    3.880   1986.98     0.1127     0.0040     0.0841     0.0388     0.1476     3.5314    62.0800     0.0856     0.5197
  196    3.900   1988.00     0.1046     0.0040     0.0890     0.0390     0.1407     3.7866    62.4000     0.0783     0.6002
  197    3.920   1988.93     0.1001     0.0037     0.0880     0.0392     0.1377     3.6572    62.7200     0.0750     0.6725
  198    3.940   1989.97     0.1032     0.0037     0.0866     0.0394     0.1386     3.6723    63.0400     0.0756     0.5941
  199    3.960   1990.93     0.0956     0.0035     0.0909     0.0396     0.1342     3.5794    63.3600     0.0709     0.7398
  200    3.980   1991.86     0.1004     0.0032     0.0906     0.0398     0.1380     3.2250    63.6800     0.0743     0.6670
  201    4.000   1992.82     0.1054     0.0036     0.0922     0.0400     0.1442     3.4783    64.0000     0.0802     0.6525
  202    4.020   1993.84     0.1051     0.0037     0.0940     0.0402     0.1452     3.5903    64.3200     0.0808     0.6824
  203    4.040   1994.82     0.1116     0.0037     0.0904     0.0404     0.1505     3.3408    64.6400     0.0858     0.6086
  204    4.060   1995.82     0.1090     0.0036     0.0900     0.0406     0.1462     3.2640    64.9600     0.0812     0.5920
  205    4.080   1996.78     0.1005     0.0037     0.0905     0.0408     0.1388     3.7448    65.2800     0.0735     0.6840
  206    4.100   1997.75     0.0979     0.0036     0.0876     0.0410     0.1351     3.6512    65.6000     0.0695     0.6841
  207    4.120   1998.76     0.0962     0.0038     0.0877     0.0412     0.1328     3.8682    65.9200     0.0669     0.6880
  208    4.140   1999.74     0.0956     0.0035     0.0901     0.0414     0.1329     3.6089    66.2400     0.0666     0.7110
  209    4.160   2000.74     0.0997     0.0034     0.0918     0.0416     0.1383     3.4466    66.5600     0.0717     0.7015
  210    4.180   2001.71     0.0993     0.0037     0.0891     0.0418     0.1370     3.7251    66.8800     0.0701     0.6850
  211    4.200   2002.69     0.0972     0.0036     0.0819     0.0420     0.1323     3.6672    67.2000     0.0651     0.6362
  212    4.220   2003.68     0.0948     0.0037     0.0820     0.0422     0.1290     3.8640    67.5200     0.0615     0.6381
  213    4.240   2004.70     0.0889     0.0035     0.0820     0.0424     0.1236     3.8816    67.8400     0.0557     0.7214
  214    4.260   2005.69     0.0845     0.0034     0.0836     0.0426     0.1193     3.9855    68.1600     0.0512     0.7887
  215    4.280   2006.67     0.0831     0.0035     0.0852     0.0428     0.1185     4.0662    68.4800     0.0501     0.8328
  216    4.300   2007.63     0.0814     0.0033     0.0855     0.0430     0.1167     4.0591    68.8000     0.0479     0.8602
  217    4.320   2008.59     0.0801     0.0032     0.0895     0.0432     0.1172     3.8939    69.1200     0.0481     0.9415
  218    4.340   2009.58     0.0818     0.0036     0.0914     0.0434     0.1198     4.4466    69.4400     0.0504     0.9341
  219    4.360   2010.55     0.0905     0.0034     0.0904     0.0436     0.1287     3.8712    69.7600     0.0589     0.8018
  220    4.380   2011.54     0.0992     0.0037     0.0858     0.0438     0.1368     3.7812    70.0800     0.0667     0.6840
  221    4.400   2012.55     0.1030     0.0037     0.0867     0.0440     0.1395     3.6596    70.4000     0.0691     0.6218
  222    4.420   2013.54     0.1079     0.0037     0.0856     0.0442     0.1449     3.4798    70.7200     0.0742     0.5918
  223    4.440   2014.50     0.1033     0.0038     0.0884     0.0444     0.1397     3.6244    71.0400     0.0686     0.6144
  224    4.460   2015.49     0.1052     0.0037     0.0879     0.0446     0.1417     3.5421    71.3600     0.0704     0.6037
  225    4.480   2016.41     0.1035     0.0039     0.0909     0.0448     0.1414     3.7218    71.6800     0.0697     0.6506
  226    4.500   2017.42     0.1004     0.0038     0.0904     0.0450     0.1395     3.7435    72.0000     0.0675     0.7119
  227    4.520   2018.41     0.1015     0.0034     0.0960     0.0452     0.1409     3.3778    72.3200     0.0686     0.7078
  228    4.540   2019.42     0.1008     0.0034     0.0955     0.0454     0.1411     3.3339    72.6400     0.0685     0.7401
  229    4.560   2020.41     0.1046     0.0034     0.0946     0.0456     0.1447     3.2645    72.9600     0.0717     0.6954
  230    4.580   2021.42     0.1113     0.0033     0.0990     0.0458     0.1529     3.0252    73.2800     0.0796     0.6682
  231    4.600   2022.42     0.1223     0.0036     0.1015     0.0460     0.1649     2.9882    73.6000     0.0913     0.6077
  232    4.620   2023.40     0.1325     0.0034     0.0944     0.0462     0.1737     2.6379    73.9200     0.0998     0.5188
  233    4.640   2024.36     0.1365     0.0038     0.0879     0.0464     0.1745     2.8042    74.2400     0.1002     0.4395
  234    4.660   2025.36     0.1332     0.0035     0.0868     0.0466     0.1688     2.6278    74.5600     0.0943     0.4049
  235    4.680   2026.37     0.1289     0.0038     0.0869     0.0468     0.1652     2.8921    74.8800     0.0903     0.4389
  236    4.700   2027.40     0.1274     0.0038     0.0965     0.0470     0.1666     3.0425    75.2000     0.0914     0.5081
  237    4.720   2028.36     0.1278     0.0042     0.1005     0.0472     0.1699     3.3339    75.5200     0.0944     0.5626
  238    4.740   2029.32     0.1234     0.0041     0.1001     0.0474     0.1654     3.3060    75.8400     0.0895     0.5876
  239    4.760   2030.30     0.1298     0.0039     0.0984     0.0476     0.1717     3.0438    76.1600     0.0955     0.5455
  240    4.780   2031.30     0.1301     0.0038     0.0950     0.0478     0.1704     2.9088    76.4800     0.0939     0.5128
  241    4.800   2032.27     0.1254     0.0042     0.0962     0.0480     0.1654     3.2973    76.8000     0.0886     0.5318
  242    4.820   2033.28     0.1214     0.0038     0.0997     0.0482     0.1625     3.1010    77.1200     0.0854     0.5833
  243    4.840   2034.28     0.1220     0.0040     0.1025     0.0484     0.1650     3.3000    77.4400     0.0876     0.6180
  244    4.860   2035.26     0.1228     0.0035     0.1039     0.0486     0.1657     2.9438    77.7600     0.0880     0.6099
  245    4.880   2036.25     0.1254     0.0036     0.1061     0.0488     0.1703     2.9108    78.0800     0.0922     0.6285
  246    4.900   2037.22     0.1300     0.0038     0.1064     0.0490     0.1744     2.8898    78.4000     0.0960     0.5917
  247    4.920   2038.20     0.1330     0.0035     0.1060     0.0492     0.1777     2.7177    78.7200     0.0990     0.5803
  248    4.940   2039.18     0.1344     0.0033     0.1048     0.0494     0.1786     2.3857    79.0400     0.0996     0.5613
  249    4.960   2040.16     0.1331     0.0035     0.1065     0.0496     0.1773     2.7465    79.3600     0.0979     0.5689
  250    4.980   2041.15     0.1282     0.0036     0.1099     0.0498     0.1738     2.8627    79.6800     0.0941     0.6245
  251    5.000   2042.13     0.1228     0.0037     0.1087     0.0500     0.1691     2.9788    80.0000     0.0891     0.6755
  252    5.020   2043.13     0.1258     0.0040     0.1077     0.0502     0.1709     3.1543    80.3200     0.0906     0.6325
  253    5.040   2044.11     0.1284     0.0038     0.1126     0.0504     0.1751     2.9394    80.6400     0.0944     0.6415
  254    5.060   2046.35     0.1303     0.0041     0.1136     0.0506     0.1780     3.1947    80.9600     0.0970     0.6507
  255    5.080   2055.60     0.1369     0.0040     0.1136     0.0508     0.1847     3.0597    81.2800     0.1034     0.6122
  256    5.100   2064.86     0.1436     0.0039     0.1136     0.0510     0.1913     3.0203    81.6000     0.1097     0.5737
  257    5.120   2071.28     0.1423     0.0041     0.1110     0.0512     0.1889     2.8314    81.9200     0.1070     0.5598
  258    5.140   2072.27     0.1403     0.0039     0.1160     0.0514     0.1888     2.8343    82.2400     0.1065     0.6003
  259    5.160   2073.26     0.1375     0.0036     0.1183     0.0516     0.1864     2.5575    82.5600     0.1038     0.6251
  260    5.180   2074.25     0.1378     0.0036     0.1243     0.0518     0.1895     2.6731    82.8800     0.1067     0.6683
  261    5.200   2075.27     0.1420     0.0038     0.1233     0.0520     0.1938     2.7236    83.2000     0.1106     0.6471
  262    5.220   2076.23     0.1448     0.0042     0.1264     0.0522     0.1974     2.9601    83.5200     0.1139     0.6415
  263    5.240   2077.22     0.1487     0.0041     0.1255     0.0524     0.2019     2.8210    83.8400     0.1180     0.6289
  264    5.260   2078.19     0.1500     0.0039     0.1252     0.0526     0.2027     2.5721    84.1600     0.1185     0.6149
  265    5.280   2079.15     0.1495     0.0039     0.1280     0.0528     0.2030     2.6267    84.4800     0.1185     0.6281
  266    5.300   2080.12     0.1517     0.0043     0.1191     0.0530     0.2031     2.8242    84.8000     0.1183     0.5861
  267    5.320   2081.09     0.1480     0.0036     0.1217     0.0532     0.1989     2.4237    85.1200     0.1137     0.5981
  268    5.340   2082.08     0.1475     0.0036     0.1223     0.0534     0.1987     2.4648    85.4400     0.1133     0.6053
  269    5.360   2083.05     0.1565     0.0037     0.1225     0.0536     0.2075     2.3699    85.7600     0.1218     0.5581
  270    5.380   2084.05     0.1591     0.0040     0.1169     0.0538     0.2078     2.4942    86.0800     0.1217     0.5110
  271    5.400   2085.03     0.1566     0.0040     0.1215     0.0540     0.2066     2.5296    86.4000     0.1202     0.5416
  272    5.420   2085.98     0.1458     0.0039     0.1172     0.0542     0.1941     2.6450    86.7200     0.1074     0.5661
  273    5.440   2086.97     0.1467     0.0036     0.1210     0.0544     0.1973     2.4429    87.0400     0.1103     0.5997
  274    5.460   2087.94     0.1471     0.0040     0.1216     0.0546     0.1981     2.6914    87.3600     0.1108     0.6048
  275    5.480   2088.92     0.1391     0.0036     0.1270     0.0548     0.1924     2.5221    87.6800     0.1047     0.6884
  276    5.500   2089.91     0.1436     0.0038     0.1283     0.0550     0.1969     2.6759    88.0000     0.1089     0.6611
  277    5.520   2090.90     0.1441     0.0043     0.1216     0.0552     0.1969     2.9826    88.3200     0.1086     0.6493
  278    5.540   2091.92     0.1525     0.0040     0.1217     0.0554     0.2031     2.6412    88.6400     0.1144     0.5678
  279    5.560   2092.90     0.1434     0.0041     0.1170     0.0556     0.1932     2.7775    88.9600     0.1043     0.6049
  280    5.580   2093.87     0.1502     0.0041     0.1184     0.0558     0.1991     2.7310    89.2800     0.1098     0.5533
  281    5.600   2094.85     0.1459     0.0039     0.1254     0.0560     0.1973     2.6858    89.6000     0.1077     0.6173
  282    5.620   2095.87     0.1410     0.0043     0.1319     0.0562     0.1956     3.0227    89.9200     0.1057     0.6981
  283    5.640   2096.86     0.1462     0.0044     0.1362     0.0564     0.2028     3.0409    90.2400     0.1126     0.6971
  284    5.660   2097.82     0.1499     0.0042     0.1367     0.0566     0.2076     2.7741    90.5600     0.1170     0.6897
  285    5.680   2098.78     0.1539     0.0042     0.1339     0.0568     0.2103     2.7458    90.8800     0.1194     0.6492
  286    5.700   2099.86     0.1584     0.0041     0.1362     0.0570     0.2157     2.6495    91.2000     0.1245     0.6376
  287    5.720   2100.84     0.1543     0.0038     0.1341     0.0572     0.2104     2.4183    91.5200     0.1188     0.6423
  288    5.740   2101.79     0.1499     0.0041     0.1391     0.0574     0.2080     2.6570    91.8400     0.1162     0.6975
  289    5.760   2102.78     0.1488     0.0038     0.1426     0.0576     0.2081     2.5483    92.1600     0.1160     0.7211
  290    5.780   2103.75     0.1541     0.0040     0.1429     0.0578     0.2141     2.5749    92.4800     0.1216     0.7001
  291    5.800   2104.73     0.1588     0.0035     0.1435     0.0580     0.2192     2.2313    92.8000     0.1264     0.6779
  292    5.820   2105.70     0.1699     0.0037     0.1428     0.0582     0.2299     2.1875    93.1200     0.1368     0.6187
  293    5.840   2106.67     0.1713     0.0039     0.1397     0.0584     0.2307     2.2564    93.4400     0.1373     0.6056
  294    5.860   2107.66     0.1769     0.0041     0.1365     0.0586     0.2349     2.3398    93.7600     0.1412     0.5640
  295    5.880   2108.65     0.1820     0.0045     0.1317     0.0588     0.2377     2.4506    94.0800     0.1437     0.5145
  296    5.900   2109.66     0.1787     0.0039     0.1310     0.0590     0.2335     2.1601    94.4000     0.1391     0.5134
  297    5.920   2110.63     0.1812     0.0044     0.1305     0.0592     0.2361     2.3981    94.7200     0.1413     0.5052
  298    5.940   2111.62     0.1759     0.0043     0.1299     0.0594     0.2305     2.4430    95.0400     0.1355     0.5206
  299    5.960   2112.62     0.1762     0.0039     0.1320     0.0596     0.2314     2.2155    95.3600     0.1360     0.5274
  300    5.980   2113.60     0.1752     0.0042     0.1372     0.0598     0.2318     2.4205    95.6800     0.1361     0.5511
  301    6.000   2114.58     0.1763     0.0039     0.1377     0.0600     0.2345     2.2110    96.0000     0.1385     0.5665
  302    6.020   2115.55     0.1728     0.0041     0.1349     0.0602     0.2297     2.3852    96.3200     0.1334     0.5647
  303    6.040   2116.55     0.1757     0.0045     0.1385     0.0604     0.2331     2.5774    96.6400     0.1365     0.5592
  304    6.060   2117.54     0.1770     0.0048     0.1376     0.0606     0.2357     2.7119    96.9600     0.1388     0.5720
  305    6.080   2118.51     0.1755     0.0045     0.1361     0.0608     0.2338     2.4975    97.2800     0.1366     0.5716
  306    6.100   2119.51     0.1768     0.0045     0.1382     0.0610     0.2344     2.5256    97.6000     0.1368     0.5557
  307    6.120   2120.46     0.1760     0.0045     0.1430     0.0612     0.2351     2.5570    97.9200     0.1372     0.5798
  308    6.140   2121.45     0.1689     0.0042     0.1447     0.0614     0.2288     2.4268    98.2400     0.1306     0.6221
  309    6.160   2122.45     0.1643     0.0043     0.1482     0.0616     0.2263     2.6093    98.5600     0.1277     0.6732
  310    6.180   2123.41     0.1669     0.0042     0.1488     0.0618     0.2292     2.5387    98.8800     0.1303     0.6644
  311    6.200   2124.41     0.1707     0.0042     0.1478     0.0620     0.2327     2.4630    99.2000     0.1335     0.6403
  312    6.220   2125.41     0.1756     0.0040     0.1464     0.0622     0.2378     2.3087    99.5200     0.1383     0.6218
  313    6.240   2126.41     0.1727     0.0044     0.1451     0.0624     0.2334     2.5339    99.8400     0.1336     0.6151
  314    6.260   2127.42     0.1770     0.0046     0.1472     0.0626     0.2387     2.5648   100.1600     0.1385     0.6075
  315    6.280   2128.36     0.1878     0.0049     0.1502     0.0628     0.2509     2.6643   100.4800     0.1504     0.5820
  316    6.300   2129.35     0.1965     0.0049     0.1512     0.0630     0.2602     2.5006   100.8000     0.1594     0.5554
  317    6.320   2130.32     0.2022     0.0051     0.1512     0.0632     0.2658     2.4937   101.1200     0.1647     0.5362
  318    6.340   2131.34     0.2107     0.0047     0.1379     0.0634     0.2715     2.2479   101.4400     0.1700     0.4774
  319    6.360   2132.30     0.2220     0.0055     0.1393     0.0636     0.2791     2.4749   101.7600     0.1773     0.4072
  320    6.380   2133.27     0.2148     0.0057     0.1438     0.0638     0.2748     2.6397   102.0800     0.1727     0.4586
  321    6.400   2134.26     0.2114     0.0050     0.1461     0.0640     0.2724     2.3503   102.4000     0.1700     0.4768
  322    6.420   2135.21     0.2131     0.0051     0.1473     0.0642     0.2752     2.3466   102.7200     0.1725     0.4854
  323    6.440   2136.19     0.2037     0.0047     0.1455     0.0644     0.2641     2.3229   103.0400     0.1611     0.4941
  324    6.460   2137.19     0.2018     0.0049     0.1540     0.0646     0.2653     2.4220   103.3600     0.1619     0.5343
  325    6.480   2138.19     0.1996     0.0052     0.1567     0.0648     0.2651     2.5920   103.6800     0.1614     0.5638
  326    6.500   2139.17     0.2015     0.0050     0.1579     0.0650     0.2680     2.5187   104.0000     0.1640     0.5699
  327    6.520   2140.14     0.2060     0.0051     0.1581     0.0652     0.2724     2.4930   104.3200     0.1681     0.5530
  328    6.540   2141.13     0.2057     0.0048     0.1563     0.0654     0.2716     2.3202   104.6400     0.1669     0.5477
  329    6.560   2142.10     0.2039     0.0053     0.1503     0.0656     0.2684     2.6115   104.9600     0.1635     0.5394
  330    6.580   2143.10     0.2101     0.0053     0.1531     0.0658     0.2734     2.4894   105.2800     0.1681     0.5053
  331    6.600   2144.06     0.2053     0.0054     0.1533     0.0660     0.2694     2.6444   105.6000     0.1638     0.5294
  332    6.620   2145.05     0.2039     0.0050     0.1541     0.0662     0.2684     2.4533   105.9200     0.1625     0.5382
  333    6.640   2146.03     0.2026     0.0050     0.1557     0.0664     0.2692     2.4559   106.2400     0.1629     0.5655
  334    6.660   2147.05     0.2001     0.0050     0.1555     0.0666     0.2649     2.4854   106.5600     0.1584     0.5547
  335    6.680   2148.04     0.2076     0.0051     0.1602     0.0668     0.2734     2.4505   106.8800     0.1665     0.5392
  336    6.700   2149.01     0.2074     0.0048     0.1649     0.0670     0.2760     2.2968   107.2000     0.1688     0.5705
  337    6.720   2150.01     0.2100     0.0048     0.1526     0.0672     0.2770     2.2935   107.5200     0.1695     0.5440
  338    6.740   2150.98     0.2028     0.0048     0.1542     0.0674     0.2664     2.3640   107.8400     0.1586     0.5299
  339    6.760   2151.95     0.1980     0.0049     0.1565     0.0676     0.2636     2.4586   108.1600     0.1554     0.5696
  340    6.780   2152.98     0.1859     0.0049     0.1611     0.0678     0.2534     2.6046   108.4800     0.1449     0.6405
  341    6.800   2153.95     0.1848     0.0049     0.1624     0.0680     0.2529     2.6581   108.8000     0.1441     0.6534
  342    6.820   2154.94     0.1907     0.0045     0.1651     0.0682     0.2595     2.3619   109.1200     0.1504     0.6362
  343    6.840   2155.95     0.1932     0.0045     0.1696     0.0684     0.2642     2.3322   109.4400     0.1547     0.6496
  344    6.860   2156.90     0.1977     0.0047     0.1703     0.0686     0.2693     2.3724   109.7600     0.1595     0.6386
  345    6.880   2157.89     0.1951     0.0046     0.1729     0.0688     0.2672     2.3451   110.0800     0.1572     0.6548
  346    6.900   2158.85     0.1972     0.0048     0.1741     0.0690     0.2700     2.4687   110.4000     0.1596     0.6539
  347    6.920   2159.87     0.2079     0.0049     0.1749     0.0692     0.2811     2.4091   110.7200     0.1704     0.6171
  348    6.940   2160.85     0.2084     0.0051     0.1743     0.0694     0.2817     2.5029   111.0400     0.1706     0.6157
  349    6.960   2161.82     0.2157     0.0054     0.1734     0.0696     0.2892     2.5281   111.3600     0.1779     0.5926
  350    6.980   2162.79     0.2184     0.0056     0.1682     0.0698     0.2898     2.5533   111.6800     0.1781     0.5633
  351    7.000   2163.79     0.2246     0.0059     0.1582     0.0700     0.2910     2.6130   112.0000     0.1790     0.4919
  352    7.020   2164.75     0.2312     0.0060     0.1718     0.0702     0.3019     2.6497   112.3200     0.1896     0.5173
  353    7.040   2165.78     0.2372     0.0063     0.1733     0.0704     0.3104     2.6715   112.6400     0.1977     0.5246
  354    7.060   2176.06     0.2437     0.0061     0.1679     0.0706     0.3150     2.5761   112.9600     0.2021     0.4916
  355    7.080   2188.47     0.2500     0.0062     0.1624     0.0708     0.3190     2.6104   113.2800     0.2057     0.4556
  356    7.100   2198.63     0.2517     0.0068     0.1651     0.0710     0.3197     2.6719   113.6000     0.2061     0.4411
  357    7.120   2199.57     0.2442     0.0064     0.1687     0.0712     0.3150     2.6096   113.9200     0.2011     0.4838
  358    7.140   2200.53     0.2423     0.0060     0.1694     0.0714     0.3130     2.4688   114.2400     0.1988     0.4874
  359    7.160   2201.53     0.2394     0.0057     0.1649     0.0716     0.3093     2.3774   114.5600     0.1947     0.4867
  360    7.180   2202.56     0.2327     0.0056     0.1704     0.0718     0.3034     2.4045   114.8800     0.1886     0.5124
  361    7.200   2203.53     0.2285     0.0060     0.1700     0.0720     0.2993     2.6090   115.2000     0.1841     0.5247
  362    7.220   2204.53     0.2247     0.0057     0.1718     0.0722     0.2970     2.5256   115.5200     0.1815     0.5517
  363    7.240   2205.48     0.2242     0.0056     0.1711     0.0724     0.2954     2.5064   115.8400     0.1795     0.5399
  364    7.260   2206.47     0.2251     0.0058     0.1790     0.0726     0.2994     2.5487   116.1600     0.1833     0.5688
  365    7.280   2207.47     0.2262     0.0058     0.1819     0.0728     0.3017     2.5615   116.4800     0.1852     0.5781
  366    7.300   2208.42     0.2236     0.0056     0.1873     0.0730     0.3018     2.4658   116.8000     0.1850     0.6122
  367    7.320   2209.42     0.2310     0.0061     0.1812     0.0732     0.3080     2.6562   117.1200     0.1909     0.5777
  368    7.340   2210.39     0.2300     0.0058     0.1818     0.0734     0.3065     2.5165   117.4400     0.1890     0.5751
  369    7.360   2211.36     0.2281     0.0058     0.1770     0.0736     0.3030     2.5433   117.7600     0.1852     0.5654
  370    7.380   2212.40     0.2231     0.0055     0.1809     0.0738     0.2975     2.4377   118.0800     0.1794     0.5757
  371    7.400   2213.35     0.2285     0.0056     0.1904     0.0740     0.3076     2.4424   118.4000     0.1892     0.6040
  372    7.420   2214.33     0.2333     0.0056     0.1951     0.0742     0.3146     2.4059   118.7200     0.1959     0.6089
  373    7.440   2215.33     0.2368     0.0060     0.1957     0.0744     0.3188     2.5253   119.0400     0.1997     0.6051
  374    7.460   2216.28     0.2375     0.0058     0.1969     0.0746     0.3209     2.4389   119.3600     0.2016     0.6156
  375    7.480   2217.27     0.2461     0.0057     0.1858     0.0748     0.3252     2.3491   119.6800     0.2056     0.5534
  376    7.500   2218.24     0.2481     0.0060     0.1877     0.0750     0.3260     2.4049   120.0000     0.2060     0.5354
  377    7.520   2219.23     0.2429     0.0060     0.1947     0.0752     0.3238     2.4659   120.3200     0.2035     0.5774
  378    7.540   2220.10     0.2408     0.0057     0.1901     0.0754     0.3210     2.3607   120.6400     0.2004     0.5770
  379    7.560   2220.97     0.2414     0.0055     0.1961     0.0756     0.3236     2.2788   120.9600     0.2026     0.5933
  380    7.580   2221.98     0.2474     0.0057     0.2017     0.0758     0.3313     2.2948   121.2800     0.2100     0.5902
  381    7.600   2222.95     0.2413     0.0060     0.2061     0.0760     0.3277     2.4650   121.6000     0.2061     0.6296
  382    7.620   2223.93     0.2503     0.0057     0.2065     0.0762     0.3367     2.2631   121.9200     0.2147     0.6023
  383    7.640   2224.94     0.2582     0.0055     0.2053     0.0764     0.3443     2.1443   122.2400     0.2221     0.5795
  384    7.660   2225.94     0.2552     0.0059     0.2024     0.0766     0.3392     2.3164   122.5600     0.2166     0.5695
  385    7.680   2226.95     0.2529     0.0060     0.2104     0.0768     0.3395     2.3631   122.8800     0.2167     0.5974
  386    7.700   2227.94     0.2543     0.0056     0.2136     0.0770     0.3443     2.1781   123.2000     0.2211     0.6206
  387    7.720   2228.94     0.2731     0.0057     0.2120     0.0772     0.3626     2.1373   123.5200     0.2390     0.5684
  388    7.740   2229.96     0.2909     0.0054     0.1967     0.0774     0.3733     1.8801   123.8400     0.2494     0.4757
  389    7.760   2230.95     0.2736     0.0056     0.2001     0.0776     0.3554     2.0110   124.1600     0.2312     0.5059
  390    7.780   2231.87     0.2619     0.0055     0.2024     0.0778     0.3473     2.1069   124.4800     0.2228     0.5637
  391    7.800   2232.73     0.2688     0.0055     0.1986     0.0780     0.3525     2.0446   124.8000     0.2277     0.5332
  392    7.820   2233.53     0.2598     0.0056     0.2045     0.0782     0.3467     2.1169   125.1200     0.2216     0.5806
  393    7.840   2234.36     0.2674     0.0060     0.2007     0.0784     0.3518     2.2372   125.4400     0.2263     0.5415
  394    7.860   2235.33     0.2755     0.0067     0.1993     0.0786     0.3594     2.4463   125.7600     0.2337     0.5190
  395    7.880   2236.31     0.2835     0.0065     0.1868     0.0788     0.3640     2.3343   126.0800     0.2379     0.4741
  396    7.900   2237.34     0.2907     0.0065     0.1805     0.0790     0.3670     2.2206   126.4000     0.2406     0.4263
  397    7.920   2238.31     0.2891     0.0065     0.1776     0.0792     0.3642     2.2368   126.7200     0.2375     0.4196
  398    7.940   2239.28     0.2715     0.0066     0.1808     0.0794     0.3467     2.4347   127.0400     0.2197     0.4540
  399    7.960   2240.25     0.2567     0.0068     0.1854     0.0796     0.3337     2.6340   127.3600     0.2063     0.5029
  400    7.980   2241.25     0.2408     0.0061     0.1920     0.0798     0.3204     2.5169   127.6800     0.1928     0.5696
  401    8.000   2242.21     0.2327     0.0063     0.1968     0.0800     0.3150     2.6707   128.0000     0.1870     0.6201
  402    8.020   2243.20     0.2279     0.0062     0.2033     0.0802     0.3114     2.6942   128.3200     0.1831     0.6478
  403    8.040   2244.20     0.2254     0.0057     0.2044     0.0804     0.3111     2.4920   128.6400     0.1825     0.6773
  404    8.060   2245.20     0.2207     0.0052     0.2069     0.0806     0.3071     2.3073   128.9600     0.1781     0.7022
  405    8.080   2246.16     0.2223     0.0050     0.2090     0.0808     0.3098     2.2604   129.2800     0.1806     0.7075
  406    8.100   2247.16     0.2190     0.0057     0.2116     0.0810     0.3075     2.6248   129.6000     0.1779     0.7286
  407    8.120   2248.15     0.2197     0.0051     0.2158     0.0812     0.3100     2.3359   129.9200     0.1801     0.7423
  408    8.140   2249.15     0.2224     0.0055     0.2156     0.0814     0.3124     2.4847   130.2400     0.1822     0.7296
  409    8.160   2250.12     0.2248     0.0052     0.2177     0.0816     0.3161     2.3173   130.5600     0.1856     0.7327
  410    8.180   2251.11     0.2283     0.0055     0.2153     0.0818     0.3194     2.4118   130.8800     0.1885     0.7162
  411    8.200   2252.06     0.2258     0.0056     0.2219     0.0820     0.3184     2.4372   131.2000     0.1872     0.7404
  412    8.220   2253.05     0.2192     0.0056     0.2204     0.0822     0.3117     2.5538   131.5200     0.1802     0.7661
  413    8.240   2254.06     0.2225     0.0053     0.2239     0.0824     0.3165     2.3952   131.8400     0.1847     0.7657
  414    8.260   2255.06     0.2247     0.0055     0.2267     0.0826     0.3202     2.4479   132.1600     0.1880     0.7695
  415    8.280   2256.01     0.2265     0.0050     0.2316     0.0828     0.3235     2.1879   132.4800     0.1910     0.7754
  416    8.300   2257.01     0.2305     0.0050     0.2300     0.0830     0.3276     2.1926   132.8000     0.1948     0.7606
  417    8.320   2258.01     0.2408     0.0047     0.2291     0.0832     0.3362     1.9819   133.1200     0.2031     0.7088
  418    8.340   2259.01     0.2532     0.0050     0.2311     0.0834     0.3499     2.0204   133.4400     0.2165     0.6787
  419    8.360   2259.96     0.2527     0.0057     0.2214     0.0836     0.3480     2.2408   133.7600     0.2143     0.6694
  420    8.380   2260.91     0.2545     0.0056     0.2160     0.0838     0.3467     2.2090   134.0800     0.2126     0.6378
  421    8.400   2261.87     0.2527     0.0055     0.2159     0.0840     0.3430     2.1673   134.4000     0.2086     0.6274
  422    8.420   2262.86     0.2532     0.0049     0.2183     0.0842     0.3445     1.9450   134.7200     0.2098     0.6356
  423    8.440   2263.87     0.2530     0.0048     0.2163     0.0844     0.3446     1.9062   135.0400     0.2096     0.6386
  424    8.460   2264.86     0.2830     0.0064     0.2134     0.0846     0.3723     2.2911   135.3600     0.2369     0.5404
  425    8.480   2265.88     0.3391     0.0071     0.2075     0.0848     0.4280     2.2125   135.6800     0.2924     0.4358
  426    8.500   2266.80     0.4144     0.0078     0.1930     0.0850     0.4978     1.9902   136.0000     0.3618     0.3161
  427    8.520   2267.79     0.4553     0.0084     0.0677     0.0852     0.5028     1.8503   136.3200     0.3664     0.0672
  428    8.540   2268.78     0.4380     0.0077     0.0937     0.0854     0.4726     1.7314   136.6400     0.3360    -0.0089
  429    8.560   2269.78     0.3744     0.0079     0.1251     0.0856     0.4233     2.0393   136.9600     0.2864     0.1093
  430    8.580   2270.79     0.3399     0.0077     0.1495     0.0858     0.3990     2.1589   137.2800     0.2618     0.2105
  431    8.600   2271.74     0.3249     0.0082     0.1688     0.0860     0.3934     2.3865   137.6000     0.2558     0.3012
  432    8.620   2272.73     0.3288     0.0087     0.1767     0.0862     0.4025     2.6141   137.9200     0.2646     0.3371
  433    8.640   2273.69     0.3320     0.0091     0.1742     0.0864     0.4055     2.7583   138.2400     0.2673     0.3316
  434    8.660   2274.67     0.3297     0.0091     0.1781     0.0866     0.4060     2.7278   138.5600     0.2674     0.3554
  435    8.680   2280.51     0.3190     0.0086     0.1778     0.0868     0.3937     2.6934   138.8800     0.2548     0.3579
  436    8.700   2301.95     0.3273     0.0083     0.1772     0.0870     0.4018     2.6234   139.2000     0.2626     0.3452
  437    8.720   2323.39     0.3356     0.0081     0.1767     0.0872     0.4099     2.5409   139.5200     0.2704     0.3325
  438    8.740   2344.84     0.3439     0.0079     0.1790     0.0874     0.4180     2.3899   139.8400     0.2782     0.3199
  439    8.760   2348.99     0.3633     0.0080     0.1843     0.0876     0.4424     2.2371   140.1600     0.3022     0.3335
  440    8.780   2349.61     0.3767     0.0082     0.1605     0.0878     0.4490     2.1995   140.4800     0.3085     0.2740
  441    8.800   2350.25     0.3890     0.0085     0.1619     0.0880     0.4551     2.1734   140.8000     0.3143     0.2213
  442    8.820   2350.86     0.3763     0.0091     0.1691     0.0882     0.4466     2.4293   141.1200     0.3054     0.2594
  443    8.840   2351.50     0.3511     0.0091     0.1734     0.0884     0.4226     2.4804   141.4400     0.2811     0.2910
  444    8.860   2352.13     0.3232     0.0088     0.1815     0.0886     0.3984     2.7262   141.7600     0.2567     0.3523
  445    8.880   2352.76     0.3201     0.0087     0.1915     0.0888     0.3989     2.7311   142.0800     0.2568     0.3845
  446    8.900   2353.43     0.3302     0.0081     0.2062     0.0890     0.4149     2.4553   142.4000     0.2725     0.4130
  447    8.920   2354.07     0.3211     0.0081     0.2136     0.0892     0.4106     2.5035   142.7200     0.2679     0.4627
  448    8.940   2354.76     0.3291     0.0085     0.2155     0.0894     0.4194     2.6969   143.0400     0.2764     0.4552
  449    8.960   2355.39     0.3588     0.0098     0.2094     0.0896     0.4476     2.9076   143.3600     0.3042     0.4007
  450    8.980   2355.99     0.3895     0.0113     0.2077     0.0898     0.4761     2.9466   143.6800     0.3324     0.3504
  451    9.000   2356.64     0.4456     0.0117     0.1956     0.0900     0.5311     2.6712   144.0000     0.3871     0.2945
  452    9.020   2367.83     0.4871     0.0129     0.1903     0.0902     0.5702     2.6176   144.3200     0.4258     0.2513
  453    9.040   2393.01     0.4668     0.0133     0.1682     0.0904     0.5406     2.6859   144.6400     0.3960     0.2141
  454    9.060   2404.07     0.4202     0.0121     0.1861     0.0906     0.4961     2.8670   144.9600     0.3511     0.2564
  455    9.080   2405.08     0.3618     0.0115     0.1963     0.0908     0.4436     3.1260   145.2800     0.2984     0.3490
  456    9.100   2406.07     0.3581     0.0108     0.1867     0.0910     0.4371     3.0293   145.6000     0.2915     0.3334
  457    9.120   2407.04     0.3701     0.0100     0.2124     0.0912     0.4565     2.7003   145.9200     0.3106     0.3686
  458    9.140   2408.04     0.3962     0.0104     0.2378     0.0914     0.4935     2.6435   146.2400     0.3472     0.4041
  459    9.160   2409.06     0.4444     0.0111     0.2409     0.0916     0.5476     2.5361   146.5600     0.4010     0.3843
  460    9.180   2410.09     0.4883     0.0106     0.2228     0.0918     0.5840     2.2021   146.8800     0.4371     0.3112
  461    9.200   2411.08     0.5080     0.0106     0.2100     0.0920     0.5985     2.0873   147.2000     0.4513     0.2737
  462    9.220   2412.07     0.5091     0.0120     0.2157     0.0922     0.5984     2.3379   147.5200     0.4509     0.2674
  463    9.240   2413.04     0.5019     0.0122     0.2229     0.0924     0.5943     2.4319   147.8400     0.4465     0.2857
  464    9.260   2414.01     0.4916     0.0117     0.2285     0.0926     0.5883     2.3723   148.1600     0.4401     0.3127
  465    9.280   2415.01     0.4574     0.0112     0.2269     0.0928     0.5556     2.4381   148.4800     0.4071     0.3462
  466    9.300   2415.97     0.4569     0.0120     0.2230     0.0930     0.5500     2.6395   148.8000     0.4012     0.3206
  467    9.320   2417.02     0.4604     0.0123     0.2449     0.0932     0.5605     2.6693   149.1200     0.4114     0.3530
  468    9.340   2418.03     0.4572     0.0122     0.2562     0.0934     0.5629     2.6691   149.4400     0.4134     0.3824
  469    9.360   2419.01     0.4563     0.0125     0.2609     0.0936     0.5663     2.7401   149.7600     0.4165     0.4041
  470    9.380   2420.01     0.4686     0.0118     0.2598     0.0938     0.5765     2.5523   150.0800     0.4264     0.3826
  471    9.400   2420.99     0.4919     0.0120     0.2530     0.0940     0.6028     2.4630   150.4000     0.4524     0.3759
  472    9.420   2421.98     0.5034     0.0133     0.2404     0.0942     0.6048     2.6710   150.7200     0.4541     0.3245
  473    9.440   2422.97     0.5337     0.0140     0.2528     0.0944     0.6378     2.6414   151.0400     0.4867     0.3153
  474    9.460   2423.98     0.4845     0.0136     0.2543     0.0946     0.5905     2.7608   151.3600     0.4392     0.3594
  475    9.480   2424.93     0.4839     0.0125     0.2289     0.0948     0.5901     2.6004   151.6800     0.4384     0.3606
  476    9.500   2425.91     0.5724     0.0126     0.2200     0.0950     0.6610     2.2344   152.0000     0.5090     0.2283
  477    9.520   2426.97     0.5935     0.0130     0.2532     0.0952     0.6957     2.1897   152.3200     0.5434     0.2724
  478    9.540   2427.96     0.6151     0.0136     0.2705     0.0954     0.7254     2.2155   152.6400     0.5728     0.2921
  479    9.560   2428.93     0.5719     0.0152     0.2537     0.0956     0.6847     2.6187   152.9600     0.5317     0.3254
  480    9.580   2429.93     0.5819     0.0154     0.2349     0.0958     0.6790     2.6696   153.2800     0.5258     0.2578
  481    9.600   2430.92     0.6125     0.0141     0.2619     0.0960     0.7211     2.3113   153.6000     0.5675     0.2864
  482    9.620   2431.94     0.6174     0.0124     0.2561     0.0962     0.7265     2.0044   153.9200     0.5726     0.2856
  483    9.640   2432.92     0.6269     0.0111     0.2695     0.0964     0.7364     1.7686   154.2400     0.5822     0.2824
  484    9.660   2433.90     0.5531     0.0110     0.2996     0.0966     0.6773     1.9480   154.5600     0.5227     0.3818
  485    9.680   2434.88     0.5631     0.0109     0.2783     0.0968     0.6845     1.9259   154.8800     0.5296     0.3627
  486    9.700   2435.89     0.4718     0.0095     0.2148     0.0970     0.5725     1.9417   155.2000     0.4173     0.3413
  487    9.720   2436.88     0.4534     0.0102     0.1630     0.0972     0.5278     2.2487   155.5200     0.3723     0.2143
  488    9.740   2437.85     0.4379     0.0120     0.1461     0.0974     0.4997     2.7412   155.8400     0.3439     0.1446
  489    9.760   2438.88     0.4046     0.0140     0.1121     0.0976     0.4573     3.3700   156.1600     0.3011     0.0912
  490    9.780   2439.88     0.3945     0.0137     0.0909     0.0978     0.4332     3.4266   156.4800     0.2767    -0.0209
  491    9.800   2440.89     0.3817     0.0133     0.1007     0.0980     0.4235     3.4552   156.8000     0.2667     0.0057
  492    9.820   2441.86     0.4815     0.0143     0.1296     0.0982     0.5291     3.1318   157.1200     0.3719     0.0389
  493    9.840   2442.84     0.5760     0.0145     0.1871     0.0984     0.6448     2.5590   157.4400     0.4873     0.1333
  494    9.860   2443.78     0.5062     0.0147     0.2280     0.0986     0.5992     2.8529   157.7600     0.4414     0.2802
  495    9.880   2444.79     0.4726     0.0148     0.2260     0.0988     0.5676     3.1240   158.0800     0.4096     0.3110
  496    9.900   2445.77     0.4801     0.0135     0.2424     0.0990     0.5790     2.8013   158.4000     0.4206     0.3242
  497    9.920   2446.80     0.5246     0.0111     0.2647     0.0992     0.6343     2.2037   158.7200     0.4755     0.3414
  498    9.940   2447.80     0.6929     0.0096     0.3019     0.0994     0.8137     1.4830   159.0400     0.6547     0.2878
  499    9.960   2448.80     0.7377     0.0101     0.2988     0.0996     0.8628     1.3740   159.3600     0.7034     0.2819
  500    9.980   2449.77     0.6741     0.0092     0.3002     0.0998     0.8041     1.3379   159.6800     0.6445     0.3261
  501   10.000   2450.76     0.5763     0.0103     0.2439     0.1000     0.6859     1.7625   160.0000     0.5259     0.3052
  502   10.020   2451.73     0.5194     0.0117     0.1614     0.1002     0.6023     2.2407   160.3200     0.4420     0.2171
  503   10.040   2452.71     0.4907     0.0125     0.1221     0.1004     0.5418     2.5312   160.6400     0.3812     0.0559
  504   10.060   2453.71     0.4577     0.0135     0.1139     0.1006     0.5077     2.9249   160.9600     0.3467     0.0525
  505   10.080   2454.76     0.4284     0.0143     0.1185     0.1008     0.4786     3.3862   161.2800     0.3173     0.0593
  506   10.100   2455.75     0.5036     0.0153     0.1258     0.1010     0.5536     3.1626   161.6000     0.3920     0.0460
  507   10.120   2456.75     0.6048     0.0143     0.1536     0.1012     0.6654     2.4041   161.9200     0.5035     0.0855
  508   10.140   2457.75     0.6695     0.0135     0.1949     0.1014     0.7477     2.0433   162.2400     0.5855     0.1442
  509   10.160   2458.71     0.7376     0.0137     0.2243     0.1016     0.8240     1.8538   162.5600     0.6614     0.1569
  510   10.180   2459.68     0.7698     0.0139     0.2495     0.1018     0.8686     1.8130   162.8800     0.7057     0.1890
  511   10.200   2460.73     0.7673     0.0133     0.2930     0.1020     0.8871     1.6934   163.2000     0.7239     0.2541
  512   10.220   2461.74     0.6545     0.0145     0.2432     0.1022     0.7653     2.1314   163.5200     0.6017     0.2681
  513   10.240   2462.75     0.5767     0.0149     0.1964     0.1024     0.6639     2.5524   163.8400     0.5000     0.2102
  514   10.260   2463.74     0.5503     0.0144     0.1838     0.1026     0.6283     2.6029   164.1600     0.4641     0.1787
  515   10.280   2464.75     0.5188     0.0152     0.1713     0.1028     0.5931     2.8917   164.4800     0.4286     0.1726
  516   10.300   2465.70     0.4792     0.0160     0.1614     0.1030     0.5476     3.3181   164.8000     0.3828     0.1566
  517   10.320   2466.68     0.4373     0.0156     0.1910     0.1032     0.5158     3.5518   165.1200     0.3507     0.2385
  518   10.340   2467.67     0.4220     0.0155     0.2055     0.1034     0.5072     3.6926   165.4400     0.3418     0.2913
  519   10.360   2468.71     0.3753     0.0146     0.1998     0.1036     0.4598     3.7815   165.7600     0.2941     0.3322
  520   10.380   2469.67     0.3918     0.0141     0.2595     0.1038     0.4914     3.5739   166.0800     0.3253     0.4094
  521   10.400   2470.66     0.4271     0.0126     0.2605     0.1040     0.5368     3.1461   166.4000     0.3704     0.4285
  522   10.420   2471.65     0.5384     0.0112     0.2244     0.1042     0.6377     2.1782   166.7200     0.4710     0.2840
  523   10.440   2472.62     0.6245     0.0123     0.2274     0.1044     0.7136     2.0146   167.0400     0.5466     0.1972
  524   10.460   2473.58     0.7225     0.0136     0.2830     0.1046     0.8367     1.8694   167.3600     0.6693     0.2501
  525   10.480   2474.65     0.6121     0.0144     0.1977     0.1048     0.7162     2.2762   167.6800     0.5486     0.2570
  526   10.500   2475.64     0.5260     0.0141     0.1590     0.1050     0.5947     2.7004   168.0000     0.4267     0.1375
  527   10.520   2476.62     0.5758     0.0137     0.1407     0.1052     0.6327     2.3982   168.3200     0.4643     0.0650
  528   10.540   2477.66     0.6321     0.0127     0.1945     0.1054     0.7063     2.0192   168.6400     0.5376     0.1322
  529   10.560   2478.61     0.6765     0.0131     0.2081     0.1056     0.7605     1.9556   168.9600     0.5915     0.1595
  530   10.580   2479.61     0.6969     0.0136     0.2467     0.1058     0.7972     1.9279   169.2800     0.6279     0.2120
  531   10.600   2480.62     0.6165     0.0126     0.1906     0.1060     0.7101     2.0389   169.6000     0.5405     0.2156
  532   10.620   2481.61     0.6016     0.0130     0.1526     0.1062     0.6706     2.1497   169.9200     0.5007     0.1158
  533   10.640   2482.66     0.5758     0.0140     0.1143     0.1064     0.6275     2.4846   170.2400     0.4573     0.0372
  534   10.660   2483.66     0.6136     0.0150     0.1505     0.1066     0.6757     2.4091   170.5600     0.5051     0.0821
  535   10.680   2484.63     0.6114     0.0161     0.1721     0.1068     0.6754     2.6618   170.8800     0.5045     0.0895
  536   10.700   2485.62     0.5888     0.0174     0.1289     0.1070     0.6532     3.0643   171.2000     0.4820     0.0983
  537   10.720   2486.60     0.6998     0.0178     0.1760     0.1072     0.7696     2.5716   171.5200     0.5980     0.0982
  538   10.740   2487.58     0.7208     0.0191     0.2084     0.1074     0.8045     2.6671   171.8400     0.6327     0.1452
  539   10.760   2488.62     0.7914     0.0202     0.2773     0.1076     0.8949     2.5888   172.1600     0.7227     0.1915
  540   10.780   2489.61     0.7950     0.0207     0.3156     0.1078     0.9229     2.5983   172.4800     0.7504     0.2620
  541   10.800   2490.61     0.7941     0.0204     0.3670     0.1080     0.9427     2.5713   172.8000     0.7699     0.3190
  542   10.820   2491.59     0.8101     0.0206     0.4050     0.1082     0.9754     2.5451   173.1200     0.8023     0.3557
  543   10.840   2492.56     0.8112     0.0213     0.4268     0.1084     0.9877     2.6177   173.4400     0.8143     0.3831
  544   10.860   2493.51     0.8278     0.0226     0.4525     0.1086     1.0149     2.7602   173.7600     0.8411     0.4005
  545   10.880   2494.57     0.8259     0.0234     0.4745     0.1088     1.0215     2.8282   174.0800     0.8474     0.4211
  546   10.900   2495.60     0.8394     0.0225     0.4966     0.1090     1.0444     2.6910   174.4000     0.8700     0.4358
  547   10.920   2496.57     0.8514     0.0207     0.5056     0.1092     1.0623     2.4311   174.7200     0.8876     0.4426
  548   10.940   2502.87     0.8591     0.0192     0.5131     0.1094     1.0736     2.2468   175.0400     0.8986     0.4467
  549   10.960   2518.08     0.8679     0.0186     0.5203     0.1096     1.0853     2.1711   175.3600     0.9099     0.4483
  550   10.980   2523.63     0.8428     0.0200     0.5366     0.1098     1.0676     2.3725   175.6800     0.8919     0.4770
  551   11.000   2524.55     0.8196     0.0183     0.5207     0.1100     1.0389     2.2260   176.0000     0.8629     0.4776
  552   11.020   2525.57     0.7328     0.0160     0.4632     0.1102     0.9390     2.1391   176.3200     0.7627     0.4992
  553   11.040   2526.55     0.7151     0.0152     0.4521     0.1104     0.9057     2.1444   176.6400     0.7291     0.4710
  554   11.060   2527.59     0.7458     0.0130     0.4641     0.1106     0.9383     1.7496   176.9600     0.7613     0.4565
  555   11.080   2528.61     0.7351     0.0130     0.4728     0.1108     0.9321     1.7359   177.2800     0.7549     0.4754
  556   11.100   2529.59     0.6643     0.0136     0.4408     0.1110     0.8533     2.0548   177.6000     0.6757     0.5018
  557   11.120   2530.60     0.7069     0.0138     0.4045     0.1112     0.8824     1.9611   177.9200     0.7045     0.4355
  558   11.140   2531.54     0.7057     0.0138     0.3864     0.1114     0.8726     1.9546   178.2400     0.6943     0.4117
  559   11.160   2532.53     0.6468     0.0135     0.3231     0.1116     0.7948     2.0427   178.5600     0.6162     0.3905
  560   11.180   2533.50     0.6258     0.0141     0.2732     0.1118     0.7394     2.2485   178.8800     0.5605     0.2830
  561   11.200   2534.54     0.6503     0.0157     0.2638     0.1120     0.7649     2.4153   179.2000     0.5857     0.2747
  562   11.220   2535.55     0.7024     0.0189     0.3020     0.1122     0.8242     2.7208   179.5200     0.6447     0.2755
  563   11.240   2536.58     0.7756     0.0196     0.3135     0.1124     0.9117     2.5997   179.8400     0.7319     0.2894
  564   11.260   2537.53     0.8277     0.0207     0.3189     0.1126     0.9617     2.5229   180.1600     0.7815     0.2641
  565   11.280   2538.50     0.8661     0.0225     0.3290     0.1128     1.0055     2.6077   180.4800     0.8250     0.2655
  566   11.300   2539.48     0.8219     0.0232     0.3663     0.1130     0.9650     2.8012   180.8000     0.7842     0.2901
  567   11.320   2540.54     0.8131     0.0235     0.4295     0.1132     0.9861     2.8699   181.1200     0.8050     0.3710
  568   11.340   2541.53     0.8271     0.0215     0.4683     0.1134     1.0182     2.6059   181.4400     0.8367     0.4081
  569   11.360   2542.50     0.8322     0.0184     0.5121     0.1136     1.0428     2.2062   181.7600     0.8610     0.4505
  570   11.380   2543.48     0.8331     0.0178     0.5446     0.1138     1.0584     2.1369   182.0800     0.8763     0.4823
  571   11.400   2544.44     0.8160     0.0184     0.5657     0.1140     1.0522     2.2537   182.4000     0.8698     0.5155
  572   11.420   2545.44     0.8029     0.0181     0.5444     0.1142     1.0380     2.2556   182.7200     0.8553     0.5210
  573   11.440   2546.42     0.7850     0.0175     0.4666     0.1144     0.9909     2.2191   183.0400     0.8079     0.4651
  574   11.460   2547.43     0.7852     0.0165     0.3830     0.1146     0.9542     2.1101   183.3600     0.7709     0.3731
  575   11.480   2548.48     0.8256     0.0187     0.3840     0.1148     0.9828     2.2748   183.6800     0.7992     0.3249
  576   11.500   2549.44     0.9887     0.0225     0.4259     0.1150     1.1619     2.3491   184.0000     0.9779     0.3044
  577   11.520   2550.42     1.1522     0.0247     0.4321     0.1152     1.3378     2.1809   184.3200     1.1535     0.2832
  578   11.540   2551.35     1.1512     0.0257     0.4026     0.1154     1.3213     2.2335   184.6400     1.1366     0.2547
  579   11.560   2552.38     1.1282     0.0274     0.3672     0.1156     1.3022     2.4230   184.9600     1.1173     0.2675
  580   11.580   2553.36     1.1170     0.0280     0.3182     0.1158     1.2481     2.5061   185.2800     1.0628     0.1847
  581   11.600   2554.43     1.0392     0.0274     0.3041     0.1160     1.1590     2.5773   185.6000     0.9734     0.1737
  582   11.620   2555.43     0.9758     0.0248     0.3613     0.1162     1.1207     2.5260   185.9200     0.9348     0.2449
  583   11.640   2556.40     0.9355     0.0218     0.4028     0.1164     1.0993     2.3230   186.2400     0.9130     0.2998
  584   11.660   2557.38     0.8919     0.0219     0.4530     0.1166     1.0749     2.4354   186.5600     0.8883     0.3593
  585   11.680   2558.35     0.8581     0.0211     0.5002     0.1168     1.0609     2.4600   186.8800     0.8740     0.4189
  586   11.700   2559.38     0.8647     0.0212     0.5396     0.1170     1.0865     2.4545   187.2000     0.8993     0.4573
  587   11.720   2560.41     0.8725     0.0207     0.5671     0.1172     1.1070     2.3801   187.5200     0.9194     0.4796
  588   11.740   2561.43     0.8742     0.0210     0.5820     0.1174     1.1170     2.3930   187.8400     0.9292     0.4960
  589   11.760   2562.43     0.8776     0.0199     0.5886     0.1176     1.1255     2.2642   188.1600     0.9373     0.5042
  590   11.780   2563.39     0.8907     0.0181     0.5693     0.1178     1.1370     2.0302   188.4800     0.9485     0.4940
  591   11.800   2564.38     0.8943     0.0223     0.5864     0.1180     1.1355     2.4935   188.8000     0.9467     0.4820
  592   11.820   2565.32     0.9326     0.0255     0.6159     0.1182     1.1864     2.7492   189.1200     0.9973     0.4876
  593   11.840   2566.35     1.0550     0.0267     0.6549     0.1184     1.3255     2.5720   189.4400     1.1361     0.4630
  594   11.860   2567.33     1.2713     0.0276     0.4975     0.1186     1.5360     2.2308   189.7600     1.3462     0.3811
  595   11.880   2568.36     1.1794     0.0284     0.2457     0.1188     1.2856     2.3728   190.0800     1.0955     0.1212
  596   11.900   2569.37     1.0723     0.0300     0.3143     0.1190     1.1916     2.7469   190.4000     1.0012     0.1653
  597   11.920   2570.37     0.9691     0.0306     0.3886     0.1192     1.1263     3.1148   190.7200     0.9356     0.2730
  598   11.940   2571.36     0.9134     0.0241     0.4283     0.1194     1.0874     2.6190   191.0400     0.8963     0.3289
  599   11.960   2572.37     0.8985     0.0195     0.4543     0.1196     1.0858     2.1657   191.3600     0.8944     0.3648
  600   11.980   2573.29     0.9033     0.0204     0.4910     0.1198     1.1040     2.2547   191.6800     0.9123     0.3923
  601   12.000   2574.31     0.9164     0.0218     0.5259     0.1200     1.1322     2.3815   192.0000     0.9402     0.4189
  602   12.020   2575.36     0.9369     0.0225     0.5413     0.1202     1.1634     2.4097   192.3200     0.9711     0.4315
  603   12.040   2576.33     0.9773     0.0226     0.5363     0.1204     1.2045     2.3252   192.6400     1.0118     0.4157
  604   12.060   2577.31     0.9982     0.0228     0.4961     0.1206     1.2138     2.2826   192.9600     1.0209     0.3847
  605   12.080   2578.32     0.9216     0.0230     0.4473     0.1208     1.1090     2.4817   193.2800     0.9157     0.3549
  606   12.100   2579.37     0.8884     0.0237     0.4975     0.1210     1.0922     2.6613   193.6000     0.8986     0.4054
  607   12.120   2580.34     0.8755     0.0212     0.5295     0.1212     1.0939     2.4087   193.9200     0.8999     0.4431
  608   12.140   2581.33     0.8779     0.0196     0.5450     0.1214     1.1047     2.2382   194.2400     0.9105     0.4599
  609   12.160   2582.33     0.8956     0.0192     0.5610     0.1216     1.1294     2.1393   194.5600     0.9348     0.4652
  610   12.180   2583.34     0.8966     0.0195     0.5752     0.1218     1.1358     2.1821   194.8800     0.9409     0.4757
  611   12.200   2584.36     0.9022     0.0200     0.5876     0.1220     1.1464     2.2157   195.2000     0.9512     0.4831
  612   12.220   2585.36     0.9158     0.0199     0.6046     0.1222     1.1691     2.1776   195.5200     0.9736     0.4938
  613   12.240   2586.33     0.9115     0.0204     0.6164     0.1224     1.1674     2.2344   195.8400     0.9716     0.5013
  614   12.260   2587.34     0.9030     0.0211     0.6236     0.1226     1.1646     2.3340   196.1600     0.9685     0.5166
  615   12.280   2588.28     0.8991     0.0206     0.6286     0.1228     1.1627     2.2873   196.4800     0.9662     0.5223
  616   12.300   2589.31     0.8790     0.0206     0.6298     0.1230     1.1428     2.3465   196.8000     0.9460     0.5340
  617   12.320   2590.30     0.8770     0.0211     0.6331     0.1232     1.1425     2.4146   197.1200     0.9454     0.5383
  618   12.340   2591.36     0.8875     0.0212     0.6362     0.1234     1.1543     2.3853   197.4400     0.9568     0.5349
  619   12.360   2592.34     0.8773     0.0206     0.6388     0.1236     1.1451     2.3426   197.7600     0.9474     0.5425
  620   12.380   2593.32     0.8756     0.0205     0.6397     0.1238     1.1443     2.3439   198.0800     0.9463     0.5453
  621   12.400   2594.28     0.8791     0.0203     0.6485     0.1240     1.1499     2.3075   198.4000     0.9515     0.5473
  622   12.420   2595.26     0.8743     0.0205     0.6545     0.1242     1.1485     2.3424   198.7200     0.9497     0.5566
  623   12.440   2596.26     0.8983     0.0211     0.6651     0.1244     1.1755     2.3506   199.0400     0.9764     0.5485
  624   12.460   2597.29     0.9138     0.0208     0.6818     0.1246     1.1975     2.2723   199.3600     0.9982     0.5519
  625   12.480   2598.31     0.9177     0.0215     0.6864     0.1248     1.2053     2.3579   199.6800     1.0056     0.5569
  626   12.500   2599.31     0.9363     0.0213     0.6875     0.1250     1.2262     2.2783   200.0000     1.0262     0.5507
  627   12.520   2600.32     0.9154     0.0217     0.6765     0.1252     1.2011     2.3481   200.3200     1.0008     0.5547
  628   12.540   2601.29     0.8811     0.0215     0.6669     0.1254     1.1619     2.4297   200.6400     0.9613     0.5651
  629   12.560   2602.26     0.8780     0.0217     0.6736     0.1256     1.1598     2.4697   200.9600     0.9589     0.5689
  630   12.580   2603.28     0.8700     0.0219     0.6717     0.1258     1.1517     2.5199   201.2800     0.9504     0.5734
  631   12.600   2604.24     0.8729     0.0212     0.6718     0.1260     1.1539     2.4358   201.6000     0.9523     0.5702
  632   12.620   2605.24     0.8613     0.0213     0.6739     0.1262     1.1445     2.4650   201.9200     0.9426     0.5814
  633   12.640   2606.29     0.8621     0.0210     0.6725     0.1264     1.1443     2.4330   202.2400     0.9420     0.5789
  634   12.660   2607.26     0.8722     0.0209     0.6760     0.1266     1.1557     2.4054   202.5600     0.9531     0.5753
  635   12.680   2608.24     0.8783     0.0206     0.6854     0.1268     1.1655     2.3507   202.8800     0.9627     0.5788
  636   12.700   2609.20     0.8753     0.0207     0.6789     0.1270     1.1614     2.3596   203.2000     0.9582     0.5784
  637   12.720   2610.22     0.8770     0.0212     0.6633     0.1272     1.1575     2.4204   203.5200     0.9539     0.5666
  638   12.740   2611.25     0.8812     0.0216     0.6742     0.1274     1.1629     2.4513   203.8400     0.9590     0.5664
  639   12.760   2612.25     0.8884     0.0224     0.6523     0.1276     1.1658     2.5267   204.1600     0.9616     0.5542
  640   12.780   2613.23     0.8994     0.0224     0.6544     0.1278     1.1722     2.4965   204.4800     0.9677     0.5391
  641   12.800   2614.21     0.8990     0.0231     0.6696     0.1280     1.1779     2.5510   204.8000     0.9731     0.5510
  642   12.820   2615.15     0.8880     0.0235     0.6650     0.1282     1.1661     2.6534   205.1200     0.9610     0.5555
  643   12.840   2616.15     0.8967     0.0233     0.6725     0.1284     1.1776     2.6030   205.4400     0.9721     0.5559
  644   12.860   2617.17     0.8945     0.0225     0.6814     0.1286     1.1794     2.5087   205.7600     0.9737     0.5648
  645   12.880   2618.17     0.9010     0.0228     0.6805     0.1288     1.1857     2.5551   206.0800     0.9797     0.5607
  646   12.900   2619.12     0.9431     0.0236     0.7034     0.1290     1.2364     2.5740   206.4000     1.0300     0.5528
  647   12.920   2620.05     0.9738     0.0260     0.7370     0.1292     1.2785     2.7615   206.7200     1.0718     0.5564
  648   12.940   2621.03     0.9073     0.0276     0.5699     0.1294     1.1870     2.9920   207.0400     0.9800     0.5467
  649   12.960   2621.95     0.8929     0.0278     0.5416     0.1296     1.1210     3.1104   207.3600     0.9137     0.4527
  650   12.980   2622.95     0.8932     0.0274     0.5744     0.1298     1.1301     3.0686   207.6800     0.9224     0.4709
  651   13.000   2623.92     0.9241     0.0258     0.6261     0.1300     1.1745     3.1386   208.0000     0.9665     0.4823
  652   13.020   2633.44     0.9345     0.0226     0.6576     0.1302     1.2062     2.8877   208.3200     0.9979     0.5173
  653   13.040   2644.40     0.9449     0.0223     0.6723     0.1304     1.2298     2.5138   208.6400     1.0211     0.5365
  654   13.060   2645.98     0.9049     0.0216     0.5318     0.1306     1.1185     2.3795   208.9600     0.9096     0.4156
  655   13.080   2646.97     0.9055     0.0218     0.5148     0.1308     1.1164     2.4139   209.2800     0.9071     0.4092
  656   13.100   2648.00     0.8885     0.0217     0.5629     0.1310     1.1209     2.4301   209.6000     0.9113     0.4633
  657   13.120   2648.97     0.8934     0.0222     0.5992     0.1312     1.1408     2.4945   209.9200     0.9309     0.4918
  658   13.140   2649.92     0.9052     0.0232     0.6245     0.1314     1.1638     2.5675   210.2400     0.9535     0.5077
  659   13.160   2650.98     0.9168     0.0237     0.6350     0.1316     1.1815     2.5949   210.5600     0.9710     0.5137
  660   13.180   2651.96     0.9390     0.0237     0.6274     0.1318     1.2069     2.5442   210.8800     0.9961     0.5082
  661   13.200   2652.96     0.9948     0.0235     0.4952     0.1320     1.2457     2.3881   211.2000     1.0345     0.4498
  662   13.220   2653.88     0.9314     0.0236     0.4107     0.1322     1.1027     2.5007   211.5200     0.8911     0.3094
  663   13.240   2654.87     0.9079     0.0222     0.4690     0.1324     1.0950     2.4403   211.8400     0.8831     0.3543
  664   13.260   2655.87     0.9196     0.0214     0.5249     0.1326     1.1327     2.3363   212.1600     0.9205     0.4069
  665   13.280   2656.88     0.9412     0.0208     0.5652     0.1328     1.1749     2.2233   212.4800     0.9624     0.4401
  666   13.300   2657.90     1.0148     0.0279     0.6058     0.1330     1.2581     2.8101   212.8000     1.0453     0.4271
  667   13.320   2658.90     1.1519     0.0310     0.5696     0.1332     1.4100     2.7939   213.1200     1.1969     0.4028
  668   13.340   2659.86     1.3976     0.0308     0.4575     0.1334     1.6095     2.2688   213.4400     1.3960     0.2668
  669   13.360   2660.86     1.4070     0.0270     0.2112     0.1336     1.5245     1.8744   213.7600     1.3107     0.1091
  670   13.380   2661.85     1.3210     0.0314     0.2410     0.1338     1.4087     2.3310   214.0800     1.1947     0.0634
  671   13.400   2662.84     1.1673     0.0373     0.3429     0.1340     1.2938     3.1676   214.4000     1.0794     0.1552
  672   13.420   2663.82     1.4135     0.0421     0.4452     0.1342     1.5890     3.0988   214.7200     1.3743     0.2063
  673   13.440   2664.83     1.7350     0.0425     0.4055     0.1344     1.9286     2.5342   215.0400     1.7136     0.1912
  674   13.460   2665.84     1.9355     0.0409     0.2709     0.1346     2.0593     2.1321   215.3600     1.8440     0.0871
  675   13.480   2666.82     1.9162     0.0429     0.2548     0.1348     2.0235     2.2057   215.6800     1.8078     0.0668
  676   13.500   2667.82     1.5149     0.0468     0.2820     0.1350     1.6287     3.0407   216.0000     1.4127     0.0971
  677   13.520   2668.78     1.2557     0.0448     0.3139     0.1352     1.3839     3.5070   216.3200     1.1675     0.1459
  678   13.540   2669.76     1.0978     0.0377     0.4098     0.1354     1.2496     3.3648   216.6400     1.0329     0.2202
  679   13.560   2670.81     0.9948     0.0321     0.4611     0.1356     1.1804     3.2229   216.9600     0.9635     0.3180
  680   13.580   2671.82     0.9834     0.0267     0.5030     0.1358     1.1894     2.6935   217.2800     0.9721     0.3650
  681   13.600   2672.81     0.9532     0.0245     0.5374     0.1360     1.1729     2.5706   217.6000     0.9553     0.4050
  682   13.620   2673.77     0.9331     0.0233     0.5814     0.1362     1.1717     2.4930   217.9200     0.9538     0.4528
  683   13.640   2674.75     0.9204     0.0206     0.6141     0.1364     1.1745     2.2295   218.2400     0.9563     0.4899
  684   13.660   2675.76     0.9327     0.0208     0.6380     0.1366     1.1963     2.2254   218.5600     0.9777     0.5022
  685   13.680   2676.81     0.9799     0.0273     0.6592     0.1368     1.2535     2.8169   218.8800     1.0346     0.4974
  686   13.700   2677.78     1.1376     0.0299     0.6733     0.1370     1.4191     2.7340   219.2000     1.1999     0.4452
  687   13.720   2678.79     1.3964     0.0333     0.5895     0.1372     1.6738     2.4598   219.5200     1.4543     0.3607
  688   13.740   2679.79     1.5062     0.0350     0.2737     0.1374     1.6473     2.3208   219.8400     1.4275     0.1377
  689   13.760   2680.77     1.3864     0.0374     0.2856     0.1376     1.5047     2.4889   220.1600     1.2845     0.1134
  690   13.780   2681.72     1.2015     0.0390     0.3443     0.1378     1.3341     3.1622   220.4800     1.1136     0.1617
  691   13.800   2682.72     1.0657     0.0375     0.3544     0.1380     1.2164     3.5129   220.8000     0.9956     0.2216
  692   13.820   2683.73     1.0120     0.0308     0.4282     0.1382     1.1828     3.0320   221.1200     0.9617     0.2793
  693   13.840   2684.73     0.9957     0.0261     0.4933     0.1384     1.1920     2.6222   221.4400     0.9706     0.3389
  694   13.860   2685.77     0.9876     0.0248     0.5496     0.1386     1.2095     2.5131   221.7600     0.9877     0.3944
  695   13.880   2686.74     1.0129     0.0250     0.5941     0.1388     1.2564     2.4689   222.0800     1.0343     0.4262
  696   13.900   2687.72     1.0107     0.0245     0.6237     0.1390     1.2687     2.4193   222.4000     1.0463     0.4542
  697   13.920   2688.75     1.0117     0.0240     0.6327     0.1392     1.2752     2.3717   222.7200     1.0525     0.4638
  698   13.940   2689.72     1.0166     0.0241     0.6566     0.1394     1.2876     2.3685   223.0400     1.0646     0.4751
  699   13.960   2690.71     1.0024     0.0247     0.6781     0.1396     1.2847     2.4570   223.3600     1.0614     0.5018
  700   13.980   2691.69     0.9911     0.0248     0.6880     0.1398     1.2787     2.5020   223.6800     1.0551     0.5167
  701   14.000   2692.66     0.9982     0.0242     0.6998     0.1400     1.2887     2.4230   224.0000     1.0647     0.5180
  702   14.020   2693.65     0.9922     0.0240     0.7060     0.1402     1.2865     2.4212   224.3200     1.0622     0.5276
  703   14.040   2694.67     1.0136     0.0244     0.7061     0.1404     1.3121     2.4201   224.6400     1.0874     0.5244
  704   14.060   2695.71     1.0361     0.0245     0.7213     0.1406     1.3385     2.3666   224.9600     1.1136     0.5203
  705   14.080   2696.71     1.0287     0.0243     0.7244     0.1408     1.3315     2.3410   225.2800     1.1062     0.5245
  706   14.100   2697.67     1.0155     0.0250     0.7397     0.1410     1.3247     2.4673   225.6000     1.0991     0.5415
  707   14.120   2698.66     1.0225     0.0228     0.7415     0.1412     1.3346     2.2297   225.9200     1.1087     0.5429
  708   14.140   2699.63     1.0293     0.0235     0.7531     0.1414     1.3456     2.2802   226.2400     1.1194     0.5465
  709   14.160   2700.63     1.0338     0.0243     0.7555     0.1416     1.3541     2.3519   226.5600     1.1276     0.5507
  710   14.180   2701.66     1.0726     0.0263     0.7611     0.1418     1.3919     2.4763   226.8800     1.1650     0.5309
  711   14.200   2702.67     1.1196     0.0273     0.7684     0.1420     1.4427     2.4434   227.2000     1.2155     0.5162
  712   14.220   2703.65     1.1623     0.0280     0.6740     0.1422     1.4673     2.4331   227.5200     1.2398     0.4711
  713   14.240   2704.67     1.1663     0.0294     0.4802     0.1424     1.3989     2.4741   227.8400     1.1710     0.3498
  714   14.260   2705.65     1.1121     0.0302     0.4235     0.1426     1.2916     2.7155   228.1600     1.0635     0.2678
  715   14.280   2706.64     1.0902     0.0310     0.5149     0.1428     1.2942     2.8300   228.4800     1.0657     0.3217
  716   14.300   2707.64     1.0787     0.0272     0.5707     0.1430     1.3111     2.5133   228.8000     1.0823     0.3791
  717   14.320   2708.63     1.0670     0.0235     0.6177     0.1432     1.3205     2.1966   229.1200     1.0914     0.4219
  718   14.340   2709.60     1.0667     0.0244     0.6535     0.1434     1.3368     2.2868   229.4400     1.1074     0.4512
  719   14.360   2710.58     1.0764     0.0254     0.6883     0.1436     1.3596     2.3630   229.7600     1.1298     0.4695
  720   14.380   2711.52     1.0999     0.0255     0.7080     0.1438     1.3943     2.3228   230.0800     1.1642     0.4786
  721   14.400   2712.56     1.0981     0.0266     0.7111     0.1440     1.3931     2.4221   230.4000     1.1627     0.4802
  722   14.420   2713.55     1.1088     0.0270     0.7182     0.1442     1.4068     2.4388   230.7200     1.1761     0.4806
  723   14.440   2714.57     1.1037     0.0271     0.7231     0.1444     1.4040     2.4481   231.0400     1.1729     0.4864
  724   14.460   2715.55     1.0899     0.0283     0.7485     0.1446     1.3978     2.5910   231.3600     1.1665     0.5046
  725   14.480   2716.55     1.0891     0.0288     0.7606     0.1448     1.4066     2.6454   231.6800     1.1749     0.5202
  726   14.500   2717.56     1.1098     0.0299     0.7942     0.1450     1.4368     2.6555   232.0000     1.2048     0.5259
  727   14.520   2718.54     1.1795     0.0309     0.8149     0.1452     1.5182     2.6364   232.3200     1.2859     0.5143
  728   14.540   2719.54     1.4600     0.0608     0.8209     0.1454     1.8023     4.3986   232.6400     1.5696     0.4296
  729   14.560   2720.54     2.4983     0.0679     0.5864     0.1456     2.7713     2.8160   232.9600     2.5383     0.1988
  730   14.580   2721.52     3.0510     0.0707     0.3617     0.1458     3.2361     2.3362   233.2800     3.0028     0.0981
  731   14.600   2722.53     2.5892     0.0731     0.2738     0.1460     2.7139     2.6049   233.6000     2.4803     0.0581
  732   14.620   2723.55     2.1779     0.0732     0.2065     0.1462     2.2743     2.6105   233.9200     2.0404     0.0380
  733   14.640   2724.51     1.7634     0.0729     0.1774     0.1464     1.8301     3.9747   234.2400     1.5959     0.0078
  734   14.660   2725.54     1.5195     0.0558     0.2461     0.1466     1.6203     3.6134   234.5600     1.3857     0.0674
  735   14.680   2726.52     1.4434     0.0363     0.3964     0.1468     1.5834     2.4892   234.8800     1.3486     0.1384
  736   14.700   2727.51     1.4176     0.0251     0.4482     0.1470     1.6017     1.7694   235.2000     1.3665     0.2132
  737   14.720   2728.50     1.3665     0.0232     0.4961     0.1472     1.5669     1.6891   235.5200     1.3314     0.2479
  738   14.740   2729.49     1.3148     0.0241     0.5581     0.1474     1.5363     1.8225   235.8400     1.3005     0.2922
  739   14.760   2730.45     1.2826     0.0238     0.5848     0.1476     1.5266     1.8445   236.1600     1.2904     0.3357
  740   14.780   2731.49     1.2114     0.0244     0.5985     0.1478     1.4614     1.9806   236.4800     1.2249     0.3652
  741   14.800   2732.48     1.2179     0.0277     0.6252     0.1480     1.4760     2.2655   236.8000     1.2392     0.3766
  742   14.820   2733.45     1.2203     0.0275     0.6517     0.1482     1.4901     2.2452   237.1200     1.2530     0.3943
  743   14.840   2734.48     1.1875     0.0308     0.6696     0.1484     1.4669     2.5770   237.4400     1.2294     0.4202
  744   14.860   2735.45     1.2010     0.0325     0.6943     0.1486     1.4903     2.7225   237.7600     1.2525     0.4313
  745   14.880   2738.54     1.2391     0.0335     0.6617     0.1488     1.5256     2.7256   238.0800     1.2875     0.4147
  746   14.900   2753.23     1.3135     0.0334     0.6028     0.1490     1.5752     2.7171   238.4000     1.3368     0.3565
  747   14.920   2764.28     1.3553     0.0363     0.5965     0.1492     1.6039     2.6656   238.7200     1.3651     0.3242
  748   14.940   2765.23     1.2892     0.0344     0.5825     0.1494     1.5379     2.6389   239.0400     1.2989     0.3410
  749   14.960   2766.20     1.2383     0.0294     0.4167     0.1496     1.4388     2.3765   239.3600     1.1995     0.2729
  750   14.980   2767.20     1.2061     0.0333     0.4706     0.1498     1.3827     2.7550   239.6800     1.1430     0.2370
  751   15.000   2768.21     1.1813     0.0358     0.4869     0.1500     1.3820     3.0457   240.0000     1.1420     0.2870
  752   15.020   2769.25     1.2165     0.0327     0.3459     0.1502     1.3928     2.6786   240.3200     1.1524     0.2315
  753   15.040   2770.24     1.4008     0.0321     0.3557     0.1504     1.5544     2.4183   240.6400     1.3137     0.1647
  754   15.060   2771.22     1.8333     0.0338     0.2649     0.1506     1.9550     1.8614   240.9600     1.7140     0.0814
  755   15.080   2772.24     1.7287     0.0317     0.3504     0.1508     1.8562     1.7054   241.2800     1.6149     0.0979
  756   15.100   2773.21     1.3409     0.0339     0.4823     0.1510     1.5307     2.5019   241.6000     1.2891     0.2337
  757   15.120   2774.20     1.2577     0.0350     0.5324     0.1512     1.4746     2.7975   241.9200     1.2327     0.2962
  758   15.140   2775.16     1.3228     0.0399     0.5720     0.1514     1.5573     3.0435   242.2400     1.3150     0.3095
  759   15.160   2776.17     1.5652     0.0388     0.5948     0.1516     1.8154     2.5667   242.5600     1.5729     0.2830
  760   15.180   2777.19     1.8403     0.0403     0.5221     0.1518     2.0756     2.2362   242.8800     1.8327     0.2234
  761   15.200   2778.19     1.8958     0.0423     0.4161     0.1520     2.0896     2.1838   243.2000     1.8464     0.1672
  762   15.220   2779.17     1.6964     0.0454     0.3887     0.1522     1.8542     2.6005   243.5200     1.6107     0.1392
  763   15.240   2780.19     1.4472     0.0446     0.4453     0.1524     1.6216     3.0062   243.8400     1.3777     0.1915
  764   15.260   2781.19     1.2878     0.0431     0.5661     0.1526     1.5174     3.3234   244.1600     1.2733     0.3096
  765   15.280   2782.12     1.2709     0.0348     0.6278     0.1528     1.5235     2.7338   244.4800     1.2790     0.3506
  766   15.300   2783.12     1.2900     0.0318     0.6925     0.1530     1.5709     2.4869   244.8000     1.3261     0.3887
  767   15.320   2784.12     1.3301     0.0318     0.7470     0.1532     1.6362     2.4049   245.1200     1.3911     0.4137
  768   15.340   2785.14     1.3449     0.0324     0.7744     0.1534     1.6647     2.4103   245.4400     1.4193     0.4284
  769   15.360   2786.11     1.3644     0.0330     0.8036     0.1536     1.6972     2.4203   245.7600     1.4514     0.4402
  770   15.380   2787.11     1.3657     0.0328     0.8287     0.1538     1.7102     2.3986   246.0800     1.4641     0.4552
  771   15.400   2788.10     1.3594     0.0327     0.8366     0.1540     1.7112     2.3986   246.4000     1.4648     0.4667
  772   15.420   2789.07     1.3360     0.0326     0.8233     0.1542     1.6843     2.4348   246.7200     1.4376     0.4697
  773   15.440   2790.06     1.3346     0.0317     0.8448     0.1544     1.6851     2.3715   247.0400     1.4380     0.4729
  774   15.460   2791.07     1.3041     0.0322     0.8692     0.1546     1.6654     2.4678   247.3600     1.4180     0.4977
  775   15.480   2792.10     1.2912     0.0322     0.8743     0.1548     1.6587     2.4958   247.6800     1.4110     0.5104
  776   15.500   2793.05     1.2843     0.0269     0.8775     0.1550     1.6523     2.0915   248.0000     1.4043     0.5136
  777   15.520   2794.04     1.2755     0.0146     0.8854     0.1552     1.6469     1.1422   248.3200     1.3986     0.5213
  778   15.540   2795.03     1.3020     0.0189     0.8875     0.1554     1.6732     1.4578   248.6400     1.4246     0.5113
  779   15.560   2796.09     1.5143     0.0314     0.9161     0.1556     1.8952     2.1908   248.9600     1.6463     0.4587
  780   15.580   2797.08     2.2562     0.0543     0.8936     0.1558     2.6430     2.5718   249.2800     2.3937     0.3215
  781   15.600   2798.07     3.1710     0.0678     0.6811     0.1560     3.4927     2.2237   249.6000     3.2431     0.1887
  782   15.620   2799.07     3.5939     0.0710     0.1938     0.1562     3.6858     1.9762   249.9200     3.4359     0.0182
  783   15.640   2800.02     3.2908     0.0746     0.1755     0.1564     3.3594     2.2276   250.2400     3.1092     0.0023
  784   15.660   2801.02     2.6896     0.0819     0.2287     0.1566     2.7714     3.0243   250.5600     2.5208     0.0152
  785   15.680   2802.06     2.1330     0.0776     0.2789     0.1568     2.2364     3.5367   250.8800     1.9855     0.0452
  786   15.700   2803.08     1.7594     0.0613     0.4560     0.1570     1.9277     3.3964   251.2000     1.6765     0.1455
  787   15.720   2804.07     1.6584     0.0405     0.5485     0.1572     1.8874     2.4524   251.5200     1.6359     0.2374
  788   15.740   2805.07     1.7294     0.0308     0.4875     0.1574     1.9569     1.7764   251.8400     1.7050     0.2250
  789   15.760   2806.07     1.7708     0.0371     0.4733     0.1576     1.9600     2.1459   252.1600     1.7079     0.1725
  790   15.780   2807.05     2.9883     0.0417     0.5003     0.1578     3.2040     1.4134   252.4800     2.9516     0.1210
  791   15.800   2808.05     4.2486     0.0440     0.3561     0.1580     4.4337     1.0443   252.8000     4.1809     0.0678
  792   15.820   2809.01     5.3667     0.0466     0.1358     0.1582     5.4359     0.8801   253.1200     5.1828     0.0013
  793   15.840   2810.10     5.9190     0.0481     0.1180     0.1584     5.9691     0.8229   253.4400     5.7156    -0.0068
  794   15.860   2811.10     6.4730     0.0492     0.1365     0.1586     6.5257     0.7628   253.7600     6.2720    -0.0053
  795   15.880   2812.11     7.0715     0.0592    -0.0061     0.1588     7.0823     0.8395   254.0800     6.8283    -0.0194
  796   15.900   2813.13     7.0073     0.0684    -0.0228     0.1590     6.9990     0.9667   254.4000     6.7446    -0.0265
  797   15.920   2814.06     6.4499     0.0722    -0.0354     0.1592     6.4375     1.1159   254.7200     6.1828    -0.0305
  798   15.940   2815.08     5.7268     0.0678    -0.0262     0.1594     5.7131     1.1740   255.0400     5.4581    -0.0352
  799   15.960   2816.14     5.0789     0.0789     0.0244     0.1596     5.0795     1.5452   255.3600     4.8242    -0.0327
  800   15.980   2817.13     4.9478     0.0776     0.0664     0.1598     4.9695     1.5687   255.6800     4.7138    -0.0230
  801   16.000   2818.12     4.9088     0.0794     0.1731     0.1600     4.9679     1.6171   256.0000     4.7119    -0.0041
  802   16.020   2819.12     5.5816     0.0812     0.1361     0.1602     5.6462     1.4596   256.3200     5.3899    -0.0010
  803   16.040   2820.15     7.5304     0.0731     0.0890     0.1604     7.5718     0.9768   256.6400     7.3152    -0.0084
  804   16.060   2821.17     9.3509     0.0630     0.0244     0.1606     9.3822     0.6772   256.9600     9.1253    -0.0093
  805   16.080   2822.19     9.9584     0.0676    -0.0258     0.1608     9.9493     0.6781   257.2800     9.6920    -0.0188
  806   16.100   2823.24     9.3027     0.0725    -0.0625     0.1610     9.2810     0.7685   257.6000     9.0234    -0.0236
  807   16.120   2824.25     7.9541     0.0889    -0.0669     0.1612     7.9265     1.0838   257.9200     7.6686    -0.0297
  808   16.140   2825.24     6.2791     0.1084    -0.0746     0.1614     6.2488     1.6614   258.2400     5.9906    -0.0392
  809   16.160   2826.23     4.9167     0.1078    -0.0722     0.1616     4.8847     2.1580   258.5600     4.6262    -0.0515
  810   16.180   2827.23     4.0683     0.0940    -0.0266     0.1618     4.0485     2.2828   258.8800     3.7896    -0.0551
  811   16.200   2828.19     3.4939     0.0929     0.0528     0.1620     3.5017     2.6469   259.2000     3.2425    -0.0441
  812   16.220   2829.19     3.1492     0.0908     0.1539     0.1622     3.2036     2.8476   259.5200     2.9441    -0.0109
  813   16.240   2830.19     2.9319     0.0880     0.2349     0.1624     3.0257     3.0071   259.8400     2.7659     0.0221
  814   16.260   2831.21     3.1890     0.0815     0.2660     0.1626     3.2923     2.6253   260.1600     3.0321     0.0272
  815   16.280   2832.26     3.4124     0.0737     0.1678     0.1628     3.5043     2.1802   260.4800     3.2438     0.0173
  816   16.300   2833.24     3.3983     0.0863     0.1042     0.1630     3.4412     2.5381   260.8000     3.1804    -0.0191
  817   16.320   2834.24     3.2885     0.0888     0.1406     0.1632     3.3381     2.6755   261.1200     3.0770    -0.0146
  818   16.340   2835.24     3.2734     0.0968     0.1499     0.1634     3.3452     2.9763   261.4400     3.0837     0.0025
  819   16.360   2836.21     3.1092     0.0878     0.0962     0.1636     3.1601     2.8047   261.7600     2.8983    -0.0148
  820   16.380   2837.19     2.8274     0.0780     0.1457     0.1638     2.8715     2.7411   262.0800     2.6094    -0.0223
  821   16.400   2838.18     2.3957     0.0701     0.3138     0.1640     2.5125     2.9142   262.4000     2.2501     0.0515
  822   16.420   2839.17     2.1011     0.0656     0.3971     0.1642     2.2555     3.1204   262.7200     1.9927     0.1020
  823   16.440   2840.23     2.2014     0.0682     0.6209     0.1644     2.4279     3.1964   263.0400     2.1649     0.1721
  824   16.460   2841.22     2.9078     0.0606     0.6298     0.1646     3.1798     2.1048   263.3600     2.9164     0.1669
  825   16.480   2842.23     3.5928     0.0623     0.4149     0.1648     3.8160     1.7962   263.6800     3.5523     0.1044
  826   16.500   2843.27     4.6437     0.0681     0.2204     0.1650     4.7468     1.4737   264.0000     4.4828     0.0183
  827   16.520   2844.29     6.2198     0.0748     0.0876     0.1652     6.2741     1.2389   264.3200     6.0097    -0.0054
  828   16.540   2845.34     7.1556     0.0793     0.0927     0.1654     7.2002     1.1158   264.6400     6.9355    -0.0086
  829   16.560   2846.37     7.6819     0.0880    -0.0202     0.1656     7.6830     1.1495   264.9600     7.4180    -0.0220
  830   16.580   2847.38     7.5326     0.0951    -0.0346     0.1658     7.5189     1.2563   265.2800     7.2536    -0.0274
  831   16.600   2848.37     6.7686     0.0836    -0.0293     0.1660     6.7544     1.2232   265.6000     6.4888    -0.0308
  832   16.620   2849.33     5.8447     0.0897    -0.0235     0.1662     5.8341     1.5269   265.9200     5.5681    -0.0344
  833   16.640   2850.31     5.1530     0.0987     0.0496     0.1664     5.1543     1.8839   266.2400     4.8881    -0.0333
  834   16.660   2851.34     4.7300     0.1055     0.1271     0.1666     4.7855     2.2240   266.5600     4.5190    -0.0075
  835   16.680   2852.36     4.4822     0.1053     0.1069     0.1668     4.5200     2.3459   266.8800     4.2531    -0.0181
  836   16.700   2853.39     4.6803     0.0979     0.0972     0.1670     4.7281     2.1019   267.2000     4.4609    -0.0119
  837   16.720   2854.40     4.8355     0.0958     0.0361     0.1672     4.8549     1.9821   267.5200     4.5874    -0.0264
  838   16.740   2855.42     4.8034     0.0931     0.0562     0.1674     4.8128     1.9557   267.8400     4.5450    -0.0319
  839   16.760   2856.43     5.7890     0.0873     0.1577     0.1676     5.8461     1.5769   268.1600     5.5779    -0.0059
  840   16.780   2857.43     7.5603     0.0816     0.1618     0.1678     7.6511     1.1982   268.4800     7.3826     0.0064
  841   16.800   2858.42     9.9792     0.0758    -0.0230     0.1680     9.9847     0.8271   268.8000     9.7159    -0.0159
  842   16.820   2859.46    11.5786     0.0691    -0.0446     0.1682    11.5610     0.6197   269.1200    11.2919    -0.0186
  843   16.840   2860.56    12.2048     0.0705    -0.0575     0.1684    12.1821     0.5821   269.4400    11.9127    -0.0187
  844   16.860   2867.61    12.0217     0.0784    -0.0091     0.1686    12.0106     0.6532   269.7600    11.7409    -0.0166
  845   16.880   2878.12    12.0464     0.0837     0.0407     0.1688    12.0563     0.6972   270.0800    11.7862    -0.0124
  846   16.900   2888.62    12.0712     0.0805     0.0903     0.1690    12.1020     0.6709   270.4000    11.8316    -0.0081
  847   16.920   2892.74    12.3607     0.0660     0.0915     0.1692    12.4035     0.5344   270.7200    12.1327    -0.0055
  848   16.940   2893.77    13.1330     0.0575     0.0512     0.1694    13.1603     0.4416   271.0400    12.8892    -0.0081
  849   16.960   2894.80    14.3541     0.0623    -0.0236     0.1696    14.3500     0.4359   271.3600    14.0786    -0.0127
  850   16.980   2895.83    14.6976     0.0776    -0.0379     0.1698    14.6847     0.5284   271.6800    14.4130    -0.0139
  851   17.000   2896.84    14.3508     0.1126    -0.0642     0.1700    14.3271     0.7830   272.0000    14.0551    -0.0161
  852   17.020   2897.85    13.1245     0.1473    -0.0882     0.1702    13.0913     1.1234   272.3200    12.8189    -0.0195
  853   17.040   2898.90    10.2666     0.1344    -0.1017     0.1704    10.2243     1.2984   272.6400     9.9517    -0.0273
  854   17.060   2899.89     7.3444     0.1152    -0.0702     0.1706     7.3084     1.3598   272.9600     7.0354    -0.0366
  855   17.080   2900.89     5.5028     0.1011     0.0116     0.1708     5.4908     1.7059   273.2800     5.2175    -0.0381
  856   17.100   2901.89     5.0510     0.0888     0.2097     0.1710     5.1253     1.8185   273.6000     4.8517     0.0010
  857   17.120   2902.90     6.9818     0.0752     0.2608     0.1712     7.0825     1.2200   273.9200     6.8085     0.0100
  858   17.140   2903.95    10.4559     0.0666     0.1668     0.1714    10.5725     0.7442   274.2400    10.2983     0.0104
  859   17.160   2905.04    13.9114     0.0545    -0.0181     0.1716    13.9215     0.4208   274.5600    13.6470    -0.0108
  860   17.180   2906.13    15.4757     0.0367    -0.0179     0.1718    15.4733     0.2374   274.8800    15.1984    -0.0117
  861   17.200   2907.12    16.3189     0.0346     0.0227     0.1720    16.3200     0.2157   275.2000    16.0448    -0.0106
  862   17.220   2908.16    16.5998     0.0403     0.0722     0.1722    16.6240     0.2431   275.5200    16.3485    -0.0070
  863   17.240   2909.15    16.1889     0.0500     0.0692     0.1724    16.2245     0.3089   275.8400    15.9487    -0.0055
  864   17.260   2910.21    15.1085     0.0711     0.0561     0.1726    15.1277     0.4695   276.1600    14.8515    -0.0085
  865   17.280   2911.25    13.4692     0.0937     0.0305     0.1728    13.4862     0.6914   276.4800    13.2097    -0.0100
  866   17.300   2912.24    11.6281     0.0922     0.0566     0.1730    11.6429     0.7617   276.8000    11.3661    -0.0121
  867   17.320   2913.25    10.6962     0.1042     0.1253     0.1732    10.7373     0.9742   277.1200    10.4602    -0.0072
  868   17.340   2914.24    10.2865     0.1003     0.1818     0.1734    10.3557     0.9746   277.4400    10.0783    -0.0008
  869   17.360   2915.25     9.9820     0.0881     0.1260     0.1736    10.0493     0.8666   277.7600     9.7715    -0.0014
  870   17.380   2916.27    10.0533     0.0833     0.0669     0.1738    10.0938     0.8273   278.0800     9.8157    -0.0079
  871   17.400   2917.36    11.0986     0.0696    -0.0297     0.1740    11.0856     0.6287   278.4000    10.8072    -0.0190
  872   17.420   2918.35    11.3071     0.0514    -0.0698     0.1742    11.2839     0.4548   278.7200    11.0052    -0.0209
  873   17.440   2919.35    10.8811     0.0599    -0.1030     0.1744    10.8444     0.5420   279.0400    10.5654    -0.0248
  874   17.460   2920.40    10.3912     0.0680    -0.1155     0.1746    10.3418     0.6547   279.3600    10.0624    -0.0291
  875   17.480   2921.44    10.0437     0.0716    -0.1124     0.1748     9.9970     0.7121   279.6800     9.7173    -0.0294
  876   17.500   2922.43     9.7020     0.0737    -0.1184     0.1750     9.6557     0.7577   280.0000     9.3757    -0.0304
  877   17.520   2923.47     9.3311     0.0674    -0.1036     0.1752     9.2827     0.7217   280.3200     9.0024    -0.0323
  878   17.540   2924.47     9.0542     0.0597    -0.0580     0.1754     9.0197     0.6594   280.6400     8.7391    -0.0295
  879   17.560   2925.49     8.6437     0.0633    -0.0423     0.1756     8.6261     0.7312   280.9600     8.3452    -0.0261
  880   17.580   2926.50     8.8358     0.0676    -0.0753     0.1758     8.8108     0.7652   281.2800     8.5295    -0.0276
  881   17.600   2927.48     8.9365     0.0638    -0.1134     0.1760     8.8902     0.7142   281.6000     8.6086    -0.0332
  882   17.620   2928.52     8.6855     0.0590    -0.1167     0.1762     8.6412     0.6789   281.9200     8.3593    -0.0337
  883   17.640   2929.56     8.4920     0.0522    -0.1400     0.1764     8.4356     0.6144   282.2400     8.1534    -0.0381
  884   17.660   2930.60     8.3218     0.0562    -0.1428     0.1766     8.2626     0.6751   282.5600     7.9800    -0.0398
  885   17.680   2931.59     8.0516     0.0714    -0.1500     0.1768     7.9898     0.8814   282.8800     7.7070    -0.0420
  886   17.700   2932.64     7.5647     0.0896    -0.1582     0.1770     7.4987     1.1734   283.2000     7.2155    -0.0463
  887   17.720   2933.64     7.0663     0.0959    -0.1510     0.1772     7.0021     1.3505   283.5200     6.7186    -0.0491
  888   17.740   2934.63     6.6996     0.0970    -0.1409     0.1774     6.6382     1.4475   283.8400     6.3544    -0.0509
  889   17.760   2935.62     6.5463     0.0813    -0.1116     0.1776     6.4944     1.2419   284.1600     6.2102    -0.0485
  890   17.780   2936.61     6.4390     0.0835    -0.0776     0.1778     6.4018     1.2896   284.4800     6.1173    -0.0436
  891   17.800   2937.61     6.2951     0.0760    -0.0409     0.1780     6.2732     1.2090   284.8000     5.9884    -0.0384
  892   17.820   2938.68     6.5948     0.0720    -0.0971     0.1782     6.5621     1.0910   285.1200     6.2770    -0.0408
  893   17.840   2939.72     7.1140     0.0707    -0.0113     0.1784     7.0878     0.9956   285.4400     6.8024    -0.0355
  894   17.860   2940.70     7.5685     0.0668    -0.0449     0.1786     7.5687     0.8866   285.7600     7.2830    -0.0243
  895   17.880   2941.74     8.1425     0.0588    -0.0599     0.1788     8.1194     0.7287   286.0800     7.8334    -0.0298
  896   17.900   2942.75     8.4617     0.0548    -0.0613     0.1790     8.4364     0.6485   286.4000     8.1500    -0.0294
  897   17.920   2943.78     8.5887     0.0626    -0.0583     0.1792     8.5639     0.7290   286.7200     8.2772    -0.0288
  898   17.940   2944.80     8.4725     0.0703    -0.0433     0.1794     8.4517     0.8292   287.0400     8.1647    -0.0280
  899   17.960   2945.79     8.2789     0.0802    -0.0270     0.1796     8.2655     0.9689   287.3600     7.9781    -0.0265
  900   17.980   2946.85     8.4355     0.0819    -0.0355     0.1798     8.4239     0.9710   287.6800     8.1362    -0.0255
  901   18.000   2947.86     8.4967     0.0888    -0.0610     0.1800     8.4742     1.0447   288.0000     8.1862    -0.0285
  902   18.020   2948.86     8.3493     0.0860    -0.0584     0.1802     8.3217     1.0311   288.3200     8.0334    -0.0306
  903   18.040   2949.85     7.6262     0.0829    -0.0151     0.1804     7.6134     1.0844   288.6400     7.3248    -0.0288
  904   18.060   2950.88     7.8892     0.0878     0.0377     0.1806     7.8951     1.1160   288.9600     7.6061    -0.0220
  905   18.080   2951.95     8.8494     0.1062    -0.0137     0.1808     8.8557     1.2040   289.2800     8.5664    -0.0193
  906   18.100   2952.99     9.4869     0.1395     0.0296     0.1810     9.4867     1.4690   289.6000     9.1971    -0.0197
  907   18.120   2953.98     8.6243     0.1299    -0.0807     0.1812     8.6011     1.4219   289.9200     8.3112    -0.0286
  908   18.140   2955.00     7.4378     0.1113    -0.0881     0.1814     7.3995     1.4250   290.2400     7.1093    -0.0384
  909   18.160   2955.98     6.5190     0.0881    -0.0648     0.1816     6.4882     1.2904   290.5600     6.1977    -0.0411
  910   18.180   2956.97     5.6015     0.0897    -0.0283     0.1818     5.5831     1.5123   290.8800     5.2922    -0.0426
  911   18.200   2958.06     5.7459     0.0899     0.0823     0.1820     5.7590     1.7160   291.2000     5.4678    -0.0283
  912   18.220   2959.12    10.4325     0.0756     0.1252     0.1822    10.4872     0.9240   291.5200    10.1957    -0.0051
  913   18.240   2960.21    14.8384     0.0764     0.1104     0.1824    14.8924     0.5529   291.8400    14.6005    -0.0037
  914   18.260   2961.23    17.3675     0.0798     0.0049     0.1826    17.3882     0.4649   292.1600    17.0961    -0.0078
  915   18.280   2962.25    17.2348     0.0889    -0.0172     0.1828    17.2322     0.5151   292.4800    16.9397    -0.0112
  916   18.300   2963.24    15.7327     0.0994    -0.0349     0.1830    15.7198     0.6018   292.8000    15.4270    -0.0139
  917   18.320   2964.32    13.3741     0.1138    -0.0421     0.1832    13.3570     0.8522   293.1200    13.0639    -0.0172
  918   18.340   2965.35    10.8898     0.1296    -0.0276     0.1834    10.8732     1.1843   293.4400    10.5797    -0.0211
  919   18.360   2966.37    11.0975     0.1416     0.0605     0.1836    11.1051     1.2814   293.7600    10.8113    -0.0154
  920   18.380   2967.38    12.4813     0.1479     0.1965     0.1838    12.5609     1.1851   294.0800    12.2668     0.0003
  921   18.400   2968.39    11.9924     0.1397    -0.0168     0.1840    12.0111     1.1050   294.4000    11.7167    -0.0121
  922   18.420   2969.41     9.4097     0.1023    -0.0519     0.1842     9.3874     0.9642   294.7200     9.0926    -0.0262
  923   18.440   2970.42     7.0616     0.0918    -0.0090     0.1844     7.0479     1.1633   295.0400     6.7529    -0.0322
  924   18.460   2971.39     6.3710     0.1088     0.1214     0.1846     6.3908     1.7246   295.3600     6.0954    -0.0226
  925   18.480   2972.45     8.0106     0.1173     0.2215     0.1848     8.1002     1.6285   295.6800     7.8045     0.0036
  926   18.500   2973.52    10.5604     0.1318     0.1280     0.1850    10.6642     1.3678   296.0000    10.3682     0.0060
  927   18.520   2974.56    11.6782     0.1185    -0.0401     0.1852    11.6558     1.0460   296.3200    11.3595    -0.0210
  928   18.540   2975.60    11.9676     0.0959    -0.0074     0.1854    11.9570     0.8019   296.6400    11.6604    -0.0181
  929   18.560   2976.59    10.8346     0.0840     0.0329     0.1856    10.8403     0.7407   296.9600    10.5433    -0.0163
  930   18.580   2977.63    11.1419     0.0913     0.0635     0.1858    11.1686     0.8586   297.2800    10.8713    -0.0113
  931   18.600   2978.74    14.1631     0.0844     0.1944     0.1860    14.2187     0.6376   297.6000    13.9211    -0.0040
  932   18.620   2979.80    17.2722     0.0778     0.0690     0.1862    17.3300     0.4869   297.9200    17.0321    -0.0028
  933   18.640   2980.85    18.9687     0.0735    -0.0476     0.1864    18.9581     0.3941   298.2400    18.6598    -0.0113
  934   18.660   2981.86    19.4745     0.0535    -0.0700     0.1866    19.4457     0.2748   298.5600    19.1472    -0.0133
  935   18.680   2982.89    19.5235     0.0554    -0.0592     0.1868    19.4965     0.2838   298.8800    19.1976    -0.0131
  936   18.700   2983.96    19.0837     0.0668    -0.0383     0.1870    19.0636     0.3498   299.2000    18.7644    -0.0125
  937   18.720   2984.99    17.9791     0.0842    -0.0233     0.1872    17.9658     0.4699   299.5200    17.6663    -0.0124
  938   18.740   2986.02    16.4322     0.0891     0.0085     0.1874    16.4323     0.5523   299.8400    16.1324    -0.0116
  939   18.760   2987.00    14.1685     0.1064     0.0267     0.1876    14.1750     0.7477   300.1600    13.8748    -0.0124
  940   18.780   2988.05    11.9190     0.1086     0.0893     0.1878    11.9463     0.9046   300.4800    11.6459    -0.0105
  941   18.800   2989.08     9.8562     0.1203     0.1557     0.1880     9.9060     1.2103   300.8000     9.6052    -0.0072
  942   18.820   2990.08     9.0781     0.1470     0.1999     0.1882     9.1652     1.6152   301.1200     8.8641     0.0022
  943   18.840   3002.17     8.5322     0.1418     0.2058     0.1884     8.6178     1.6084   301.4400     8.3164     0.0019
  944   18.860   3018.11     7.9962     0.1381     0.1376     0.1886     8.0762     1.6960   301.7600     7.7744     0.0001
  945   18.880   3019.12     6.9641     0.1627     0.0116     0.1888     6.9738     2.2246   302.0800     6.6717    -0.0249
  946   18.900   3020.14     6.6596     0.1327     0.0359     0.1890     6.6669     1.9368   302.4000     6.3645    -0.0270
  947   18.920   3021.18     6.3672     0.1105     0.0298     0.1892     6.3881     1.7185   302.7200     6.0854    -0.0229
  948   18.940   3022.20     6.0341     0.1130     0.0503     0.1894     6.0689     1.8268   303.0400     5.7658    -0.0186
  949   18.960   3023.23     6.6641     0.1016     0.0192     0.1896     6.6675     1.6320   303.3600     6.3642    -0.0286
  950   18.980   3024.28     8.9629     0.0749     0.2700     0.1898     9.0505     0.9608   303.6800     8.7468     0.0013
  951   19.000   3025.28    12.0899     0.0546     0.0546     0.1900    12.1463     0.4939   304.0000    11.8423    -0.0044
  952   19.020   3026.37    13.4950     0.0381     0.0076     0.1902    13.4998     0.2869   304.3200    13.1955    -0.0136
  953   19.040   3027.42    14.0161     0.0240    -0.0148     0.1904    14.0129     0.1737   304.6400    13.7083    -0.0144
  954   19.060   3028.45    14.7895     0.0290    -0.0087     0.1906    14.7830     0.2004   304.9600    14.4781    -0.0142
  955   19.080   3029.48    15.7918     0.0359     0.0014     0.1908    15.7930     0.2324   305.2800    15.4878    -0.0121
  956   19.100   3030.52    15.9629     0.0416    -0.0070     0.1910    15.9624     0.2605   305.6000    15.6568    -0.0123
  957   19.120   3031.56    16.1089     0.0444    -0.0125     0.1912    16.1044     0.2772   305.9200    15.7984    -0.0128
  958   19.140   3032.65    16.7071     0.0463    -0.0045     0.1914    16.7055     0.2833   306.2400    16.3993    -0.0119
  959   19.160   3033.67    17.9719     0.0464     0.0336     0.1916    17.9823     0.2609   306.5600    17.6757    -0.0094
  960   19.180   3034.68    18.8327     0.0473     0.0769     0.1918    18.8584     0.2547   306.8800    18.5515    -0.0070
  961   19.200   3035.71    18.9572     0.0503     0.1319     0.1920    19.0040     0.2651   307.2000    18.6968    -0.0043
  962   19.220   3036.76    18.3399     0.0567     0.1256     0.1922    18.3959     0.3036   307.5200    18.0884    -0.0033
  963   19.240   3037.81    17.0363     0.0628     0.1303     0.1924    17.0905     0.3604   307.8400    16.7826    -0.0038
  964   19.260   3038.84    16.1415     0.0667     0.1422     0.1926    16.1989     0.4135   308.1600    15.8908    -0.0035
  965   19.280   3039.89    15.8945     0.0701     0.1539     0.1928    15.9567     0.4408   308.4800    15.6482    -0.0029
  966   19.300   3040.93    15.6939     0.0747     0.1549     0.1930    15.7593     0.4762   308.8000    15.4505    -0.0024
  967   19.320   3041.94    14.6623     0.0787     0.1634     0.1932    14.7330     0.5357   309.1200    14.4239    -0.0017
  968   19.340   3042.99    13.6821     0.0780     0.1135     0.1934    13.7308     0.5704   309.4400    13.4213    -0.0058
  969   19.360   3043.93    12.9488     0.0876     0.0735     0.1936    12.9866     0.6767   309.7600    12.6768    -0.0082
  970   19.380   3044.96    12.8235     0.1165     0.0636     0.1938    12.8515     0.9089   310.0800    12.5415    -0.0101
  971   19.400   3046.05    12.5373     0.1482     0.0610     0.1940    12.5625     1.1794   310.4000    12.2521    -0.0109
  972   19.420   3047.05    11.7936     0.1515     0.0659     0.1942    11.8205     1.2519   310.7200    11.5098    -0.0113
  973   19.440   3048.08    10.4967     0.1433     0.1108     0.1944    10.5444     1.3067   311.0400    10.2334    -0.0079
  974   19.460   3049.08     9.0949     0.1464     0.1474     0.1946     9.1498     1.5441   311.3600     8.8385    -0.0072
  975   19.480   3050.04     8.0249     0.1509     0.2385     0.1948     8.1135     1.8342   311.6800     7.8018     0.0021
  976   19.500   3051.13     9.1175     0.1250     0.3092     0.1950     9.2509     1.4587   312.0000     8.9389     0.0138
  977   19.520   3052.26    11.6810     0.0985     0.2038     0.1952    11.7744     0.8844   312.3200    11.4620     0.0023
  978   19.540   3053.32    13.7083     0.0817     0.0360     0.1954    13.7460     0.6245   312.6400    13.4334    -0.0078
  979   19.560   3054.36    15.0165     0.0700    -0.0356     0.1956    15.0061     0.4755   312.9600    14.6931    -0.0150
  980   19.580   3055.38    15.6645     0.0711    -0.0394     0.1958    15.6475     0.4598   313.2800    15.3342    -0.0154
  981   19.600   3056.42    16.2846     0.0876    -0.0370     0.1960    16.2698     0.5465   313.6000    15.9562    -0.0145
  982   19.620   3057.44    16.6236     0.0991    -0.0467     0.1962    16.6043     0.5973   313.9200    16.2904    -0.0149
  983   19.640   3058.47    16.4443     0.1100    -0.0512     0.1964    16.4220     0.6626   314.2400    16.1078    -0.0155
  984   19.660   3059.52    15.7570     0.1292    -0.0512     0.1966    15.7347     0.8073   314.5600    15.4202    -0.0162
  985   19.680   3060.58    14.8018     0.1367    -0.0602     0.1968    14.7772     0.8980   314.8800    14.4624    -0.0177
  986   19.700   3061.60    13.6418     0.1351    -0.0485     0.1970    13.6200     0.9609   315.2000    13.3048    -0.0187
  987   19.720   3062.64    13.1194     0.1258    -0.0379     0.1972    13.1032     0.9508   315.5200    12.7877    -0.0184
  988   19.740   3063.67    13.0828     0.1199    -0.0249     0.1974    13.0712     0.9200   315.8400    12.7554    -0.0176
  989   19.760   3064.73    13.1824     0.1169     0.0099     0.1976    13.1810     0.8846   316.1600    12.8648    -0.0156
  990   19.780   3065.74    12.9270     0.1130     0.0325     0.1978    12.9389     0.8667   316.4800    12.6224    -0.0134
  991   19.800   3066.77    12.7253     0.1092     0.0657     0.1980    12.7494     0.8571   316.8000    12.4326    -0.0113
  992   19.820   3067.85    13.5198     0.1032     0.0761     0.1982    13.5506     0.7884   317.1200    13.2334    -0.0094
  993   19.840   3068.91    14.5952     0.0992     0.0708     0.1984    14.6285     0.6982   317.4400    14.3110    -0.0083
  994   19.860   3069.93    15.7100     0.1015     0.0839     0.1986    15.7391     0.6639   317.7600    15.4213    -0.0084
  995   19.880   3070.99    16.5278     0.1023     0.0807     0.1988    16.5701     0.6279   318.0800    16.2520    -0.0060
  996   19.900   3072.01    16.8278     0.1074     0.0590     0.1990    16.8545     0.6418   318.4000    16.5361    -0.0082
  997   19.920   3073.00    17.0673     0.1075     0.0384     0.1992    17.0862     0.6325   318.7200    16.7675    -0.0092
  998   19.940   3074.09    17.3736     0.1155     0.0557     0.1994    17.3923     0.6683   319.0400    17.0733    -0.0091
  999   19.960   3075.16    17.4878     0.1231     0.0582     0.1996    17.5105     0.7047   319.3600    17.1912    -0.0085
 1000   19.980   3076.24    17.2537     0.1265     0.0623     0.1998    17.2784     0.7304   319.6800    16.9587    -0.0083
 1001   20.000   3077.26    16.8341     0.1283     0.0819     0.2000    16.8655     0.7536   320.0000    16.5455    -0.0076
 1002   20.020   3078.34    16.3529     0.1273     0.0946     0.2002    16.3900     0.7723   320.3200    16.0696    -0.0070
 1003   20.040   3079.39    16.0886     0.1271     0.1087     0.2004    16.1336     0.7862   320.6400    15.8130    -0.0059
 1004   20.060   3080.41    15.8538     0.1267     0.1187     0.2006    15.9024     0.7951   320.9600    15.5814    -0.0055
 1005   20.080   3081.43    15.6778     0.1254     0.1187     0.2008    15.7282     0.7974   321.2800    15.4069    -0.0052
 1006   20.100   3082.45    15.4438     0.1219     0.1153     0.2010    15.4918     0.7831   321.6000    15.1702    -0.0057
 1007   20.120   3083.49    14.9544     0.1189     0.1366     0.2012    15.0085     0.7850   321.9200    14.6866    -0.0049
 1008   20.140   3084.59    14.1648     0.1186     0.1235     0.2014    14.2214     0.8383   322.2400    13.8992    -0.0048
 1009   20.160   3085.65    13.3600     0.1145     0.1346     0.2016    13.4149     0.8376   322.5600    13.0923    -0.0054
 1010   20.180   3086.66    12.9025     0.1071     0.1328     0.2018    12.9583     0.8227   322.8800    12.6354    -0.0055
 1011   20.200   3087.70    12.9935     0.1034     0.1438     0.2020    13.0499     0.8013   323.2000    12.7267    -0.0053
 1012   20.220   3088.70    13.3884     0.0950     0.1642     0.2022    13.4543     0.7183   323.5200    13.1308    -0.0034
 1013   20.240   3089.74    13.6505     0.0834     0.1537     0.2024    13.7186     0.6132   323.8400    13.3948    -0.0030
 1014   20.260   3090.80    13.5244     0.0643     0.0881     0.2026    13.5750     0.4724   324.1600    13.2508    -0.0062
 1015   20.280   3091.86    13.1781     0.0552     0.0199     0.2028    13.1922     0.4142   324.4800    12.8677    -0.0132
 1016   20.300   3092.92    12.7035     0.0589    -0.0011     0.2030    12.7034     0.4568   324.8000    12.3786    -0.0164
 1017   20.320   3093.93    12.2767     0.0673    -0.0117     0.2032    12.2771     0.5407   325.1200    11.9520    -0.0169
 1018   20.340   3094.93    12.0475     0.0728    -0.0181     0.2034    12.0370     0.6039   325.4400    11.7115    -0.0195
 1019   20.360   3095.96    12.0310     0.0768    -0.0121     0.2036    12.0263     0.6342   325.7600    11.7005    -0.0184
 1020   20.380   3097.03    12.0469     0.0820     0.0028     0.2038    12.0420     0.6821   326.0800    11.7159    -0.0184
 1021   20.400   3098.06    12.1580     0.0792     0.0357     0.2040    12.1697     0.6535   326.4000    11.8433    -0.0149
 1022   20.420   3099.08    12.3852     0.0786     0.0553     0.2042    12.4040     0.6389   326.7200    12.0773    -0.0132
 1023   20.440   3100.15    12.8064     0.0803     0.0828     0.2044    12.8369     0.6349   327.0400    12.5098    -0.0106
 1024   20.460   3101.21    13.3453     0.0829     0.1063     0.2046    13.3851     0.6307   327.3600    13.0578    -0.0084
 1025   20.480   3102.23    13.8429     0.0888     0.1346     0.2048    13.8948     0.6483   327.6800    13.5671    -0.0060
 1026   20.500   3103.27    14.0443     0.0939     0.1416     0.2050    14.1046     0.6729   328.0000    13.7766    -0.0045
 1027   20.520   3104.29    14.0869     0.0989     0.1544     0.2052    14.1489     0.7010   328.3200    13.8206    -0.0042
 1028   20.540   3105.39    14.0239     0.1038     0.1645     0.2054    14.0906     0.7392   328.6400    13.7620    -0.0034
 1029   20.560   3106.42    13.9956     0.1078     0.1699     0.2056    14.0668     0.7710   328.9600    13.7378    -0.0026
 1030   20.580   3107.47    14.0053     0.1111     0.1791     0.2058    14.0794     0.7937   329.2800    13.7501    -0.0021
 1031   20.600   3108.50    14.0333     0.1106     0.1775     0.2060    14.1079     0.7879   329.6000    13.7783    -0.0021
 1032   20.620   3109.51    14.1111     0.1122     0.1815     0.2062    14.1879     0.7964   329.9200    13.8580    -0.0017
 1033   20.640   3110.55    14.0919     0.1121     0.1839     0.2064    14.1695     0.7953   330.2400    13.8393    -0.0016
 1034   20.660   3111.64    14.1017     0.1155     0.1829     0.2066    14.1780     0.8199   330.5600    13.8474    -0.0018
 1035   20.680   3112.69    14.1418     0.1192     0.1896     0.2068    14.2213     0.8448   330.8800    13.8904    -0.0013
 1036   20.700   3113.75    14.2407     0.1246     0.1890     0.2070    14.3198     0.8777   331.2000    13.9886    -0.0013
 1037   20.720   3114.77    14.3408     0.1292     0.1938     0.2072    14.4210     0.9021   331.5200    14.0895    -0.0012
 1038   20.740   3115.79    14.4617     0.1332     0.1985     0.2074    14.5430     0.9228   331.8400    14.2111    -0.0010
 1039   20.760   3116.80    14.2602     0.1336     0.2004     0.2076    14.3459     0.9244   332.1600    14.0137    -0.0003
 1040   20.780   3117.84    13.7883     0.1381     0.1970     0.2078    13.8712     0.9962   332.4800    13.5387    -0.0008
 1041   20.800   3118.91    13.4879     0.1388     0.1910     0.2080    13.5672     1.0247   332.8000    13.2344    -0.0015
 1042   20.820   3129.12    13.7994     0.1342     0.1961     0.2082    13.8812     1.0014   333.1200    13.5481    -0.0010
 1043   20.840   3145.75    14.5248     0.1306     0.1995     0.2084    14.6081     0.9740   333.4400    14.2747    -0.0007
 1044   20.860   3152.64    15.2835     0.1285     0.2103     0.2086    15.3737     0.8597   333.7600    15.0400     0.0004
 1045   20.880   3153.71    15.7347     0.1266     0.1809     0.2088    15.8175     0.8096   334.0800    15.4834    -0.0007
 1046   20.900   3154.78    16.0000     0.1297     0.1276     0.2090    16.0606     0.8167   334.4000    15.7262    -0.0041
 1047   20.920   3155.78    16.4514     0.1305     0.1054     0.2092    16.4988     0.8038   334.7200    16.1641    -0.0060
 1048   20.940   3156.79    16.9324     0.1310     0.1074     0.2094    16.9762     0.7811   335.0400    16.6412    -0.0063
 1049   20.960   3157.80    17.1689     0.1383     0.1292     0.2096    17.2190     0.8077   335.3600    16.8837    -0.0053
 1050   20.980   3158.86    16.8813     0.1499     0.1358     0.2098    16.9388     0.8776   335.6800    16.6031    -0.0044
 1051   21.000   3159.96    16.0244     0.1527     0.1370     0.2100    16.0829     0.9521   336.0000    15.7469    -0.0045
 1052   21.020   3160.98    15.3060     0.1498     0.1420     0.2102    15.3646     0.9599   336.3200    15.0283    -0.0047
 1053   21.040   3162.01    14.8947     0.1422     0.1604     0.2104    14.9605     0.9484   336.6400    14.6238    -0.0037
 1054   21.060   3163.03    15.4127     0.1323     0.1828     0.2106    15.4832     0.8725   336.9600    15.1463    -0.0028
 1055   21.080   3164.07    15.9174     0.1271     0.2068     0.2108    16.0030     0.8048   337.2800    15.6657    -0.0005
 1056   21.100   3165.10    15.6321     0.1236     0.1552     0.2110    15.7033     0.7834   337.6000    15.3657    -0.0027
 1057   21.120   3166.10    15.3650     0.1180     0.1421     0.2112    15.4267     0.7640   337.9200    15.0888    -0.0043
 1058   21.140   3167.19    15.2075     0.1104     0.1081     0.2114    15.2576     0.7229   338.2400    14.9193    -0.0062
 1059   21.160   3168.27    15.1698     0.1126     0.1228     0.2116    15.2164     0.7415   338.5600    14.8778    -0.0068
 1060   21.180   3169.28    15.0093     0.1202     0.1670     0.2118    15.0769     0.7984   338.8800    14.7380    -0.0034
 1061   21.200   3170.32    14.7881     0.1291     0.1585     0.2120    14.8556     0.8678   339.2000    14.5164    -0.0035
 1062   21.220   3171.35    14.4610     0.1283     0.1643     0.2122    14.5300     0.8768   339.5200    14.1904    -0.0034
 1063   21.240   3172.35    13.9391     0.1280     0.1748     0.2124    14.0101     0.9042   339.8400    13.6702    -0.0032
 1064   21.260   3173.39    13.4474     0.1219     0.1902     0.2126    13.5254     0.8989   340.1600    13.1853    -0.0020
 1065   21.280   3174.45    13.3191     0.1170     0.1930     0.2128    13.3995     0.8776   340.4800    13.0590    -0.0016
 1066   21.300   3175.47    13.5265     0.1130     0.1998     0.2130    13.6114     0.8433   340.8000    13.2706    -0.0008
 1067   21.320   3176.54    13.9426     0.1108     0.1931     0.2132    14.0253     0.8053   341.1200    13.6842    -0.0012
 1068   21.340   3177.55    14.3897     0.1086     0.1606     0.2134    14.4616     0.7605   341.4400    14.1202    -0.0030
 1069   21.360   3178.63    14.8035     0.1071     0.1450     0.2136    14.8651     0.7295   341.7600    14.5233    -0.0046
 1070   21.380   3179.66    15.0873     0.1124     0.1196     0.2138    15.1420     0.7467   342.0800    14.8000    -0.0056
 1071   21.400   3180.70    15.2396     0.1216     0.1317     0.2140    15.2924     0.7993   342.4000    14.9500    -0.0059
 1072   21.420   3181.72    14.9409     0.1240     0.1474     0.2142    15.0028     0.8220   342.7200    14.6601    -0.0045
 1073   21.440   3182.73    14.5929     0.1272     0.1767     0.2144    14.6643     0.8653   343.0400    14.3213    -0.0031
 1074   21.460   3183.77    14.1911     0.1316     0.1804     0.2146    14.2678     0.9161   343.3600    13.9244    -0.0023
 1075   21.480   3184.80    13.4832     0.1380     0.1980     0.2148    13.5642     1.0024   343.6800    13.2205    -0.0017
 1076   21.500   3185.90    12.7780     0.1413     0.1718     0.2150    12.8573     1.0821   344.0000    12.5133    -0.0021
 1077   21.520   3186.94    12.1428     0.1337     0.1457     0.2152    12.2068     1.0799   344.3200    11.8625    -0.0053
 1078   21.540   3188.01    11.3324     0.1253     0.1586     0.2154    11.3935     1.0728   344.6400    11.0489    -0.0063
 1079   21.560   3189.00    10.6856     0.1285     0.1940     0.2156    10.7604     1.1782   344.9600    10.4154    -0.0036
 1080   21.580   3190.03    10.3235     0.1271     0.2071     0.2158    10.4114     1.2233   345.2800    10.0661    -0.0007
 1081   21.600   3191.08    10.8944     0.1272     0.2202     0.2160    10.9871     1.2025   345.6000    10.6415     0.0004
 1082   21.620   3192.13    11.9775     0.1334     0.1881     0.2162    12.0667     1.1456   345.9200    11.7208    -0.0003
 1083   21.640   3193.18    11.9688     0.1449     0.1933     0.2164    12.0492     1.2119   346.2400    11.7030    -0.0021
 1084   21.660   3194.21    11.0731     0.1555     0.1099     0.2166    11.1351     1.3520   346.5600    10.7886    -0.0065
 1085   21.680   3195.24     9.5020     0.1521     0.0465     0.2168     9.5297     1.4878   346.8800     9.1828    -0.0166
 1086   21.700   3196.26     8.0526     0.1527     0.0824     0.2170     8.0810     1.8045   347.2000     7.7338    -0.0193
 1087   21.720   3197.26     7.5367     0.1407     0.1425     0.2172     7.5855     1.8580   347.5200     7.2380    -0.0140
 1088   21.740   3198.31     7.9125     0.1344     0.2701     0.2174     8.0095     1.7246   347.8400     7.6617     0.0017
 1089   21.760   3199.35     8.2755     0.1297     0.1848     0.2176     8.3688     1.5953   348.1600     8.0206     0.0006
 1090   21.780   3200.44     8.9646     0.1365     0.1639     0.2178     9.0313     1.5838   348.4800     8.6828    -0.0068
 1091   21.800   3201.48    10.1106     0.1400     0.1875     0.2180    10.2025     1.3830   348.8000     9.8537     0.0001
 1092   21.820   3202.55    12.1228     0.1237     0.1297     0.2182    12.1902     1.0185   349.1200    11.8411    -0.0049
 1093   21.840   3203.59    14.6404     0.0904     0.1183     0.2184    14.6888     0.6323   349.4400    14.3394    -0.0072
 1094   21.860   3204.60    16.6105     0.0775     0.0886     0.2186    16.6585     0.4767   349.7600    16.3087    -0.0064
 1095   21.880   3205.66    18.3079     0.0789     0.0470     0.2188    18.3322     0.4408   350.0800    17.9821    -0.0090
 1096   21.900   3206.66    19.1408     0.0915     0.0037     0.2190    19.1483     0.4839   350.4000    18.7979    -0.0107
 1097   21.920   3207.59    19.6329     0.1078    -0.0024     0.2192    19.6339     0.5515   350.7200    19.2832    -0.0112
 1098   21.940   3208.60    19.8617     0.1165    -0.0054     0.2194    19.8613     0.5874   351.0400    19.5102    -0.0113
 1099   21.960   3209.55    19.7797     0.1112    -0.0011     0.2196    19.7795     0.5615   351.3600    19.4281    -0.0113
 1100   21.980   3210.48    19.1005     0.1061    -0.0031     0.2198    19.0995     0.5519   351.6800    18.7478    -0.0118
 1101   22.000   3211.43    17.4568     0.0953    -0.0026     0.2200    17.4555     0.5456   352.0000    17.1035    -0.0131
 1102   22.020   3212.41    15.4498     0.0892    -0.0048     0.2202    15.4491     0.5464   352.3200    15.0968    -0.0147
 1103   22.040   3213.47    13.8212     0.0878    -0.0203     0.2204    13.8148     0.6088   352.6400    13.4622    -0.0175
 1104   22.060   3214.50    12.0136     0.0937    -0.0204     0.2206    12.0040     0.7736   352.9600    11.6510    -0.0209
 1105   22.080   3215.50    10.1987     0.1062    -0.0131     0.2208    10.1922     0.9637   353.2800     9.8390    -0.0240
 1106   22.100   3216.48     8.2830     0.1158     0.0233     0.2210     8.2873     1.3067   353.6000     7.9337    -0.0266
 1107   22.120   3217.52     6.9886     0.1165     0.0742     0.2212     7.0092     1.5605   353.9200     6.6552    -0.0259
 1108   22.140   3218.59     6.1259     0.1008     0.1387     0.2214     6.1790     1.5749   354.2400     5.8247    -0.0163
 1109   22.160   3219.62     5.6739     0.0993     0.2176     0.2216     5.7547     1.7125   354.5600     5.4002    -0.0054
 1110   22.180   3220.64     6.2945     0.0981     0.2088     0.2218     6.3881     1.6572   354.8800     6.0332     0.0003
 1111   22.200   3221.71     8.1666     0.1025     0.1780     0.2220     8.2527     1.3923   355.2000     7.8975    -0.0020
 1112   22.220   3222.72    11.1343     0.1029     0.1723     0.2222    11.2035     1.0031   355.5200    10.8480    -0.0054
 1113   22.240   3223.75    13.4954     0.0975     0.0516     0.2224    13.5272     0.7280   355.8400    13.1714    -0.0111
 1114   22.260   3224.84    15.5794     0.0872     0.0570     0.2226    15.6043     0.5765   356.1600    15.2481    -0.0107
 1115   22.280   3225.94    17.9088     0.0713     0.0174     0.2228    17.9189     0.4177   356.4800    17.5624    -0.0113
 1116   22.300   3226.94    19.6838     0.0650    -0.0168     0.2230    19.6792     0.3407   356.8000    19.3224    -0.0121
 1117   22.320   3227.88    20.6665     0.0703    -0.0440     0.2232    20.6517     0.3443   357.1200    20.2946    -0.0127
 1118   22.340   3228.85    20.7184     0.0831    -0.0550     0.2234    20.6973     0.4003   357.4400    20.3399    -0.0134
 1119   22.360   3229.79    20.8517     0.0921    -0.0826     0.2236    20.8206     0.4440   357.7600    20.4629    -0.0145
 1120   22.380   3230.69    21.4116     0.1011    -0.0845     0.2238    21.3759     0.4769   358.0800    21.0178    -0.0147
 1121   22.400   3231.69    21.8444     0.1144    -0.0589     0.2240    21.8149     0.5250   358.4000    21.4565    -0.0137
 1122   22.420   3232.66    21.4693     0.1161    -0.0122     0.2242    21.4561     0.5361   358.7200    21.0974    -0.0121
 1123   22.440   3233.64    20.7751     0.1043     0.0130     0.2244    20.7803     0.4974   359.0400    20.4213    -0.0104
 1124   22.460   3234.58    20.3022     0.1010     0.0388     0.2246    20.3127     0.4951   359.3600    19.9533    -0.0100
 1125   22.480   3235.56    19.9165     0.1077     0.0710     0.2248    19.9415     0.5388   359.6800    19.5818    -0.0084
 1126   22.500   3236.45    19.9480     0.1110     0.0904     0.2250    19.9848     0.5573   360.0000    19.6248    -0.0070
 1127   22.520   3237.46    20.7397     0.1145     0.1074     0.2252    20.7816     0.5607   360.3200    20.4213    -0.0061
 1128   22.540   3238.45    22.3071     0.1114     0.1258     0.2254    22.3561     0.5119   360.6400    21.9955    -0.0049
 1129   22.560   3239.46    24.2173     0.1070     0.1517     0.2256    24.2813     0.4550   360.9600    23.9203    -0.0031
 1130   22.580   3240.41    25.6047     0.1126     0.0807     0.2258    25.6523     0.4460   361.2800    25.2910    -0.0044
 1131   22.600   3241.39    26.3470     0.1179     0.0303     0.2260    26.3655     0.4509   361.6000    26.0039    -0.0070
 1132   22.620   3242.31    26.5165     0.1194    -0.0130     0.2262    26.5156     0.4502   361.9200    26.1537    -0.0087
 1133   22.640   3243.29    26.2420     0.1319    -0.0114     0.2264    26.2371     0.4999   362.2400    25.8749    -0.0092
 1134   22.660   3244.23    25.6190     0.1456    -0.0295     0.2266    25.6082     0.5636   362.5600    25.2457    -0.0100
 1135   22.680   3245.20    25.1102     0.1457    -0.0251     0.2268    25.0991     0.5774   362.8800    24.7362    -0.0102
 1136   22.700   3246.20    24.5774     0.1321    -0.0022     0.2270    24.5736     0.5356   363.2000    24.2104    -0.0097
 1137   22.720   3247.16    23.9133     0.1180     0.0247     0.2272    23.9194     0.4914   363.5200    23.5559    -0.0090
 1138   22.740   3248.14    23.2630     0.1114     0.0461     0.2274    23.2794     0.4770   363.8400    22.9156    -0.0082
 1139   22.760   3249.09    23.0850     0.1092     0.0685     0.2276    23.1110     0.4730   364.1600    22.7469    -0.0073
 1140   22.780   3250.09    23.3117     0.1050     0.0863     0.2278    23.3464     0.4516   364.4800    22.9819    -0.0063
 1141   22.800   3258.17    23.8685     0.0997     0.1177     0.2280    23.9130     0.4230   364.8000    23.5482    -0.0052
 1142   22.820   3272.45    24.4124     0.0940     0.1519     0.2282    24.4713     0.3989   365.1200    24.1062    -0.0037
 1143   22.840   3278.63    24.2431     0.0901     0.1457     0.2284    24.3030     0.3686   365.4400    23.9376    -0.0036
 1144   22.860   3279.61    22.8001     0.0879     0.1631     0.2286    22.8637     0.3790   365.7600    22.4980    -0.0034
 1145   22.880   3280.53    21.0177     0.0946     0.1616     0.2288    21.0835     0.4440   366.0800    20.7175    -0.0035
 1146   22.900   3281.47    18.5583     0.1076     0.1616     0.2290    18.6268     0.5801   366.4000    18.2604    -0.0036
 1147   22.920   3282.41    15.9332     0.1108     0.1709     0.2292    16.0030     0.6505   366.7200    15.6363    -0.0040
 1148   22.940   3283.39    13.4340     0.1206     0.1819     0.2294    13.5086     0.8363   367.0400    13.1416    -0.0039
 1149   22.960   3284.45    12.2924     0.1308     0.2123     0.2296    12.3745     1.0418   367.3600    12.0072    -0.0028
 1150   22.980   3285.49    11.9608     0.1404     0.2407     0.2298    12.0585     1.1587   367.6800    11.6909     0.0002
 1151   23.000   3286.56    11.7322     0.1450     0.2097     0.2300    11.8293     1.2363   368.0000    11.4613     0.0001
 1152   23.020   3287.57    11.6597     0.1606     0.2000     0.2302    11.7454     1.3791   368.3200    11.3770    -0.0023
 1153   23.040   3288.60    12.2656     0.1888     0.2079     0.2304    12.3467     1.5505   368.6400    11.9781    -0.0031
 1154   23.060   3289.65    13.5493     0.1901     0.1862     0.2306    13.6406     1.4455   368.9600    13.2716    -0.0010
 1155   23.080   3290.68    15.4585     0.2225     0.0648     0.2308    15.5157     1.4897   369.2800    15.1465    -0.0062
 1156   23.100   3291.68    17.4822     0.2916    -0.0686     0.2310    17.4609     1.7002   369.6000    17.0913    -0.0165
 1157   23.120   3292.63    17.1248     0.2971    -0.1968     0.2312    17.0786     1.7069   369.9200    16.7087    -0.0206
 1158   23.140   3293.59    13.9532     0.2863    -0.2448     0.2314    13.8525     2.0330   370.2400    13.4823    -0.0350
 1159   23.160   3294.53    11.3116     0.2747    -0.2108     0.2316    11.2141     2.4137   370.5600    10.8436    -0.0428
 1160   23.180   3295.49     8.8676     0.2356    -0.1055     0.2318     8.8016     2.4049   370.8800     8.4307    -0.0461
 1161   23.200   3296.54     6.3346     0.2344     0.2268     0.2320     6.3752     3.7077   371.2000     6.0040    -0.0225
 1162   23.220   3297.55     5.3868     0.2043     0.7439     0.2322     5.6470     3.7928   371.5200     5.2754     0.0734
 1163   23.240   3298.67     5.5163     0.1658     0.8765     0.2324     5.8646     3.0137   371.8400     5.4928     0.1086
 1164   23.260   3299.69     5.9350     0.1411     0.8990     0.2326     6.3316     2.4479   372.1600     5.9594     0.1194
 1165   23.280   3300.69     6.0447     0.1306     0.7035     0.2328     6.3420     2.1592   372.4800     5.9696     0.0796
 1166   23.300   3301.68     5.6718     0.1341     1.0665     0.2330     6.0549     2.3439   372.8000     5.6821     0.1196
 1167   23.320   3302.67     5.5794     0.1536     1.1738     0.2332     6.0861     2.7805   373.1200     5.7129     0.1705
 1168   23.340   3303.76     5.9704     0.1505     1.2216     0.2334     6.4810     2.5202   373.4400     6.1076     0.1608
 1169   23.360   3304.83     6.7778     0.1435     0.8962     0.2336     7.2140     2.1168   373.7600     6.8403     0.1182
 1170   23.380   3305.81     7.4672     0.1394     0.5423     0.2338     7.7406     1.9325   374.0800     7.3665     0.0568
 1171   23.400   3306.81     7.5890     0.1457     0.4979     0.2340     7.7877     1.9376   374.4000     7.4133     0.0323
 1172   23.420   3307.84     7.2239     0.1726     0.5722     0.2342     7.4697     2.3558   374.7200     7.0950     0.0495
 1173   23.440   3308.86     7.4204     0.1811     0.6123     0.2344     7.6616     2.4410   375.0400     7.2866     0.0467
 1174   23.460   3309.92     6.7861     0.1684     0.6119     0.2346     7.0693     2.4626   375.3600     6.6939     0.0657
 1175   23.480   3310.96     5.7023     0.1599     0.2411     0.2348     5.8390     2.7511   375.6800     5.4633     0.0161
 1176   23.500   3311.95     4.8347     0.1383     0.3503     0.2350     4.9577     2.7822   376.0000     4.5817     0.0128
 1177   23.520   3312.96     4.0744     0.1252     0.5111     0.2352     4.2630     3.0306   376.3200     3.8866     0.0551
 1178   23.540   3313.94     3.5255     0.1112     0.7587     0.2354     3.8103     3.1494   376.6400     3.4337     0.1293
 1179   23.560   3314.93     3.3542     0.0670     0.8415     0.2356     3.7045     1.9890   376.9600     3.3276     0.1799
 1180   23.580   3315.95     3.2759     0.0547     0.8643     0.2358     3.6349     1.6687   377.2800     3.2576     0.1900
 1181   23.600   3316.99     3.1925     0.0545     0.8908     0.2360     3.5625     1.7018   377.6000     3.1849     0.2025
 1182   23.620   3318.00     3.2458     0.0535     0.9384     0.2362     3.6293     1.6612   377.9200     3.2513     0.2082
 1183   23.640   3318.99     3.1927     0.0546     0.9306     0.2364     3.5895     1.7001   378.2400     3.2112     0.2206
 1184   23.660   3319.98     3.2981     0.0565     0.8684     0.2366     3.6722     1.7269   378.5600     3.2936     0.1986
 1185   23.680   3320.97     3.1299     0.0595     0.9235     0.2368     3.5160     1.8872   378.8800     3.1371     0.2177
 1186   23.700   3321.96     2.7361     0.0603     0.9246     0.2370     3.1215     2.1861   379.2000     2.7423     0.2482
 1187   23.720   3322.94     2.6148     0.0607     0.9340     0.2372     3.0074     2.3091   379.5200     2.6279     0.2654
 1188   23.740   3323.90     2.5476     0.0473     0.9504     0.2374     2.9429     1.8523   379.8400     2.5631     0.2746
 1189   23.760   3324.92     2.4731     0.0435     0.9507     0.2376     2.8747     1.7527   380.1600     2.4945     0.2880
 1190   23.780   3325.96     2.4206     0.0424     0.9765     0.2378     2.8287     1.7457   380.4800     2.4483     0.2998
 1191   23.800   3326.97     2.4344     0.0431     1.0025     0.2380     2.8475     1.7759   380.8000     2.4667     0.3023
 1192   23.820   3327.98     2.4655     0.0443     1.0432     0.2382     2.9026     1.8014   381.1200     2.5214     0.3182
 1193   23.840   3328.91     2.4923     0.0469     1.0317     0.2384     2.9310     1.8823   381.4400     2.5495     0.3162
 1194   23.860   3329.89     2.4795     0.0493     1.0336     0.2386     2.9110     1.9833   381.7600     2.5292     0.3119
 1195   23.880   3330.94     2.5166     0.0506     1.0345     0.2388     2.9465     2.0187   382.0800     2.5645     0.3061
 1196   23.900   3331.94     2.5309     0.0526     1.0580     0.2390     2.9713     2.0766   382.4000     2.5889     0.3127
 1197   23.920   3332.94     2.4882     0.0549     1.0777     0.2392     2.9359     2.2043   382.7200     2.5532     0.3238
 1198   23.940   3333.96     2.3672     0.0574     1.1070     0.2394     2.8311     2.4176   383.0400     2.4480     0.3534
 1199   23.960   3334.93     2.3136     0.0587     1.1304     0.2396     2.7832     2.5330   383.3600     2.3998     0.3660
 1200   23.980   3335.91     2.2847     0.0561     1.1625     0.2398     2.7691     2.4548   383.6800     2.3854     0.3830
 1201   24.000   3336.92     2.3187     0.0525     1.1932     0.2400     2.8159     2.2683   384.0000     2.4319     0.3881
 1202   24.020   3337.91     2.3743     0.0545     1.2373     0.2402     2.8860     2.3040   384.3200     2.5017     0.3910
 1203   24.040   3338.93     2.4702     0.0521     1.3096     0.2404     3.0104     2.1222   384.6400     2.6258     0.3983
 1204   24.060   3339.94     2.5488     0.0529     1.3360     0.2406     3.1100     2.0780   384.9600     2.7250     0.4020
 1205   24.080   3340.94     2.4407     0.0611     1.2900     0.2408     2.9983     2.4935   385.2800     2.6130     0.4159
 1206   24.100   3341.87     2.4210     0.0641     1.2881     0.2410     2.9526     2.6453   385.6000     2.5670     0.3992
 1207   24.120   3342.92     2.5641     0.0643     1.3394     0.2412     3.1197     2.5372   385.9200     2.7338     0.3958
 1208   24.140   3343.86     2.7479     0.0611     1.3025     0.2414     3.3164     2.2464   386.2400     2.9302     0.3797
 1209   24.160   3344.92     2.7381     0.0558     1.2640     0.2416     3.2687     2.0085   386.5600     2.8822     0.3547
 1210   24.180   3345.92     2.5415     0.0719     1.3187     0.2418     3.0781     2.8144   386.8800     2.6912     0.3850
 1211   24.200   3346.90     2.5591     0.0909     1.3425     0.2420     3.1234     3.6063   387.2000     2.7362     0.4029
 1212   24.220   3347.90     3.0730     0.0824     1.3124     0.2422     3.6361     2.7506   387.5200     3.2486     0.3388
 1213   24.240   3348.86     3.6649     0.0793     1.0397     0.2424     4.1521     2.1921   387.8400     3.7642     0.2443
 1214   24.260   3349.88     3.6046     0.0791     0.8047     0.2426     3.9498     2.1824   388.1600     3.5617     0.1625
 1215   24.280   3350.90     3.1848     0.0818     0.9360     0.2428     3.5544     2.5228   388.4800     3.1659     0.2018
 1216   24.300   3351.92     2.6938     0.0861     1.0343     0.2430     3.1014     3.1308   388.8000     2.7126     0.2683
 1217   24.320   3352.94     2.4590     0.0736     1.2405     0.2432     2.9574     2.9775   389.1200     2.5683     0.3674
 1218   24.340   3353.87     2.4884     0.0527     1.3009     0.2434     3.0287     2.1293   389.4400     2.6392     0.3952
 1219   24.360   3354.89     2.5917     0.0522     1.3268     0.2436     3.1458     2.0236   389.7600     2.7561     0.3903
 1220   24.380   3355.92     2.5230     0.0553     1.1997     0.2438     3.0354     2.1837   390.0800     2.6453     0.3687
 1221   24.400   3356.91     2.5313     0.0568     1.2261     0.2440     3.0459     2.2522   390.4000     2.6555     0.3695
 1222   24.420   3357.94     2.5242     0.0570     1.2463     0.2442     3.0514     2.2520   390.7200     2.6606     0.3800
 1223   24.440   3358.92     2.4766     0.0580     1.1407     0.2444     2.9657     2.3395   391.0400     2.5746     0.3573
 1224   24.460   3359.89     2.1847     0.0574     1.2207     0.2446     2.6787     2.5949   391.3600     2.2873     0.4078
 1225   24.480   3360.88     2.0684     0.0577     1.2916     0.2448     2.6042     2.7847   391.6800     2.2125     0.4659
 1226   24.500   3361.87     2.0377     0.0534     1.2933     0.2450     2.5848     2.6121   392.0000     2.1928     0.4823
 1227   24.520   3362.90     1.9958     0.0448     1.2942     0.2452     2.5390     2.2387   392.3200     2.1466     0.4883
 1228   24.540   3363.92     1.9740     0.0439     1.3105     0.2454     2.5222     2.2177   392.6400     2.1295     0.4977
 1229   24.560   3364.90     1.9760     0.0430     1.3173     0.2456     2.5281     2.1767   392.9600     2.1352     0.5006
 1230   24.580   3365.87     1.9816     0.0411     1.3093     0.2458     2.5348     2.0737   393.2800     2.1416     0.5003
 1231   24.600   3366.87     1.9716     0.0428     1.3204     0.2460     2.5223     2.1564   393.6000     2.1287     0.5004
 1232   24.620   3367.85     1.9764     0.0494     1.3428     0.2462     2.5376     2.4936   393.9200     2.1437     0.5085
 1233   24.640   3368.88     2.0751     0.0571     1.3350     0.2464     2.6357     2.8359   394.2400     2.2414     0.4857
 1234   24.660   3369.90     2.2267     0.0545     1.2986     0.2466     2.7815     2.5240   394.5600     2.3869     0.4503
 1235   24.680   3370.90     2.3600     0.0582     1.2048     0.2468     2.8760     2.4648   394.8800     2.4811     0.3956
 1236   24.700   3372.16     2.2897     0.0574     1.1531     0.2470     2.7775     2.5017   395.2000     2.3823     0.3838
 1237   24.720   3386.96     2.3347     0.0501     1.1291     0.2472     2.8124     2.1886   395.5200     2.4168     0.3685
 1238   24.740   3400.61     2.3636     0.0457     1.2031     0.2474     2.8392     1.9335   395.8400     2.4433     0.3623
 1239   24.760   3401.58     2.3425     0.0605     1.2184     0.2476     2.8459     2.5891   396.1600     2.4497     0.3882
 1240   24.780   3402.64     2.2963     0.0635     1.4258     0.2478     2.8752     2.8086   396.4800     2.4787     0.4563
 1241   24.800   3403.65     2.8185     0.0657     1.3590     0.2480     3.4099     2.3951   396.8000     3.0131     0.3857
 1242   24.820   3404.62     3.2502     0.0665     0.9642     0.2482     3.7198     2.0499   397.1200     3.3227     0.2616
 1243   24.840   3405.62     3.1374     0.0628     0.8548     0.2484     3.5005     1.9800   397.4400     3.1030     0.1986
 1244   24.860   3406.56     2.7787     0.0669     0.8951     0.2486     3.1777     2.4006   397.7600     2.7799     0.2522
 1245   24.880   3407.55     2.5412     0.0705     1.0558     0.2488     2.9458     2.7448   398.0800     2.5477     0.2806
 1246   24.900   3408.59     2.2983     0.0676     1.2317     0.2490     2.7936     2.9326   398.4000     2.3952     0.3885
 1247   24.920   3409.58     2.3159     0.0622     1.2882     0.2492     2.8456     2.6987   398.7200     2.4469     0.4136
 1248   24.940   3410.59     2.3563     0.0593     1.2229     0.2494     2.8881     2.5201   399.0400     2.4890     0.4084
 1249   24.960   3411.60     2.2456     0.0453     1.1479     0.2496     2.7416     1.9958   399.3600     2.3422     0.3976
 1250   24.980   3412.60     2.1464     0.0334     1.0409     0.2498     2.6098     1.5482   399.6800     2.2101     0.3861
 1251   25.000   3413.60     2.0235     0.0396     1.2466     0.2500     2.5167     1.9608   400.0000     2.1167     0.4366
 1252   25.020   3414.54     2.2283     0.0542     1.3909     0.2502     2.7965     2.4264   400.3200     2.3961     0.4603
 1253   25.040   3415.52     3.3890     0.0895     1.4574     0.2504     3.9955     2.6977   400.6400     3.5949     0.3327
 1254   25.060   3416.56     5.6099     0.1117     1.0452     0.2506     6.1420     2.0310   400.9600     5.7410     0.1775
 1255   25.080   3417.62     6.6871     0.1098     0.2641     0.2508     6.8630     1.6401   401.2800     6.4618     0.0258
 1256   25.100   3418.63     5.8571     0.1130     0.1477     0.2510     5.9037     1.8957   401.6000     5.5021    -0.0254
 1257   25.120   3419.62     4.7485     0.1128     0.2839     0.2512     4.8542     2.3061   401.9200     4.4523     0.0003
 1258   25.140   3420.61     3.9201     0.1169     0.2795     0.2514     4.0663     2.9032   402.2400     3.6640     0.0260
 1259   25.160   3421.60     3.3464     0.1189     0.6414     0.2516     3.5478     3.5291   402.5600     3.1453     0.0724
 1260   25.180   3422.63     3.8060     0.1058     0.7234     0.2518     4.1197     2.8531   402.8800     3.7168     0.1335
 1261   25.200   3423.64     4.2210     0.0878     0.7309     0.2520     4.5270     2.1085   403.2000     4.1238     0.1157
 1262   25.220   3424.60     4.5059     0.0962     0.5675     0.2522     4.7676     2.1369   403.5200     4.3641     0.0850
 1263   25.240   3425.58     4.6119     0.0919     0.4986     0.2524     4.8159     1.9917   403.8400     4.4121     0.0529
 1264   25.260   3426.61     4.4461     0.0822     0.5815     0.2526     4.6789     1.8417   404.1600     4.2748     0.0707
 1265   25.280   3427.57     4.1056     0.0888     0.5775     0.2528     4.3888     2.1632   404.4800     3.9843     0.1058
 1266   25.300   3428.61     4.4491     0.1055     0.6836     0.2530     4.6965     2.3875   404.8000     4.2917     0.0780
 1267   25.320   3429.65     5.2673     0.1176     0.7433     0.2532     5.5726     2.2587   405.1200     5.1674     0.0918
 1268   25.340   3430.67     6.2300     0.1260     0.1596     0.2534     6.3497     2.0324   405.4400     5.9443     0.0056
 1269   25.360   3431.66     6.3592     0.1254     0.1201     0.2536     6.4111     1.9628   405.7600     6.0054    -0.0217
 1270   25.380   3432.65     5.9007     0.1243     0.1673     0.2538     5.9631     2.1080   406.0800     5.5570    -0.0189
 1271   25.400   3433.64     4.9013     0.1164     0.2820     0.2540     5.0101     2.2539   406.4000     4.6037     0.0013
 1272   25.420   3434.68     3.9276     0.1154     0.3827     0.2542     4.0742     2.9443   406.7200     3.6675     0.0261
 1273   25.440   3435.71     3.9266     0.1055     0.6045     0.2544     4.1196     2.6953   407.0400     3.7125     0.0541
 1274   25.460   3436.70     4.7446     0.1022     0.7476     0.2546     5.0642     2.1791   407.3600     4.6569     0.1093
 1275   25.480   3437.74     6.2938     0.1155     0.4596     0.2548     6.5230     1.8400   407.6800     6.1153     0.0479
 1276   25.500   3438.79     7.4921     0.1249     0.2212     0.2550     7.5990     1.6750   408.0000     7.1910     0.0000
 1277   25.520   3439.81     7.8809     0.1351     0.1921     0.2552     7.9681     1.7347   408.3200     7.5598    -0.0063
 1278   25.540   3440.83     7.6202     0.1237     0.1393     0.2554     7.6784     1.6160   408.6400     7.2698    -0.0161
 1279   25.560   3441.81     7.3883     0.1115     0.1888     0.2556     7.4573     1.4972   408.9600     7.0484    -0.0129
 1280   25.580   3442.83     7.6406     0.1070     0.3122     0.2558     7.7594     1.4004   409.2800     7.3501     0.0036
 1281   25.600   3443.86     9.0832     0.1076     0.2805     0.2560     9.2061     1.1865   409.6000     8.7965     0.0042
 1282   25.620   3444.92    11.0535     0.1050     0.2083     0.2562    11.1472     0.9493   409.9200    10.7373    -0.0030
 1283   25.640   3445.94    11.8197     0.1124     0.0381     0.2564    11.8638     0.9507   410.2400    11.4536    -0.0132
 1284   25.660   3446.98    11.6401     0.1249    -0.0024     0.2566    11.6375     1.0736   410.5600    11.2269    -0.0234
 1285   25.680   3447.94    10.8915     0.1282     0.0058     0.2568    10.8927     1.1409   410.8800    10.4819    -0.0242
 1286   25.700   3448.96     9.7812     0.1338     0.0368     0.2570     9.7894     1.3083   411.2000     9.3782    -0.0253
 1287   25.720   3450.04     8.9041     0.1357     0.1248     0.2572     8.9387     1.4720   411.5200     8.5272    -0.0205
 1288   25.740   3451.07     8.7369     0.1392     0.2446     0.2574     8.8204     1.5878   411.8400     8.4085    -0.0070
 1289   25.760   3452.06     8.7500     0.1389     0.1339     0.2576     8.8351     1.5979   412.1600     8.4229    -0.0065
 1290   25.780   3453.13    10.3575     0.1191     0.1200     0.2578    10.4138     1.2206   412.4800    10.0013    -0.0124
 1291   25.800   3454.14    12.6132     0.0977     0.0776     0.2580    12.6438     0.8201   412.8000    12.2310    -0.0152
 1292   25.820   3455.18    14.1475     0.0795     0.0183     0.2582    14.1707     0.5627   413.1200    13.7576    -0.0147
 1293   25.840   3456.25    15.5634     0.0678    -0.0417     0.2584    15.5451     0.4396   413.4400    15.1316    -0.0200
 1294   25.860   3457.30    16.9050     0.0536    -0.0448     0.2586    16.8907     0.3229   413.7600    16.4770    -0.0178
 1295   25.880   3461.50    18.6014     0.0681    -0.0168     0.2588    18.5891     0.4073   414.0800    18.1750    -0.0159
 1296   25.900   3466.67    19.2798     0.0832     0.0193     0.2590    19.2826     0.4973   414.4000    18.8682    -0.0135
 1297   25.920   3470.80    20.0912     0.0931     0.0102     0.2592    20.1021     0.4685   414.7200    19.6873    -0.0119
 1298   25.940   3471.77    21.2164     0.1078    -0.0519     0.2594    21.2014     0.5137   415.0400    20.7863    -0.0142
 1299   25.960   3472.71    22.4268     0.1195    -0.0681     0.2596    22.4016     0.5352   415.3600    21.9863    -0.0145
 1300   25.980   3473.70    23.6726     0.1341    -0.0738     0.2598    23.6448     0.5751   415.6800    23.2291    -0.0140
 1301   26.000   3474.69    25.2575     0.1467    -0.0536     0.2600    25.2340     0.5987   416.0000    24.8180    -0.0127
 1302   26.020   3475.72    27.4137     0.1588    -0.0411     0.2602    27.3946     0.6017   416.3200    26.9783    -0.0113
 1303   26.040   3476.71    30.0238     0.1854    -0.0258     0.2604    30.0083     0.6391   416.6400    29.5917    -0.0101
 1304   26.060   3477.70    33.1674               -0.0147     0.2606    33.1585              416.9600    32.7415    -0.0086
 1305   26.080   3478.77    36.7922                0.0187     0.2608    36.7949              417.2800    36.3776    -0.0070
 1306   26.100   3479.85    40.4773                0.0834     0.2610    40.4993              417.6000    40.0817    -0.0052
 1307   26.120   3480.85    44.4488                0.0809     0.2612    44.4914              417.9200    44.0735    -0.0036
 1308   26.140   3481.90    48.4221                0.0263     0.2614    48.4472              418.2400    48.0290    -0.0042
 1309   26.160   3482.96    49.3318                           0.2616    49.3218              418.5600    48.9033    -0.0058
 
 
