

 Program UNIPLOT                         version 05.36.02
 _______________
 (c) Fugro Netherlands Marine, Nootdorp, The Netherlands


 ASCII representation of data plotted on a graph.

 This ASCII file presents data interpolated to values per fixed depth interval.
 The data are corrected for the depth-offset differences between the various 
 transducers in the penetrometer.

 The records at the start of penetration may include no values or anomalous
 values where a depth offset implies incomplete penetration of a particular
 sensor into the ground.

 The records at the end of penetration may include no values for data channels
 where the transducer did not reach this depth.

 The reference level for test values is (1) the ground surface for onshore tests and (2) the seafloor for nearshore and offshore tests.

 UNICAS data file          : CPT-2007.000                            
 Output using command file : PlotASCII.cmd

 ASCII file created at : date          :16-Jul-2022
                         time          :12:24:33
 Project number                        :20024805                                                                                            
 Date of testing                       :14-Jul-2022                                                                                         
 Location                              :Hong Kong Offshore Wind Farm Project                                                                
 Test name                             :CPT-2007
 Penetrometer                          :F7.5CKE2HAW2/B/3285
 Serial no                             :1701-3285

 Table description:
 Column ID                             :Parameter name
 ___________________________________________________________________________________
 Rec                                   :Record ID, Record ID [-]
 Depth                                 :Depth, Depth [m]
 Time                                  :Time, Time [s]
 Cone                                  :Cone Resistance, Cone Resistance [MPa]
 Friction                              :Sleeve Friction, Sleeve Friction [MPa]
 Pore 2                                :Porewater Pressure, Porewater Pressure at Shoulder [MPa]
 HydroPress                            :Hydrostatic Pressure, Hydrostatic Pressure [MPa]
 qt                                    :Total Cone Resistance, Total Cone Resistance [MPa]
 Fric_ratio                            :Friction Ratio, Friction Ratio [%]
 SigmaVert                             :Vertical stress, Vertical stress [kPa] as specified in ground model
 Qnet                                  :Net Cone Resistance, Net Cone Resistance [MPa], unit weight as specified in ground model
 Bq                                    :Porewater Pressure Ratio, Porewater Pressure Ratio [-], unit weight as specified in ground model


 Data table:
  Rec    Depth      Time       Cone   Friction     Pore 2 HydroPress         qt Fric_ratio  SigmaVert       Qnet         Bq
   No        m         s        MPa        MPa        MPa        MPa        MPa          %        kPa        MPa          -
    1    0.000   2145.50     0.0000                           0.0000     0.0000                0.0000     0.0000           
    2    0.020   2146.56     0.0019                0.0003     0.0002     0.0020                0.3200     0.0017     0.0344
    3    0.040   2147.59     0.0040                0.0006     0.0004     0.0041                0.6400     0.0035    -0.0156
    4    0.060   2149.11     0.0051     0.0002     0.0003     0.0006     0.0053     4.5382     0.9600     0.0044     0.0190
    5    0.080   2158.80     0.0074     0.0009    -0.0008     0.0008     0.0073    17.8663     1.2800     0.0060    -0.1305
    6    0.100   2168.48     0.0098     0.0010    -0.0019     0.0010     0.0092    20.5824     1.6000     0.0076    -0.2799
    7    0.120   2176.26     0.0124     0.0010    -0.0027     0.0012     0.0114     8.1231     1.9200     0.0094    -0.3914
    8    0.140   2177.31     0.0169     0.0010    -0.0019     0.0014     0.0159     5.9286     2.2400     0.0137    -0.2923
    9    0.160   2178.33     0.0180     0.0012    -0.0001     0.0016     0.0177     6.8378     2.5600     0.0152    -0.1562
   10    0.180   2179.30     0.0204     0.0011     0.0018     0.0018     0.0209     5.0271     2.8800     0.0181    -0.0291
   11    0.200   2180.31     0.0214     0.0011     0.0008     0.0020     0.0222     5.2504     3.2000     0.0190    -0.0091
   12    0.220   2181.30     0.0274     0.0010    -0.0018     0.0022     0.0269     3.7445     3.5200     0.0233    -0.1458
   13    0.240   2182.34     0.0247     0.0009    -0.0020     0.0024     0.0237     3.4789     3.8400     0.0199    -0.2414
   14    0.260   2183.32     0.0183     0.0010     0.0009     0.0026     0.0184     5.1807     4.1600     0.0142    -0.1717
   15    0.280   2184.29     0.0188     0.0008     0.0025     0.0028     0.0196     4.2110     4.4800     0.0151    -0.0622
   16    0.300   2185.29     0.0227     0.0005     0.0032     0.0030     0.0240     2.0925     4.8000     0.0192     0.0037
   17    0.320   2186.30     0.0264     0.0006     0.0035     0.0032     0.0280     2.1171     5.1200     0.0229     0.0249
   18    0.340   2187.28     0.0289     0.0006     0.0007     0.0034     0.0295     2.1856     5.4400     0.0241    -0.0832
   19    0.360   2188.30     0.0218     0.0008     0.0023     0.0036     0.0225     3.2518     5.7600     0.0167    -0.1163
   20    0.380   2189.28     0.0167     0.0006     0.0040     0.0038     0.0183     3.3713     6.0800     0.0122    -0.0130
   21    0.400   2190.28     0.0139     0.0006     0.0054     0.0040     0.0160     4.5172     6.4000     0.0096     0.0963
   22    0.420   2191.27     0.0146     0.0012     0.0065     0.0042     0.0171     8.1612     6.7200     0.0104     0.1845
   23    0.440   2192.24     0.0143     0.0011     0.0077     0.0044     0.0174     7.6588     7.0400     0.0104     0.2887
   24    0.460   2193.24     0.0202     0.0011     0.0072     0.0046     0.0235     5.5817     7.3600     0.0162     0.2159
   25    0.480   2194.27     0.0271     0.0002     0.0064     0.0048     0.0292     0.8305     7.6800     0.0215     0.0053
   26    0.500   2195.25     0.0317     0.0004     0.0069     0.0050     0.0350     1.3618     8.0000     0.0270     0.1118
   27    0.520   2196.28     0.0584     0.0016     0.0005     0.0052     0.0599     3.2307     8.3200     0.0516    -0.0263
   28    0.540   2197.27     0.1158     0.0017    -0.0050     0.0054     0.1137     1.4815     8.6400     0.1050    -0.1005
   29    0.560   2198.29     0.1462     0.0017    -0.0118     0.0056     0.1428     1.1518     8.9600     0.1339    -0.1015
   30    0.580   2199.29     0.1426     0.0023    -0.0192     0.0058     0.1350     1.5835     9.2800     0.1257    -0.1916
   31    0.600   2200.30     0.0992     0.0028    -0.0136     0.0060     0.0922     2.6816     9.6000     0.0826    -0.2916
   32    0.620   2201.32     0.0704     0.0025    -0.0044     0.0062     0.0683     3.8283     9.9200     0.0583    -0.2133
   33    0.640   2202.31     0.0299     0.0024    -0.0074     0.0064     0.0266     8.3162    10.2400     0.0164    -0.8737
   34    0.660   2203.32     0.0359     0.0030    -0.0051     0.0066     0.0331     8.3600    10.5600     0.0225    -0.5996
   35    0.680   2204.31     0.0263     0.0018    -0.0022     0.0068     0.0252     6.8153    10.8800     0.0143    -0.6638
   36    0.700   2205.32     0.0227     0.0018    -0.0008     0.0070     0.0219     7.8340    11.2000     0.0107    -0.8210
   37    0.720   2206.32     0.0221     0.0022     0.0019     0.0072     0.0226     9.5457    11.5200     0.0111    -0.5531
   38    0.740   2207.32     0.0253     0.0025     0.0038     0.0074     0.0268     9.5354    11.8400     0.0149    -0.2605
   39    0.760   2208.32     0.0298     0.0021     0.0085     0.0076     0.0321     8.3268    12.1600     0.0200    -0.1452
   40    0.780   2209.33     0.1040     0.0022     0.0123     0.0078     0.1090     2.2228    12.4800     0.0965     0.0429
   41    0.800   2210.28     0.1450     0.0033     0.0042     0.0080     0.1498     2.4414    12.8000     0.1370     0.0271
   42    0.820   2211.25     0.1634     0.0042     0.0017     0.0082     0.1615     2.5832    13.1200     0.1483    -0.0874
   43    0.840   2212.27     0.1798     0.0048    -0.0121     0.0084     0.1826     2.8645    13.4400     0.1692    -0.0061
   44    0.860   2213.26     0.1881     0.0045    -0.0656     0.0086     0.1664     2.1928    13.7600     0.1527    -0.4184
   45    0.880   2214.24     0.0923     0.0042    -0.0606     0.0088     0.0636     3.7842    14.0800     0.0495    -3.8445
   46    0.900   2215.23     0.0747     0.0029    -0.0409     0.0090     0.0535     5.8089    14.4000     0.0391    -8.2551
   47    0.920   2216.24     0.1276     0.0032    -0.0284     0.0092     0.1161     2.5418    14.7200     0.1014    -0.3628
   48    0.940   2217.20     0.1265     0.0030    -0.0201     0.0094     0.1177     2.3188    15.0400     0.1026    -0.2991
   49    0.960   2218.19     0.1214     0.0034    -0.0322     0.0096     0.1092     2.9324    15.3600     0.0939    -0.4106
   50    0.980   2219.18     0.0444     0.0028    -0.0238     0.0098     0.0353     5.5502    15.6800     0.0197    -2.4469
   51    1.000   2220.22     0.0337     0.0024    -0.0167     0.0100     0.0259     7.0048    16.0000     0.0099    -2.9052
   52    1.020   2221.23     0.0336     0.0013    -0.0122     0.0102     0.0278     3.9690    16.3200     0.0115    -2.0792
   53    1.040   2222.27     0.0342     0.0014    -0.0076     0.0104     0.0303     4.2459    16.6400     0.0137    -1.4438
   54    1.060   2223.27     0.0366     0.0016    -0.0042     0.0106     0.0343     4.2205    16.9600     0.0173    -0.9271
   55    1.080   2224.26     0.0390     0.0012    -0.0012     0.0108     0.0382     3.2120    17.2800     0.0209    -0.6313
   56    1.100   2225.28     0.0399     0.0015     0.0005     0.0110     0.0399     3.6391    17.6000     0.0223    -0.5004
   57    1.120   2226.32     0.0410     0.0017     0.0014     0.0112     0.0415     4.1313    17.9200     0.0235    -0.4269
   58    1.140   2227.31     0.0385     0.0023     0.0017     0.0114     0.0391     5.9120    18.2400     0.0209    -0.4743
   59    1.160   2228.33     0.0371     0.0025     0.0026     0.0116     0.0380     6.7220    18.5600     0.0194    -0.4878
   60    1.180   2229.34     0.0394     0.0025     0.0051     0.0118     0.0412     6.4840    18.8800     0.0223    -0.3409
   61    1.200   2230.32     0.0397     0.0024     0.0079     0.0120     0.0425     6.0832    19.2000     0.0233    -0.2268
   62    1.220   2231.29     0.0501     0.0023     0.0135     0.0122     0.0546     4.6090    19.5200     0.0350    -0.0487
   63    1.240   2232.32     0.1009     0.0026     0.0294     0.0124     0.1121     3.5358    19.8400     0.0922     0.1496
   64    1.260   2233.32     0.1650     0.0024     0.0218     0.0126     0.1748     1.5291    20.1600     0.1546     0.0703
   65    1.280   2234.33     0.1856     0.0033     0.0200     0.0128     0.1945     2.0486    20.4800     0.1740     0.0470
   66    1.300   2235.33     0.1569     0.0036     0.0071     0.0130     0.1619     2.4689    20.8000     0.1411    -0.0099
   67    1.320   2236.32     0.1316     0.0040     0.0092     0.0132     0.1345     3.0241    21.1200     0.1134    -0.0546
   68    1.340   2237.26     0.1080     0.0037     0.0207     0.0134     0.1150     3.0969    21.4400     0.0935     0.0385
   69    1.360   2238.24     0.0831     0.0038     0.0188     0.0136     0.0917     3.8825    21.7600     0.0699     0.0992
   70    1.380   2246.63     0.0654     0.0041     0.0221     0.0138     0.0738     6.6524    22.0800     0.0517     0.1181
   71    1.400   2279.92     0.0934     0.0038     0.0279     0.0140     0.1043     6.5054    22.4000     0.0819     0.1361
   72    1.420   2313.20     0.1215     0.0032     0.0304     0.0142     0.1348     3.8795    22.7200     0.1121     0.1540
   73    1.440   2317.92     0.1349     0.0026     0.0209     0.0144     0.1448     1.9686    23.0400     0.1218     0.0759
   74    1.460   2318.92     0.1272     0.0024     0.0208     0.0146     0.1358     1.8943    23.3600     0.1124     0.0530
   75    1.480   2319.94     0.1043     0.0021     0.0212     0.0148     0.1134     1.9958    23.6800     0.0898     0.0790
   76    1.500   2320.96     0.0839     0.0021     0.0241     0.0150     0.0933     2.4603    24.0000     0.0693     0.1092
   77    1.520   2321.93     0.0769     0.0025     0.0289     0.0152     0.0884     3.1868    24.3200     0.0641     0.1916
   78    1.540   2322.95     0.0777     0.0022     0.0268     0.0154     0.0897     2.8467    24.6400     0.0650     0.2015
   79    1.560   2323.94     0.0712     0.0024     0.0252     0.0156     0.0815     3.3266    24.9600     0.0565     0.1589
   80    1.580   2324.96     0.0672     0.0026     0.0295     0.0158     0.0791     3.8845    25.2800     0.0538     0.2311
   81    1.600   2325.97     0.0680     0.0027     0.0325     0.0160     0.0812     4.0489    25.6000     0.0556     0.2787
   82    1.620   2326.99     0.0641     0.0025     0.0354     0.0162     0.0787     3.8715    25.9200     0.0527     0.3506
   83    1.640   2327.95     0.0680     0.0025     0.0370     0.0164     0.0833     3.7766    26.2400     0.0570     0.3508
   84    1.660   2328.97     0.0648     0.0028     0.0368     0.0166     0.0801     4.3081    26.5600     0.0535     0.3713
   85    1.680   2329.98     0.0642     0.0025     0.0385     0.0168     0.0800     3.7523    26.8800     0.0532     0.3949
   86    1.700   2330.96     0.0650     0.0022     0.0401     0.0170     0.0817     3.4546    27.2000     0.0545     0.4157
   87    1.720   2331.94     0.0651     0.0022     0.0419     0.0172     0.0824     3.3893    27.5200     0.0549     0.4350
   88    1.740   2332.94     0.0675     0.0019     0.0443     0.0174     0.0857     2.8456    27.8400     0.0579     0.4480
   89    1.760   2333.97     0.0678     0.0019     0.0465     0.0176     0.0870     2.8579    28.1600     0.0589     0.4798
   90    1.780   2334.94     0.0691     0.0021     0.0482     0.0178     0.0891     3.0754    28.4800     0.0606     0.4927
   91    1.800   2335.93     0.0725     0.0023     0.0488     0.0180     0.0930     3.1164    28.8000     0.0642     0.4786
   92    1.820   2336.94     0.0711     0.0026     0.0490     0.0182     0.0917     3.6927    29.1200     0.0625     0.4904
   93    1.840   2337.93     0.0716     0.0027     0.0505     0.0184     0.0925     3.7696    29.4400     0.0631     0.4975
   94    1.860   2338.90     0.0749     0.0029     0.0527     0.0186     0.0967     3.9003    29.7600     0.0669     0.4982
   95    1.880   2339.92     0.0800     0.0031     0.0551     0.0188     0.1029     3.9283    30.0800     0.0728     0.4897
   96    1.900   2340.93     0.0840     0.0031     0.0552     0.0190     0.1072     3.6781    30.4000     0.0768     0.4723
   97    1.920   2341.91     0.0833     0.0033     0.0552     0.0192     0.1065     4.0291    30.7200     0.0757     0.4758
   98    1.940   2342.90     0.0836     0.0031     0.0556     0.0194     0.1069     3.6839    31.0400     0.0759     0.4748
   99    1.960   2343.90     0.0791     0.0035     0.0568     0.0196     0.1028     4.4008    31.3600     0.0714     0.5136
  100    1.980   2344.90     0.0801     0.0033     0.0586     0.0198     0.1044     4.1133    31.6800     0.0728     0.5248
  101    2.000   2345.90     0.0849     0.0033     0.0604     0.0200     0.1099     3.9151    32.0000     0.0779     0.5077
  102    2.020   2346.93     0.0834     0.0034     0.0639     0.0202     0.1098     4.2363    32.3200     0.0775     0.5493
  103    2.040   2347.95     0.0885     0.0036     0.0671     0.0204     0.1163     4.0891    32.6400     0.0837     0.5461
  104    2.060   2348.91     0.0920     0.0039     0.0698     0.0206     0.1212     4.1969    32.9600     0.0882     0.5540
  105    2.080   2349.96     0.0939     0.0037     0.0640     0.0208     0.1221     3.9345    33.2800     0.0888     0.5212
  106    2.100   2350.99     0.0938     0.0035     0.0609     0.0210     0.1197     3.7442    33.6000     0.0861     0.4701
  107    2.120   2352.02     0.0920     0.0036     0.0613     0.0212     0.1175     3.8437    33.9200     0.0836     0.4715
  108    2.140   2352.98     0.0941     0.0039     0.0624     0.0214     0.1199     4.1381    34.2400     0.0857     0.4670
  109    2.160   2353.98     0.0927     0.0041     0.0654     0.0216     0.1197     4.3768    34.5600     0.0851     0.5023
  110    2.180   2354.98     0.0962     0.0040     0.0680     0.0218     0.1244     4.2077    34.8800     0.0895     0.5078
  111    2.200   2356.00     0.0959     0.0040     0.0670     0.0220     0.1244     4.1620    35.2000     0.0892     0.5121
  112    2.220   2357.02     0.1001     0.0041     0.0661     0.0222     0.1278     4.1179    35.5200     0.0923     0.4739
  113    2.240   2358.04     0.0976     0.0043     0.0666     0.0224     0.1256     4.3650    35.8400     0.0897     0.4915
  114    2.260   2359.01     0.0985     0.0043     0.0656     0.0226     0.1260     4.3930    36.1600     0.0899     0.4793
  115    2.280   2359.96     0.0981     0.0045     0.0653     0.0228     0.1255     4.6188    36.4800     0.0890     0.4780
  116    2.300   2360.98     0.0990     0.0044     0.0658     0.0230     0.1265     4.4277    36.8000     0.0897     0.4738
  117    2.320   2362.00     0.1006     0.0045     0.0676     0.0232     0.1288     4.5535    37.1200     0.0916     0.4785
  118    2.340   2362.97     0.0986     0.0045     0.0686     0.0234     0.1273     4.4937    37.4400     0.0898     0.4992
  119    2.360   2363.96     0.1009     0.0047     0.0689     0.0236     0.1300     4.6271    37.7600     0.0922     0.4955
  120    2.380   2364.94     0.1009     0.0046     0.0667     0.0238     0.1291     4.5984    38.0800     0.0910     0.4754
  121    2.400   2365.96     0.0997     0.0041     0.0680     0.0240     0.1279     4.1442    38.4000     0.0895     0.4800
  122    2.420   2366.94     0.1005     0.0042     0.0683     0.0242     0.1294     4.2195    38.7200     0.0907     0.4913
  123    2.440   2367.96     0.1009     0.0042     0.0689     0.0244     0.1296     4.1688    39.0400     0.0905     0.4833
  124    2.460   2368.95     0.0987     0.0042     0.0707     0.0246     0.1282     4.2232    39.3600     0.0888     0.5138
  125    2.480   2369.95     0.0989     0.0040     0.0706     0.0248     0.1286     4.0768    39.6800     0.0889     0.5166
  126    2.500   2370.93     0.0996     0.0042     0.0692     0.0250     0.1290     4.2330    40.0000     0.0890     0.5046
  127    2.520   2371.94     0.0941     0.0043     0.0653     0.0252     0.1222     4.5319    40.3200     0.0818     0.5072
  128    2.540   2372.93     0.0914     0.0043     0.0614     0.0254     0.1176     4.6975    40.6400     0.0770     0.4831
  129    2.560   2373.95     0.0890     0.0046     0.0611     0.0256     0.1144     5.1370    40.9600     0.0734     0.4744
  130    2.580   2374.95     0.0873     0.0045     0.0646     0.0258     0.1138     5.1366    41.2800     0.0725     0.5148
  131    2.600   2375.99     0.0899     0.0043     0.0701     0.0260     0.1186     4.7120    41.6000     0.0770     0.5484
  132    2.620   2376.96     0.0921     0.0043     0.0740     0.0262     0.1227     4.6251    41.9200     0.0808     0.5784
  133    2.640   2377.99     0.0973     0.0042     0.0763     0.0264     0.1291     4.3645    42.2400     0.0869     0.5669
  134    2.660   2378.98     0.0958     0.0042     0.0773     0.0266     0.1279     4.3892    42.5600     0.0854     0.5842
  135    2.680   2379.97     0.0977     0.0043     0.0791     0.0268     0.1309     4.4245    42.8800     0.0880     0.5937
  136    2.700   2380.96     0.1045     0.0042     0.0785     0.0270     0.1379     4.0149    43.2000     0.0947     0.5535
  137    2.720   2381.99     0.1049     0.0044     0.0760     0.0272     0.1372     4.1630    43.5200     0.0936     0.5296
  138    2.740   2382.98     0.1038     0.0046     0.0744     0.0274     0.1352     4.4386    43.8400     0.0914     0.5191
  139    2.760   2383.97     0.0995     0.0046     0.0734     0.0276     0.1305     4.5975    44.1600     0.0863     0.5357
  140    2.780   2384.97     0.0963     0.0045     0.0712     0.0278     0.1266     4.7051    44.4800     0.0821     0.5393
  141    2.800   2385.94     0.0942     0.0047     0.0713     0.0280     0.1239     4.9565    44.8000     0.0791     0.5398
  142    2.820   2386.99     0.0991     0.0045     0.0743     0.0282     0.1300     4.5792    45.1200     0.0849     0.5354
  143    2.840   2387.94     0.0991     0.0047     0.0779     0.0284     0.1314     4.7630    45.4400     0.0859     0.5623
  144    2.860   2388.93     0.1015     0.0049     0.0813     0.0286     0.1353     4.8019    45.7600     0.0895     0.5778
  145    2.880   2389.94     0.1027     0.0046     0.0822     0.0288     0.1371     4.4822    46.0800     0.0910     0.5843
  146    2.900   2390.90     0.1030     0.0045     0.0795     0.0290     0.1370     4.3601    46.4000     0.0906     0.5729
  147    2.920   2391.92     0.1019     0.0044     0.0781     0.0292     0.1347     4.3438    46.7200     0.0880     0.5549
  148    2.940   2392.90     0.1021     0.0043     0.0794     0.0294     0.1353     4.1878    47.0400     0.0883     0.5627
  149    2.960   2393.94     0.0972     0.0046     0.0804     0.0296     0.1308     4.6923    47.3600     0.0834     0.6033
  150    2.980   2394.94     0.0999     0.0044     0.0809     0.0298     0.1339     4.3884    47.6800     0.0862     0.5939
  151    3.000   2395.94     0.0987     0.0042     0.0809     0.0300     0.1326     4.2947    48.0000     0.0846     0.5992
  152    3.020   2396.95     0.0965     0.0042     0.0817     0.0302     0.1307     4.3792    48.3200     0.0824     0.6228
  153    3.040   2397.93     0.0957     0.0043     0.0804     0.0304     0.1299     4.5296    48.6400     0.0812     0.6284
  154    3.060   2398.97     0.0929     0.0043     0.0769     0.0306     0.1254     4.6385    48.9600     0.0764     0.6115
  155    3.080   2399.97     0.0919     0.0044     0.0767     0.0308     0.1241     4.7295    49.2800     0.0748     0.6129
  156    3.100   2400.97     0.0927     0.0043     0.0777     0.0310     0.1252     4.6301    49.6000     0.0756     0.6131
  157    3.120   2401.99     0.0920     0.0043     0.0785     0.0312     0.1247     4.7054    49.9200     0.0748     0.6244
  158    3.140   2402.97     0.0921     0.0042     0.0805     0.0314     0.1256     4.6070    50.2400     0.0754     0.6436
  159    3.160   2404.04     0.0925     0.0044     0.0807     0.0316     0.1268     4.6855    50.5600     0.0762     0.6567
  160    3.180   2404.99     0.0948     0.0045     0.0774     0.0318     0.1277     4.7741    50.8800     0.0769     0.6073
  161    3.200   2406.00     0.0888     0.0044     0.0760     0.0320     0.1209     4.9322    51.2000     0.0697     0.6374
  162    3.220   2407.00     0.0879     0.0044     0.0769     0.0322     0.1199     4.9653    51.5200     0.0683     0.6430
  163    3.240   2408.03     0.0914     0.0043     0.0789     0.0324     0.1243     4.6755    51.8400     0.0724     0.6327
  164    3.260   2408.99     0.0910     0.0045     0.0797     0.0326     0.1245     5.0064    52.1600     0.0723     0.6500
  165    3.280   2409.96     0.0885     0.0041     0.0789     0.0328     0.1220     4.5099    52.4800     0.0695     0.6754
  166    3.300   2410.93     0.0906     0.0043     0.0775     0.0330     0.1234     4.7617    52.8000     0.0706     0.6388
  167    3.320   2411.87     0.0911     0.0044     0.0793     0.0332     0.1238     4.8369    53.1200     0.0707     0.6327
  168    3.340   2412.85     0.0910     0.0046     0.0801     0.0334     0.1248     5.0312    53.4400     0.0714     0.6588
  169    3.360   2413.86     0.0956     0.0048     0.0789     0.0336     0.1288     5.1861    53.7600     0.0750     0.6071
  170    3.380   2414.85     0.0939     0.0050     0.0803     0.0338     0.1273     5.3801    54.0800     0.0732     0.6232
  171    3.400   2415.85     0.0967     0.0050     0.0852     0.0340     0.1317     5.1386    54.4000     0.0773     0.6377
  172    3.420   2416.83     0.1011     0.0054     0.0894     0.0342     0.1382     5.4151    54.7200     0.0834     0.6488
  173    3.440   2417.84     0.1033     0.0052     0.0908     0.0344     0.1410     5.0547    55.0400     0.0860     0.6435
  174    3.460   2425.99     0.1139     0.0051     0.0906     0.0346     0.1525     4.7475    55.3600     0.0971     0.5942
  175    3.480   2448.51     0.1261     0.0055     0.0869     0.0348     0.1631     5.0119    55.6800     0.1074     0.5026
  176    3.500   2460.50     0.1249     0.0051     0.0717     0.0350     0.1546     3.8785    56.0000     0.0986     0.3609
  177    3.520   2461.49     0.1203     0.0056     0.0765     0.0352     0.1515     4.6043    56.3200     0.0952     0.4105
  178    3.540   2462.53     0.1196     0.0057     0.0804     0.0354     0.1524     4.7412    56.6400     0.0958     0.4470
  179    3.560   2463.50     0.1120     0.0055     0.0840     0.0356     0.1470     4.8887    56.9600     0.0900     0.5292
  180    3.580   2464.53     0.1124     0.0054     0.0890     0.0358     0.1488     4.7703    57.2800     0.0916     0.5573
  181    3.600   2465.54     0.1162     0.0057     0.0930     0.0360     0.1545     4.9212    57.6000     0.0969     0.5687
  182    3.620   2466.54     0.1205     0.0055     0.0940     0.0362     0.1599     4.5938    57.9200     0.1019     0.5647
  183    3.640   2467.56     0.1225     0.0058     0.0950     0.0364     0.1621     4.8028    58.2400     0.1039     0.5570
  184    3.660   2468.50     0.1270     0.0055     0.0957     0.0366     0.1672     4.3603    58.5600     0.1086     0.5434
  185    3.680   2469.52     0.1329     0.0057     0.0945     0.0368     0.1727     4.2999    58.8800     0.1138     0.5077
  186    3.700   2470.55     0.1453     0.0059     0.0938     0.0370     0.1857     4.2155    59.2000     0.1265     0.4678
  187    3.720   2471.50     0.1335     0.0060     0.0891     0.0372     0.1713     4.4449    59.5200     0.1118     0.4725
  188    3.740   2472.54     0.1367     0.0057     0.0847     0.0374     0.1740     4.2002    59.8400     0.1141     0.4491
  189    3.760   2473.54     0.1434     0.0059     0.0712     0.0376     0.1723     4.1180    60.1600     0.1121     0.2780
  190    3.780   2474.51     0.1303     0.0059     0.0792     0.0378     0.1623     4.4623    60.4800     0.1018     0.3771
  191    3.800   2475.52     0.1257     0.0060     0.0850     0.0380     0.1610     4.7383    60.8000     0.1002     0.4582
  192    3.820   2476.47     0.1290     0.0057     0.0849     0.0382     0.1652     4.4188    61.1200     0.1040     0.4598
  193    3.840   2477.43     0.1288     0.0055     0.0862     0.0384     0.1645     4.3141    61.4400     0.1030     0.4521
  194    3.860   2478.43     0.1295     0.0059     0.0896     0.0386     0.1667     4.5195    61.7600     0.1049     0.4758
  195    3.880   2479.44     0.1251     0.0057     0.0935     0.0388     0.1639     4.5881    62.0800     0.1018     0.5255
  196    3.900   2480.45     0.1218     0.0057     0.0944     0.0390     0.1613     4.5964    62.4000     0.0989     0.5556
  197    3.920   2481.42     0.1248     0.0056     0.0972     0.0392     0.1652     4.4755    62.7200     0.1025     0.5559
  198    3.940   2482.40     0.1261     0.0055     0.0996     0.0394     0.1677     4.4213    63.0400     0.1046     0.5692
  199    3.960   2483.37     0.1276     0.0056     0.1005     0.0396     0.1698     4.3672    63.3600     0.1064     0.5709
  200    3.980   2484.35     0.1288     0.0057     0.1019     0.0398     0.1713     4.4398    63.6800     0.1076     0.5715
  201    4.000   2485.42     0.1315     0.0059     0.1011     0.0400     0.1740     4.4683    64.0000     0.1100     0.5572
  202    4.020   2486.41     0.1298     0.0058     0.1003     0.0402     0.1721     4.4355    64.3200     0.1078     0.5607
  203    4.040   2487.42     0.1318     0.0061     0.0994     0.0404     0.1738     4.5953    64.6400     0.1091     0.5454
  204    4.060   2488.42     0.1412     0.0065     0.0940     0.0406     0.1809     4.6215    64.9600     0.1160     0.4662
  205    4.080   2489.38     0.1326     0.0063     0.0956     0.0408     0.1726     4.7802    65.2800     0.1073     0.5065
  206    4.100   2490.39     0.1302     0.0060     0.0965     0.0410     0.1706     4.6211    65.6000     0.1050     0.5261
  207    4.120   2491.40     0.1263     0.0062     0.0986     0.0412     0.1672     4.8771    65.9200     0.1013     0.5551
  208    4.140   2492.42     0.1229     0.0061     0.1019     0.0414     0.1653     4.9125    66.2400     0.0990     0.6003
  209    4.160   2493.46     0.1204     0.0055     0.1067     0.0416     0.1643     4.5801    66.5600     0.0977     0.6440
  210    4.180   2494.42     0.1257     0.0055     0.1121     0.0418     0.1720     4.4309    66.8800     0.1051     0.6506
  211    4.200   2495.43     0.1307     0.0056     0.1161     0.0420     0.1790     4.2838    67.2000     0.1118     0.6532
  212    4.220   2496.41     0.1352     0.0053     0.1175     0.0422     0.1845     3.9012    67.5200     0.1170     0.6426
  213    4.240   2497.39     0.1443     0.0054     0.1147     0.0424     0.1930     3.7809    67.8400     0.1252     0.5873
  214    4.260   2498.39     0.1515     0.0058     0.1120     0.0426     0.1989     3.8422    68.1600     0.1308     0.5379
  215    4.280   2499.40     0.1530     0.0058     0.1084     0.0428     0.1990     3.7820    68.4800     0.1306     0.5123
  216    4.300   2500.39     0.1477     0.0060     0.1051     0.0430     0.1925     4.0213    68.8000     0.1237     0.5148
  217    4.320   2501.38     0.1446     0.0061     0.1023     0.0432     0.1877     4.2495    69.1200     0.1186     0.5014
  218    4.340   2502.35     0.1417     0.0061     0.1026     0.0434     0.1847     4.2786    69.4400     0.1153     0.5123
  219    4.360   2503.37     0.1379     0.0061     0.1039     0.0436     0.1812     4.3959    69.7600     0.1114     0.5337
  220    4.380   2504.35     0.1333     0.0060     0.1052     0.0438     0.1774     4.4849    70.0800     0.1073     0.5708
  221    4.400   2505.31     0.1297     0.0059     0.1060     0.0440     0.1740     4.5719    70.4000     0.1036     0.5942
  222    4.420   2506.34     0.1283     0.0056     0.1077     0.0442     0.1735     4.3681    70.7200     0.1028     0.6170
  223    4.440   2507.30     0.1289     0.0054     0.1051     0.0444     0.1734     4.1904    71.0400     0.1024     0.6029
  224    4.460   2508.31     0.1317     0.0053     0.1040     0.0446     0.1753     4.0131    71.3600     0.1039     0.5703
  225    4.480   2509.32     0.1297     0.0055     0.1058     0.0448     0.1738     4.2365    71.6800     0.1022     0.5909
  226    4.500   2510.30     0.1357     0.0059     0.1067     0.0450     0.1804     4.3779    72.0000     0.1084     0.5660
  227    4.520   2511.33     0.1423     0.0058     0.1086     0.0452     0.1883     4.1303    72.3200     0.1160     0.5551
  228    4.540   2512.33     0.1476     0.0060     0.1003     0.0454     0.1907     4.0615    72.6400     0.1181     0.4858
  229    4.560   2513.34     0.1447     0.0059     0.0983     0.0456     0.1860     4.0503    72.9600     0.1130     0.4661
  230    4.580   2514.34     0.1456     0.0061     0.1014     0.0458     0.1876     4.2256    73.2800     0.1143     0.4750
  231    4.600   2515.35     0.1416     0.0059     0.1061     0.0460     0.1855     4.2055    73.6000     0.1119     0.5219
  232    4.620   2516.32     0.1413     0.0056     0.1109     0.0462     0.1872     3.9451    73.9200     0.1133     0.5564
  233    4.640   2517.32     0.1436     0.0056     0.1139     0.0464     0.1912     3.8788    74.2400     0.1170     0.5724
  234    4.660   2518.34     0.1452     0.0057     0.1127     0.0466     0.1928     3.9220    74.5600     0.1182     0.5635
  235    4.680   2519.36     0.1439     0.0055     0.1101     0.0468     0.1906     3.8149    74.8800     0.1157     0.5572
  236    4.700   2520.33     0.1415     0.0054     0.1053     0.0470     0.1864     3.8415    75.2000     0.1112     0.5386
  237    4.720   2521.31     0.1397     0.0058     0.1009     0.0472     0.1827     4.1215    75.5200     0.1072     0.5143
  238    4.740   2522.31     0.1377     0.0059     0.1007     0.0474     0.1800     4.2928    75.8400     0.1042     0.5114
  239    4.760   2523.34     0.1359     0.0059     0.1003     0.0476     0.1781     4.2967    76.1600     0.1019     0.5181
  240    4.780   2524.32     0.1344     0.0061     0.1010     0.0478     0.1768     4.5399    76.4800     0.1003     0.5297
  241    4.800   2525.32     0.1341     0.0058     0.1018     0.0480     0.1766     4.3220    76.8000     0.0998     0.5334
  242    4.820   2526.35     0.1309     0.0055     0.1039     0.0482     0.1742     4.2122    77.1200     0.0971     0.5670
  243    4.840   2527.30     0.1268     0.0058     0.1033     0.0484     0.1705     4.5687    77.4400     0.0931     0.6000
  244    4.860   2528.30     0.1202     0.0057     0.1008     0.0486     0.1627     4.6789    77.7600     0.0850     0.6186
  245    4.880   2529.28     0.1177     0.0052     0.1038     0.0488     0.1608     4.3841    78.0800     0.0827     0.6499
  246    4.900   2530.28     0.1255     0.0053     0.1102     0.0490     0.1708     4.2362    78.4000     0.0924     0.6370
  247    4.920   2531.28     0.1286     0.0053     0.1165     0.0492     0.1769     4.1392    78.7200     0.0982     0.6685
  248    4.940   2532.29     0.1333     0.0053     0.1192     0.0494     0.1830     3.9923    79.0400     0.1040     0.6624
  249    4.960   2533.27     0.1369     0.0056     0.1224     0.0496     0.1879     4.0713    79.3600     0.1086     0.6633
  250    4.980   2534.27     0.1465     0.0056     0.1186     0.0498     0.1972     3.8467    79.6800     0.1175     0.6029
  251    5.000   2535.26     0.1462     0.0057     0.1145     0.0500     0.1948     3.8554    80.0000     0.1148     0.5732
  252    5.020   2536.25     0.1462     0.0059     0.1109     0.0502     0.1932     4.0442    80.3200     0.1129     0.5460
  253    5.040   2537.28     0.1409     0.0060     0.1095     0.0504     0.1870     4.2384    80.6400     0.1063     0.5575
  254    5.060   2538.25     0.1380     0.0057     0.1112     0.0506     0.1844     4.1596    80.9600     0.1035     0.5795
  255    5.080   2539.26     0.1346     0.0059     0.1139     0.0508     0.1821     4.3569    81.2800     0.1008     0.6167
  256    5.100   2540.27     0.1359     0.0051     0.1194     0.0510     0.1852     3.8003    81.6000     0.1036     0.6410
  257    5.120   2541.28     0.1387     0.0055     0.1221     0.0512     0.1899     3.9994    81.9200     0.1080     0.6537
  258    5.140   2542.26     0.1417     0.0054     0.1223     0.0514     0.1927     3.8102    82.2400     0.1105     0.6341
  259    5.160   2543.30     0.1502     0.0056     0.1242     0.0516     0.2023     3.7023    82.5600     0.1198     0.6055
  260    5.180   2544.29     0.1496     0.0057     0.1210     0.0518     0.2011     3.7933    82.8800     0.1182     0.5978
  261    5.200   2545.24     0.1501     0.0060     0.1174     0.0520     0.1998     4.0694    83.2000     0.1166     0.5688
  262    5.220   2546.28     0.1468     0.0064     0.1155     0.0522     0.1955     4.3456    83.5200     0.1120     0.5697
  263    5.240   2547.27     0.1452     0.0063     0.1152     0.0524     0.1936     4.3009    83.8400     0.1098     0.5718
  264    5.260   2548.26     0.1407     0.0063     0.1169     0.0526     0.1895     4.3851    84.1600     0.1053     0.6037
  265    5.280   2553.82     0.1392     0.0062     0.1191     0.0528     0.1889     4.4823    84.4800     0.1045     0.6280
  266    5.300   2573.72     0.1410     0.0055     0.1210     0.0530     0.1916     3.9886    84.8000     0.1068     0.6305
  267    5.320   2593.61     0.1428     0.0057     0.1229     0.0532     0.1942     4.0929    85.1200     0.1091     0.6330
  268    5.340   2604.08     0.1461     0.0055     0.1224     0.0534     0.1977     3.7570    85.4400     0.1123     0.6197
  269    5.360   2605.05     0.1483     0.0050     0.1247     0.0536     0.2002     3.3555    85.7600     0.1145     0.6125
  270    5.380   2606.01     0.1439     0.0052     0.1218     0.0538     0.1962     3.5490    86.0800     0.1101     0.6425
  271    5.400   2607.04     0.1509     0.0053     0.1215     0.0540     0.2021     3.5434    86.4000     0.1157     0.5869
  272    5.420   2608.00     0.1589     0.0053     0.1182     0.0542     0.2083     3.3311    86.7200     0.1216     0.5215
  273    5.440   2609.05     0.1583     0.0056     0.1194     0.0544     0.2083     3.5415    87.0400     0.1213     0.5340
  274    5.460   2610.00     0.1647     0.0056     0.1223     0.0546     0.2156     3.4521    87.3600     0.1282     0.5192
  275    5.480   2611.00     0.1710     0.0057     0.1251     0.0548     0.2236     3.3453    87.6800     0.1359     0.5175
  276    5.500   2611.95     0.1768     0.0061     0.1221     0.0550     0.2283     3.4679    88.0000     0.1403     0.4830
  277    5.520   2612.96     0.1810     0.0067     0.1212     0.0552     0.2322     3.6880    88.3200     0.1439     0.4641
  278    5.540   2613.96     0.1813     0.0067     0.1158     0.0554     0.2310     3.7194    88.6400     0.1423     0.4423
  279    5.560   2614.98     0.1752     0.0068     0.1142     0.0556     0.2231     3.8264    88.9600     0.1341     0.4361
  280    5.580   2615.94     0.1723     0.0066     0.1141     0.0558     0.2200     3.8278    89.2800     0.1307     0.4419
  281    5.600   2617.05     0.1683     0.0065     0.1187     0.0560     0.2178     3.8282    89.6000     0.1282     0.4827
  282    5.620   2618.01     0.1636     0.0063     0.1233     0.0562     0.2146     3.7689    89.9200     0.1247     0.5238
  283    5.640   2618.98     0.1563     0.0061     0.1282     0.0564     0.2094     3.8525    90.2400     0.1191     0.5868
  284    5.660   2619.97     0.1538     0.0060     0.1325     0.0566     0.2087     3.9064    90.5600     0.1182     0.6284
  285    5.680   2620.98     0.1545     0.0057     0.1360     0.0568     0.2114     3.7815    90.8800     0.1205     0.6536
  286    5.700   2621.92     0.1512     0.0054     0.1392     0.0570     0.2092     3.5726    91.2000     0.1180     0.6867
  287    5.720   2622.74     0.1536     0.0051     0.1420     0.0572     0.2128     3.2934    91.5200     0.1213     0.6915
  288    5.740   2623.59     0.1539     0.0052     0.1439     0.0574     0.2139     3.4091    91.8400     0.1220     0.7004
  289    5.760   2624.54     0.1564     0.0048     0.1456     0.0576     0.2173     3.0772    92.1600     0.1252     0.6991
  290    5.780   2625.58     0.1587     0.0054     0.1473     0.0578     0.2204     3.3863    92.4800     0.1279     0.6962
  291    5.800   2626.61     0.1621     0.0051     0.1442     0.0580     0.2232     3.1326    92.8000     0.1304     0.6712
  292    5.820   2627.63     0.1649     0.0055     0.1444     0.0582     0.2253     3.3173    93.1200     0.1322     0.6470
  293    5.840   2628.58     0.1646     0.0055     0.1432     0.0584     0.2248     3.3410    93.4400     0.1314     0.6474
  294    5.860   2629.51     0.1690     0.0059     0.1412     0.0586     0.2286     3.4831    93.7600     0.1349     0.6179
  295    5.880   2630.53     0.1663     0.0059     0.1420     0.0588     0.2258     3.5454    94.0800     0.1317     0.6289
  296    5.900   2631.57     0.1723     0.0061     0.1400     0.0590     0.2317     3.5937    94.4000     0.1373     0.5996
  297    5.920   2632.54     0.1714     0.0062     0.1367     0.0592     0.2292     3.6115    94.7200     0.1345     0.5824
  298    5.940   2633.54     0.1711     0.0062     0.1418     0.0594     0.2298     3.5983    95.0400     0.1347     0.5966
  299    5.960   2634.52     0.1702     0.0057     0.1477     0.0596     0.2314     3.3478    95.3600     0.1360     0.6321
  300    5.980   2635.57     0.1750     0.0056     0.1536     0.0598     0.2388     3.2133    95.6800     0.1431     0.6437
  301    6.000   2636.53     0.1793     0.0058     0.1561     0.0600     0.2446     3.2565    96.0000     0.1486     0.6424
  302    6.020   2637.58     0.1929     0.0061     0.1566     0.0602     0.2587     3.1726    96.3200     0.1624     0.5950
  303    6.040   2638.53     0.2000     0.0063     0.1527     0.0604     0.2647     3.1305    96.6400     0.1680     0.5564
  304    6.060   2639.54     0.2083     0.0067     0.1395     0.0606     0.2702     3.2450    96.9600     0.1732     0.5013
  305    6.080   2640.59     0.2205     0.0072     0.1305     0.0608     0.2756     3.2750    97.2800     0.1784     0.3947
  306    6.100   2641.59     0.2178     0.0072     0.1316     0.0610     0.2727     3.3145    97.6000     0.1751     0.3983
  307    6.120   2642.59     0.2154     0.0076     0.1336     0.0612     0.2715     3.5136    97.9200     0.1736     0.4173
  308    6.140   2643.58     0.2139     0.0077     0.1321     0.0614     0.2700     3.5848    98.2400     0.1718     0.4198
  309    6.160   2644.58     0.2024     0.0071     0.1340     0.0616     0.2581     3.4955    98.5600     0.1596     0.4456
  310    6.180   2645.58     0.1943     0.0073     0.1376     0.0618     0.2517     3.7005    98.8800     0.1529     0.4903
  311    6.200   2646.59     0.1850     0.0070     0.1419     0.0620     0.2439     3.7857    99.2000     0.1447     0.5394
  312    6.220   2647.58     0.1843     0.0067     0.1458     0.0622     0.2451     3.6579    99.5200     0.1456     0.5670
  313    6.240   2648.60     0.1806     0.0062     0.1488     0.0624     0.2427     3.4173    99.8400     0.1428     0.5981
  314    6.260   2649.56     0.1778     0.0063     0.1514     0.0626     0.2410     3.5439   100.1600     0.1408     0.6236
  315    6.280   2650.52     0.1758     0.0060     0.1546     0.0628     0.2403     3.3960   100.4800     0.1398     0.6498
  316    6.300   2651.52     0.1770     0.0060     0.1526     0.0630     0.2415     3.4062   100.8000     0.1407     0.6433
  317    6.320   2652.54     0.1719     0.0055     0.1527     0.0632     0.2361     3.1709   101.1200     0.1349     0.6643
  318    6.340   2653.53     0.1708     0.0056     0.1537     0.0634     0.2350     3.2712   101.4400     0.1335     0.6697
  319    6.360   2654.56     0.1720     0.0055     0.1564     0.0636     0.2372     3.1866   101.7600     0.1354     0.6759
  320    6.380   2655.47     0.1727     0.0053     0.1606     0.0638     0.2395     3.1329   102.0800     0.1374     0.6929
  321    6.400   2656.47     0.1715     0.0058     0.1640     0.0640     0.2399     3.3675   102.4000     0.1375     0.7192
  322    6.420   2657.52     0.1810     0.0053     0.1648     0.0642     0.2503     2.9668   102.7200     0.1476     0.6840
  323    6.440   2658.48     0.1827     0.0047     0.1615     0.0644     0.2510     2.5948   103.0400     0.1479     0.6638
  324    6.460   2659.48     0.1856     0.0071     0.1595     0.0646     0.2530     3.8414   103.3600     0.1496     0.6406
  325    6.480   2660.50     0.1892     0.0088     0.1557     0.0648     0.2558     4.6408   103.6800     0.1521     0.6160
  326    6.500   2661.50     0.1983     0.0091     0.1568     0.0650     0.2631     4.5950   104.0000     0.1591     0.5605
  327    6.520   2662.55     0.3162     0.0094     0.1317     0.0652     0.3799     3.1627   104.3200     0.2756     0.3145
  328    6.540   2663.50     0.3645     0.0089     0.0452     0.0654     0.4097     2.6513   104.6400     0.3050     0.1381
  329    6.560   2664.51     0.2807     0.0093     0.0201     0.0656     0.2864     3.5385   104.9600     0.1815    -0.2874
  330    6.580   2665.51     0.2221     0.0098     0.0445     0.0658     0.2363     4.4257   105.2800     0.1310    -0.2441
  331    6.600   2666.56     0.1912     0.0094     0.0683     0.0660     0.2173     4.7663   105.6000     0.1117    -0.0353
  332    6.620   2667.52     0.1877     0.0080     0.0835     0.0662     0.2205     4.2368   105.9200     0.1146     0.1046
  333    6.640   2668.52     0.1890     0.0069     0.0988     0.0664     0.2272     3.6716   106.2400     0.1210     0.2034
  334    6.660   2685.44     0.1905     0.0065     0.1219     0.0666     0.2383     3.4473   106.5600     0.1318     0.3369
  335    6.680   2702.53     0.1919     0.0065     0.1450     0.0668     0.2494     3.4297   106.8800     0.1426     0.4712
  336    6.700   2719.61     0.1933     0.0064     0.1630     0.0670     0.2606     3.3410   107.2000     0.1534     0.6054
  337    6.720   2721.13     0.1973     0.0066     0.1681     0.0672     0.2673     3.3637   107.5200     0.1598     0.6227
  338    6.740   2721.75     0.2021     0.0069     0.1693     0.0674     0.2732     3.4200   107.8400     0.1654     0.6161
  339    6.760   2722.36     0.2047     0.0068     0.1670     0.0676     0.2753     3.3234   108.1600     0.1671     0.6010
  340    6.780   2722.98     0.2072     0.0067     0.1627     0.0678     0.2761     3.2411   108.4800     0.1677     0.5753
  341    6.800   2723.66     0.2048     0.0064     0.1611     0.0680     0.2723     3.0993   108.8000     0.1635     0.5674
  342    6.820   2724.29     0.1985     0.0064     0.1642     0.0682     0.2669     3.2121   109.1200     0.1578     0.6000
  343    6.840   2724.95     0.1959     0.0064     0.1688     0.0684     0.2662     3.2791   109.4400     0.1567     0.6309
  344    6.860   2725.58     0.1941     0.0064     0.1731     0.0686     0.2662     3.3082   109.7600     0.1564     0.6588
  345    6.880   2726.20     0.1964     0.0069     0.1764     0.0688     0.2701     3.5096   110.0800     0.1600     0.6671
  346    6.900   2726.83     0.2020     0.0072     0.1776     0.0690     0.2765     3.6125   110.4000     0.1661     0.6529
  347    6.920   2727.49     0.2048     0.0070     0.1756     0.0692     0.2790     3.4334   110.7200     0.1682     0.6381
  348    6.940   2728.12     0.2065     0.0072     0.1745     0.0694     0.2796     3.5322   111.0400     0.1686     0.6205
  349    6.960   2728.77     0.2076     0.0049     0.1756     0.0696     0.2812     2.3622   111.3600     0.1698     0.6223
  350    6.980   2742.97     0.2033     0.0071     0.1780     0.0698     0.2776     4.5273   111.6800     0.1659     0.6463
  351    7.000   2773.63     0.1982     0.0075     0.1812     0.0700     0.2739     4.8034   112.0000     0.1619     0.6807
  352    7.020   2782.28     0.2034     0.0074     0.1827     0.0702     0.2800     3.6602   112.3200     0.1677     0.6692
  353    7.040   2783.27     0.2028     0.0068     0.1822     0.0704     0.2796     3.3745   112.6400     0.1670     0.6732
  354    7.060   2784.69     0.2098     0.0065     0.1692     0.0706     0.2850     3.2584   112.9600     0.1721     0.6312
  355    7.080   2789.09     0.2042     0.0063     0.1778     0.0708     0.2790     4.1063   113.2800     0.1658     0.6479
  356    7.100   2790.16     0.2161     0.0066     0.1772     0.0710     0.2904     3.0559   113.6000     0.1768     0.5993
  357    7.120   2791.19     0.2215     0.0072     0.1760     0.0712     0.2957     3.2349   113.9200     0.1818     0.5802
  358    7.140   2792.17     0.2240     0.0076     0.1723     0.0714     0.2970     3.4154   114.2400     0.1828     0.5611
  359    7.160   2793.20     0.2258     0.0075     0.1669     0.0716     0.2971     3.3253   114.5600     0.1826     0.5382
  360    7.180   2794.19     0.2216     0.0079     0.1600     0.0718     0.2898     3.5317   114.8800     0.1749     0.5187
  361    7.200   2795.22     0.2230     0.0080     0.1591     0.0720     0.2895     3.5798   115.2000     0.1743     0.4953
  362    7.220   2796.20     0.2201     0.0078     0.1641     0.0722     0.2881     3.4716   115.5200     0.1726     0.5198
  363    7.240   2797.25     0.2165     0.0080     0.1720     0.0724     0.2877     3.5976   115.8400     0.1718     0.5646
  364    7.260   2798.28     0.2184     0.0082     0.1789     0.0726     0.2926     3.7237   116.1600     0.1765     0.5896
  365    7.280   2799.28     0.2232     0.0083     0.1849     0.0728     0.2999     3.7541   116.4800     0.1834     0.5988
  366    7.300   2800.28     0.2260     0.0079     0.1904     0.0730     0.3051     3.5215   116.8000     0.1883     0.6129
  367    7.320   2801.29     0.2326     0.0080     0.1929     0.0732     0.3136     3.4936   117.1200     0.1964     0.6092
  368    7.340   2815.94     0.2389     0.0081     0.1896     0.0734     0.3190     3.4547   117.4400     0.2015     0.5826
  369    7.360   2835.44     0.2429     0.0083     0.1863     0.0736     0.3216     3.5192   117.7600     0.2039     0.5589
  370    7.380   2854.08     0.2468     0.0085     0.1839     0.0738     0.3242     3.4642   118.0800     0.2061     0.5360
  371    7.400   2855.08     0.2518     0.0089     0.1790     0.0740     0.3274     3.5322   118.4000     0.2090     0.5070
  372    7.420   2856.11     0.2524     0.0085     0.1770     0.0742     0.3270     3.3694   118.7200     0.2083     0.4962
  373    7.440   2857.09     0.2607     0.0086     0.1770     0.0744     0.3349     3.2996   119.0400     0.2159     0.4743
  374    7.460   2858.04     0.2582     0.0085     0.1741     0.0746     0.3320     3.2901   119.3600     0.2126     0.4752
  375    7.480   2859.02     0.2548     0.0089     0.1692     0.0748     0.3264     3.4911   119.6800     0.2067     0.4628
  376    7.500   2860.08     0.2473     0.0088     0.1691     0.0750     0.3181     3.5658   120.0000     0.1981     0.4717
  377    7.520   2861.13     0.2412     0.0085     0.1686     0.0752     0.3117     3.5118   120.3200     0.1914     0.4849
  378    7.540   2862.12     0.2326     0.0083     0.1684     0.0754     0.3032     3.5594   120.6400     0.1825     0.5069
  379    7.560   2863.15     0.2334     0.0083     0.1707     0.0756     0.3049     3.5565   120.9600     0.1839     0.5138
  380    7.580   2864.10     0.2320     0.0081     0.1746     0.0758     0.3046     3.4648   121.2800     0.1833     0.5286
  381    7.600   2865.12     0.2287     0.0078     0.1815     0.0760     0.3041     3.4253   121.6000     0.1825     0.5665
  382    7.620   2866.12     0.2369     0.0076     0.1872     0.0762     0.3148     3.2039   121.9200     0.1929     0.5668
  383    7.640   2867.17     0.2387     0.0073     0.1930     0.0764     0.3191     3.0798   122.2400     0.1968     0.5838
  384    7.660   2868.21     0.2451     0.0074     0.1963     0.0766     0.3272     2.9936   122.5600     0.2046     0.5811
  385    7.680   2869.21     0.2411     0.0072     0.1937     0.0768     0.3232     2.9850   122.8800     0.2003     0.5923
  386    7.700   2870.20     0.2394     0.0073     0.1920     0.0770     0.3201     3.0544   123.2000     0.1969     0.5847
  387    7.720   2871.16     0.2372     0.0070     0.1949     0.0772     0.3183     2.9631   123.5200     0.1948     0.5949
  388    7.740   2872.20     0.2336     0.0071     0.1965     0.0774     0.3161     3.0345   123.8400     0.1922     0.6192
  389    7.760   2873.16     0.2307     0.0074     0.1995     0.0776     0.3142     3.2006   124.1600     0.1900     0.6378
  390    7.780   2874.19     0.2292     0.0073     0.2025     0.0778     0.3139     3.1996   124.4800     0.1894     0.6536
  391    7.800   2875.20     0.2335     0.0070     0.2011     0.0780     0.3181     3.0108   124.8000     0.1933     0.6386
  392    7.820   2876.21     0.2311     0.0071     0.2021     0.0782     0.3157     3.0816   125.1200     0.1906     0.6470
  393    7.840   2877.12     0.2310     0.0071     0.2045     0.0784     0.3166     3.0932   125.4400     0.1912     0.6557
  394    7.860   2878.12     0.2356     0.0072     0.2035     0.0786     0.3214     3.0702   125.7600     0.1956     0.6423
  395    7.880   2879.19     0.2332     0.0074     0.2010     0.0788     0.3177     3.1994   126.0800     0.1916     0.6390
  396    7.900   2880.19     0.2354     0.0078     0.2042     0.0790     0.3207     3.2946   126.4000     0.1943     0.6386
  397    7.920   2881.20     0.2376     0.0078     0.2074     0.0792     0.3244     3.3048   126.7200     0.1977     0.6447
  398    7.940   2882.12     0.2413     0.0078     0.2080     0.0794     0.3283     3.2518   127.0400     0.2013     0.6344
  399    7.960   2883.15     0.2451     0.0076     0.2084     0.0796     0.3331     3.1022   127.3600     0.2057     0.6317
  400    7.980   2884.19     0.2533     0.0079     0.2073     0.0798     0.3406     3.1437   127.6800     0.2129     0.6016
  401    8.000   2885.26     0.2532     0.0080     0.2042     0.0800     0.3392     3.1583   128.0000     0.2112     0.5901
  402    8.020   2886.29     0.2527     0.0082     0.2068     0.0802     0.3389     3.2259   128.3200     0.2106     0.5934
  403    8.040   2887.27     0.2486     0.0082     0.2066     0.0804     0.3357     3.2798   128.6400     0.2071     0.6135
  404    8.060   2888.30     0.2459     0.0080     0.2069     0.0806     0.3323     3.2463   128.9600     0.2034     0.6156
  405    8.080   2889.28     0.2451     0.0080     0.2091     0.0808     0.3327     3.2471   129.2800     0.2034     0.6273
  406    8.100   2890.28     0.2446     0.0073     0.2138     0.0810     0.3338     3.0019   129.6000     0.2042     0.6433
  407    8.120   2891.30     0.2498     0.0077     0.2169     0.0812     0.3406     3.0731   129.9200     0.2107     0.6401
  408    8.140   2892.35     0.2585     0.0085     0.2201     0.0814     0.3505     3.3028   130.2400     0.2202     0.6245
  409    8.160   2893.35     0.2689     0.0086     0.2185     0.0816     0.3611     3.2195   130.5600     0.2306     0.5990
  410    8.180   2894.38     0.2793     0.0088     0.2090     0.0818     0.3703     3.1387   130.8800     0.2395     0.5641
  411    8.200   2895.37     0.3036     0.0087     0.1884     0.0820     0.3857     2.8981   131.2000     0.2545     0.4466
  412    8.220   2896.34     0.3097     0.0098     0.1762     0.0822     0.3843     3.1476   131.5200     0.2528     0.3777
  413    8.240   2897.36     0.3019     0.0105     0.1823     0.0824     0.3774     3.4718   131.8400     0.2455     0.3957
  414    8.260   2898.37     0.3094     0.0111     0.1909     0.0826     0.3877     3.5850   132.1600     0.2556     0.4065
  415    8.280   2899.40     0.3269     0.0110     0.1810     0.0828     0.4069     3.3980   132.4800     0.2744     0.3926
  416    8.300   2900.39     0.3290     0.0107     0.1674     0.0830     0.3990     3.2407   132.8000     0.2662     0.3151
  417    8.320   2901.34     0.3182     0.0109     0.1713     0.0832     0.3898     3.4142   133.1200     0.2566     0.3394
  418    8.340   2902.40     0.3086     0.0114     0.1827     0.0834     0.3830     3.6875   133.4400     0.2495     0.3757
  419    8.360   2903.39     0.3048     0.0110     0.1885     0.0836     0.3851     3.6141   133.7600     0.2513     0.4286
  420    8.380   2904.39     0.3079     0.0103     0.1939     0.0838     0.3865     3.3427   134.0800     0.2524     0.4091
  421    8.400   2905.37     0.3079     0.0103     0.2060     0.0840     0.3930     3.3784   134.4000     0.2586     0.4585
  422    8.420   2906.37     0.3255     0.0105     0.2166     0.0842     0.4150     3.3420   134.7200     0.2803     0.4604
  423    8.440   2907.34     0.3509     0.0104     0.2220     0.0844     0.4441     3.0393   135.0400     0.3091     0.4451
  424    8.460   2908.38     0.3648     0.0108     0.2148     0.0846     0.4550     2.9813   135.3600     0.3196     0.4071
  425    8.480   2909.51     0.3879     0.0115     0.2173     0.0848     0.4786     2.9885   135.6800     0.3429     0.3829
  426    8.500   2910.48     0.4122     0.0116     0.2237     0.0850     0.5064     2.8720   136.0000     0.3704     0.3763
  427    8.520   2911.44     0.4346     0.0122     0.2189     0.0852     0.5274     2.8397   136.3200     0.3911     0.3471
  428    8.540   2912.46     0.4457     0.0128     0.2119     0.0854     0.5353     2.8828   136.6400     0.3987     0.3211
  429    8.560   2913.47     0.4529     0.0121     0.2172     0.0856     0.5425     2.6785   136.9600     0.4056     0.3148
  430    8.580   2914.53     0.4282     0.0117     0.2236     0.0858     0.5225     2.6196   137.2800     0.3852     0.3602
  431    8.600   2915.53     0.4495     0.0110     0.2155     0.0860     0.5401     2.5221   137.6000     0.4025     0.3227
  432    8.620   2916.56     0.4706     0.0110     0.2141     0.0862     0.5611     2.3358   137.9200     0.4232     0.3058
  433    8.640   2917.56     0.4858     0.0117     0.2217     0.0864     0.5785     2.4101   138.2400     0.4403     0.3052
  434    8.660   2918.59     0.4756     0.0127     0.2082     0.0866     0.5660     2.6624   138.5600     0.4274     0.3005
  435    8.680   2919.64     0.4229     0.0127     0.1746     0.0868     0.5003     2.9738   138.8800     0.3614     0.2694
  436    8.700   2920.67     0.4112     0.0129     0.1586     0.0870     0.4785     3.1350   139.2000     0.3393     0.2158
  437    8.720   2921.66     0.4156     0.0138     0.1469     0.0872     0.4793     3.3420   139.5200     0.3398     0.1902
  438    8.740   2922.67     0.4490     0.0152     0.1404     0.0874     0.5077     3.4122   139.8400     0.3679     0.1422
  439    8.760   2923.62     0.4668     0.0173     0.1404     0.0876     0.5265     3.7094   140.1600     0.3863     0.1410
  440    8.780   2924.61     0.4900     0.0177     0.1351     0.0878     0.5435     3.6222   140.4800     0.4031     0.0981
  441    8.800   2925.62     0.5068     0.0176     0.1465     0.0880     0.5670     3.4865   140.8000     0.4262     0.1298
  442    8.820   2926.66     0.5033     0.0167     0.1566     0.0882     0.5682     3.3129   141.1200     0.4270     0.1553
  443    8.840   2927.67     0.5211     0.0161     0.1690     0.0884     0.5894     3.1495   141.4400     0.4480     0.1656
  444    8.860   2928.71     0.5427     0.0151     0.1817     0.0886     0.6173     2.7610   141.7600     0.4755     0.1872
  445    8.880   2929.67     0.5518     0.0150     0.1547     0.0888     0.6223     2.7317   142.0800     0.4802     0.1647
  446    8.900   2930.67     0.5619     0.0144     0.1752     0.0890     0.6328     2.5278   142.4000     0.4904     0.1632
  447    8.920   2931.68     0.4886     0.0139     0.1770     0.0892     0.5623     2.8203   142.7200     0.4196     0.2056
  448    8.940   2932.70     0.4678     0.0146     0.1720     0.0894     0.5416     3.1078   143.0400     0.3986     0.2166
  449    8.960   2933.70     0.4615     0.0154     0.1587     0.0896     0.5297     3.2981   143.3600     0.3864     0.1887
  450    8.980   2934.67     0.5165     0.0151     0.1670     0.0898     0.5873     2.9418   143.6800     0.4436     0.1773
  451    9.000   2935.68     0.5311     0.0147     0.1511     0.0900     0.5997     2.7648   144.0000     0.4557     0.1611
  452    9.020   2936.65     0.5532     0.0158     0.1281     0.0902     0.6042     2.8243   144.3200     0.4599     0.0680
  453    9.040   2937.74     0.5832     0.0160     0.1606     0.0904     0.6457     2.8038   144.6400     0.5010     0.1171
  454    9.060   2938.77     0.4757     0.0164     0.1906     0.0906     0.5548     3.1422   144.9600     0.4098     0.2380
  455    9.080   2939.78     0.4549     0.0169     0.1678     0.0908     0.5297     3.7040   145.2800     0.3844     0.2263
  456    9.100   2940.76     0.4135     0.0174     0.1587     0.0910     0.4810     4.0235   145.6000     0.3354     0.2082
  457    9.120   2941.89     0.3976     0.0176     0.1484     0.0912     0.4632     4.4005   145.9200     0.3173     0.2048
  458    9.140   2942.82     0.3862     0.0189     0.1276     0.0914     0.4420     4.8111   146.2400     0.2958     0.1406
  459    9.160   2943.84     0.3839     0.0204     0.1267     0.0916     0.4370     5.2079   146.5600     0.2905     0.1200
  460    9.180   2944.83     0.3860     0.0219     0.1284     0.0918     0.4391     5.6046   146.8800     0.2922     0.1184
  461    9.200   2945.89     0.3804     0.0215     0.1180     0.0920     0.4324     5.5952   147.2000     0.2852     0.1110
  462    9.220   2946.91     0.4119     0.0223     0.1048     0.0922     0.4577     5.9014   147.5200     0.3102     0.0556
  463    9.240   2955.29     0.4675     0.0223     0.1225     0.0924     0.5154     4.9021   147.8400     0.3675     0.0529
  464    9.260   2974.48     0.5002     0.0218     0.1472     0.0926     0.5584     4.7943   148.1600     0.4103     0.1017
  465    9.280   2993.67     0.5329     0.0208     0.1719     0.0928     0.6015     4.5717   148.4800     0.4530     0.1504
  466    9.300   3003.53     0.5556     0.0196     0.1743     0.0930     0.6292     3.5342   148.8000     0.4804     0.1716
  467    9.320   3004.53     0.5854     0.0181     0.1908     0.0932     0.6605     3.1242   149.1200     0.5114     0.1671
  468    9.340   3005.53     0.6264     0.0152     0.2167     0.0934     0.7148     2.4823   149.4400     0.5654     0.2073
  469    9.360   3006.55     0.6660     0.0153     0.2420     0.0936     0.7624     2.3085   149.7600     0.6126     0.2223
  470    9.380   3007.56     0.5235     0.0142     0.2408     0.0938     0.6251     2.6849   150.0800     0.4750     0.3118
  471    9.400   3008.56     0.5241     0.0118     0.2383     0.0940     0.6253     2.2574   150.4000     0.4749     0.3095
  472    9.420   3009.56     0.4761     0.0108     0.2477     0.0942     0.5797     2.2398   150.7200     0.4289     0.3554
  473    9.440   3010.51     0.4394     0.0106     0.2380     0.0944     0.5411     2.3855   151.0400     0.3901     0.3787
  474    9.460   3011.57     0.4524     0.0120     0.2198     0.0946     0.5509     2.6342   151.3600     0.3996     0.3506
  475    9.480   3012.57     0.4858     0.0135     0.1652     0.0948     0.5596     2.8026   151.6800     0.4079     0.1983
  476    9.500   3013.55     0.5000     0.0155     0.1387     0.0950     0.5589     3.0859   152.0000     0.4069     0.1111
  477    9.520   3014.60     0.4614     0.0180     0.1167     0.0952     0.5104     3.8811   152.3200     0.3581     0.0598
  478    9.540   3015.61     0.4592     0.0198     0.1201     0.0954     0.5087     4.3828   152.6400     0.3560     0.0628
  479    9.560   3016.63     0.4724     0.0208     0.1196     0.0956     0.5245     4.4471   152.9600     0.3715     0.0768
  480    9.580   3017.68     0.5775     0.0214     0.1153     0.0958     0.6255     3.7547   153.2800     0.4722     0.0388
  481    9.600   3018.63     0.6134     0.0214     0.1333     0.0960     0.6648     3.5263   153.6000     0.5112     0.0511
  482    9.620   3019.65     0.6782     0.0216     0.1752     0.0962     0.7467     3.1625   153.9200     0.5928     0.1130
  483    9.640   3020.67     0.6594     0.0219     0.2047     0.0964     0.7398     3.3312   154.2400     0.5856     0.1624
  484    9.660   3021.70     0.6883     0.0221     0.2464     0.0966     0.7854     3.2010   154.5600     0.6309     0.2135
  485    9.680   3022.73     0.6987     0.0228     0.2716     0.0968     0.8096     3.2782   154.8800     0.6548     0.2556
  486    9.700   3023.69     0.6838     0.0228     0.2879     0.0970     0.8033     3.3216   155.2000     0.6481     0.2896
  487    9.720   3024.70     0.6900     0.0225     0.3053     0.0972     0.8146     3.2833   155.5200     0.6591     0.3027
  488    9.740   3025.72     0.7069     0.0218     0.3326     0.0974     0.8453     3.0490   155.8400     0.6895     0.3370
  489    9.760   3026.71     0.6958     0.0223     0.3525     0.0976     0.8357     3.2516   156.1600     0.6795     0.3461
  490    9.780   3027.70     0.7286     0.0227     0.3849     0.0978     0.8866     3.1159   156.4800     0.7301     0.3811
  491    9.800   3028.71     0.7248     0.0216     0.4001     0.0980     0.8911     2.9775   156.8000     0.7343     0.4058
  492    9.820   3029.76     0.7351     0.0215     0.4224     0.0982     0.9099     2.9189   157.1200     0.7528     0.4225
  493    9.840   3030.69     0.7155     0.0215     0.4082     0.0984     0.8909     3.0013   157.4400     0.7335     0.4353
  494    9.860   3031.71     0.7051     0.0217     0.3943     0.0986     0.8728     3.0763   157.7600     0.7151     0.4206
  495    9.880   3032.70     0.7211     0.0211     0.4256     0.0988     0.8961     2.9096   158.0800     0.7380     0.4306
  496    9.900   3033.71     0.6652     0.0213     0.3838     0.0990     0.8308     3.2016   158.4000     0.6724     0.4392
  497    9.920   3034.72     0.7164     0.0214     0.4192     0.0992     0.8856     3.0165   158.7200     0.7269     0.4176
  498    9.940   3035.75     0.7040     0.0220     0.4147     0.0994     0.8834     3.0531   159.0400     0.7243     0.4524
  499    9.960   3036.75     0.7218     0.0225     0.4105     0.0996     0.8898     3.1253   159.3600     0.7304     0.4113
  500    9.980   3037.77     0.7316     0.0220     0.4149     0.0998     0.9091     3.0070   159.6800     0.7494     0.4306
  501   10.000   3038.78     0.7442     0.0223     0.4133     0.1000     0.9179     3.0323   160.0000     0.7579     0.4137
  502   10.020   3039.79     0.7120     0.0224     0.4164     0.1002     0.8875     3.1054   160.3200     0.7272     0.4371
  503   10.040   3040.80     0.7377     0.0223     0.4252     0.1004     0.9120     3.0931   160.6400     0.7513     0.4187
  504   10.060   3041.81     0.7305     0.0223     0.4401     0.1006     0.9155     3.0318   160.9600     0.7545     0.4509
  505   10.080   3042.79     0.7053     0.0226     0.4269     0.1008     0.8865     3.2126   161.2800     0.7252     0.4562
  506   10.100   3043.87     0.7460     0.0222     0.4509     0.1010     0.9319     2.9806   161.6000     0.7703     0.4432
  507   10.120   3044.91     0.7256     0.0212     0.4311     0.1012     0.9118     2.9023   161.9200     0.7499     0.4564
  508   10.140   3045.91     0.7262     0.0214     0.4273     0.1014     0.9035     2.9708   162.2400     0.7412     0.4325
  509   10.160   3046.88     0.7129     0.0217     0.4334     0.1016     0.8947     3.0381   162.5600     0.7321     0.4522
  510   10.180   3047.86     0.7355     0.0207     0.4465     0.1018     0.9225     2.8073   162.8800     0.7596     0.4519
  511   10.200   3048.89     0.7394     0.0214     0.4505     0.1020     0.9268     2.9072   163.2000     0.7636     0.4508
  512   10.220   3049.92     0.7004     0.0215     0.4201     0.1022     0.8783     3.0351   163.5200     0.7147     0.4493
  513   10.240   3050.91     0.7381     0.0208     0.4459     0.1024     0.9205     2.8462   163.8400     0.7566     0.4386
  514   10.260   3051.90     0.7761     0.0208     0.4682     0.1026     0.9717     2.6853   164.1600     0.8075     0.4497
  515   10.280   3052.89     0.7207     0.0213     0.4514     0.1028     0.9135     2.9583   164.4800     0.7490     0.4755
  516   10.300   3053.92     0.7650     0.0212     0.4589     0.1030     0.9558     2.7795   164.8000     0.7910     0.4439
  517   10.320   3054.97     0.7702     0.0218     0.4529     0.1032     0.9619     2.8387   165.1200     0.7967     0.4432
  518   10.340   3055.97     0.6949     0.0213     0.4301     0.1034     0.8779     3.0347   165.4400     0.7124     0.4664
  519   10.360   3056.95     0.7604     0.0203     0.4273     0.1036     0.9402     2.6808   165.7600     0.7745     0.4192
  520   10.380   3057.95     0.7427     0.0200     0.4373     0.1038     0.9255     2.6795   166.0800     0.7594     0.4365
  521   10.400   3058.95     0.7009     0.0201     0.4285     0.1040     0.8790     2.8690   166.4000     0.7126     0.4492
  522   10.420   3059.94     0.7456     0.0190     0.4492     0.1042     0.9321     2.5988   166.7200     0.7653     0.4440
  523   10.440   3060.94     0.7273     0.0179     0.4489     0.1044     0.9179     2.3492   167.0400     0.7509     0.4657
  524   10.460   3061.97     0.7350     0.0173     0.4263     0.1046     0.9134     2.3477   167.3600     0.7461     0.4295
  525   10.480   3062.97     0.7759     0.0184     0.4407     0.1048     0.9583     2.3863   167.6800     0.7906     0.4166
  526   10.500   3064.02     0.7517     0.0182     0.4227     0.1050     0.9323     2.4157   168.0000     0.7643     0.4253
  527   10.520   3065.02     0.7852     0.0197     0.4121     0.1052     0.9622     2.5586   168.3200     0.7939     0.3984
  528   10.540   3066.06     0.7148     0.0207     0.3710     0.1054     0.8782     2.6554   168.6400     0.7096     0.3997
  529   10.560   3067.08     0.6878     0.0206     0.3420     0.1056     0.8351     3.0035   168.9600     0.6662     0.3681
  530   10.580   3068.13     0.7118     0.0209     0.3510     0.1058     0.8551     2.8903   169.2800     0.6858     0.3438
  531   10.600   3069.12     0.5859     0.0213     0.3233     0.1060     0.7329     3.2605   169.6000     0.5633     0.4331
  532   10.620   3070.17     0.6526     0.0219     0.3255     0.1062     0.7854     3.5761   169.9200     0.6155     0.3415
  533   10.640   3071.17     0.6190     0.0226     0.3224     0.1064     0.7530     3.5996   170.2400     0.5827     0.3650
  534   10.660   3072.20     0.6701     0.0214     0.3220     0.1066     0.8051     3.2741   170.5600     0.6345     0.3388
  535   10.680   3073.18     0.7014     0.0248     0.3159     0.1068     0.8368     3.5827   170.8800     0.6659     0.3240
  536   10.700   3074.20     0.7560     0.0249     0.3633     0.1070     0.9023     3.3512   171.2000     0.7311     0.3300
  537   10.720   3075.33     0.7660     0.0249     0.3870     0.1072     0.9264     3.2659   171.5200     0.7549     0.3640
  538   10.740   3076.25     0.7796     0.0243     0.4272     0.1074     0.9520     3.1219   171.8400     0.7802     0.3884
  539   10.760   3079.83     0.6064     0.0222     0.4817     0.1076     0.8054     3.3654   172.1600     0.6332     0.5783
  540   10.780   3080.97     0.7648     0.0215     0.5122     0.1078     0.9755     2.8059   172.4800     0.8030     0.4905
  541   10.800   3081.93     0.7655     0.0218     0.5368     0.1080     0.9880     2.8550   172.8000     0.8152     0.5175
  542   10.820   3082.92     0.7726     0.0214     0.5548     0.1082     1.0027     2.7764   173.1200     0.8295     0.5300
  543   10.840   3083.95     0.7666     0.0209     0.5631     0.1084     1.0037     2.6802   173.4400     0.8303     0.5496
  544   10.860   3084.99     0.6761     0.0212     0.5018     0.1086     0.9003     2.9825   173.7600     0.7265     0.5853
  545   10.880   3085.98     0.6743     0.0233     0.4689     0.1088     0.8669     3.5577   174.0800     0.6928     0.5051
  546   10.900   3086.97     0.7329     0.0241     0.4961     0.1090     0.9387     3.2994   174.4000     0.7643     0.4983
  547   10.920   3087.96     0.7663     0.0244     0.4996     0.1092     0.9764     3.1967   174.7200     0.8017     0.4878
  548   10.940   3088.99     0.7938     0.0258     0.5149     0.1094     1.0061     3.2771   175.0400     0.8311     0.4764
  549   10.960   3093.81     0.6949     0.0273     0.5229     0.1096     0.9134     3.3866   175.3600     0.7380     0.5677
  550   10.980   3094.89     0.8304     0.0281     0.5543     0.1098     1.0602     3.3927   175.6800     0.8845     0.4944
  551   11.000   3095.90     0.8461     0.0285     0.5694     0.1100     1.0836     3.3976   176.0000     0.9076     0.5017
  552   11.020   3096.95     0.8685     0.0290     0.5727     0.1102     1.1092     3.3792   176.3200     0.9329     0.4963
  553   11.040   3106.73     0.8726     0.0291     0.5765     0.1104     1.1139     3.3332   176.6400     0.9373     0.4952
  554   11.060   3128.35     0.8697     0.0282     0.5822     0.1106     1.1134     3.2280   176.9600     0.9364     0.5016
  555   11.080   3149.98     0.8667     0.0286     0.5903     0.1108     1.1128     3.2751   177.2800     0.9355     0.5079
  556   11.100   3153.46     0.8615     0.0273     0.6120     0.1110     1.1156     3.1458   177.6000     0.9380     0.5266
  557   11.120   3154.66     0.8558     0.0261     0.6304     0.1112     1.1177     3.0525   177.9200     0.9398     0.5452
  558   11.140   3155.62     0.8481     0.0245     0.6424     0.1114     1.1164     2.8911   178.2400     0.9382     0.5623
  559   11.160   3156.58     0.8471     0.0242     0.6493     0.1116     1.1177     2.8559   178.5600     0.9391     0.5673
  560   11.180   3157.59     0.8438     0.0238     0.6739     0.1118     1.1235     2.8149   178.8800     0.9446     0.5868
  561   11.200   3158.62     0.8512     0.0223     0.6820     0.1120     1.1379     2.6266   179.2000     0.9587     0.5951
  562   11.220   3159.66     0.8680     0.0223     0.6904     0.1122     1.1566     2.5735   179.5200     0.9770     0.5883
  563   11.240   3160.62     0.8831     0.0211     0.6861     0.1124     1.1710     2.3942   179.8400     0.9912     0.5783
  564   11.260   3161.62     0.8723     0.0214     0.6841     0.1126     1.1611     2.4526   180.1600     0.9809     0.5861
  565   11.280   3162.61     0.8641     0.0218     0.6906     0.1128     1.1547     2.5249   180.4800     0.9743     0.5946
  566   11.300   3163.58     0.8744     0.0202     0.6864     0.1130     1.1642     2.3026   180.8000     0.9834     0.5867
  567   11.320   3164.58     0.8712     0.0197     0.6980     0.1132     1.1626     2.2641   181.1200     0.9815     0.5915
  568   11.340   3165.65     0.8902     0.0210     0.6806     0.1134     1.1803     2.3627   181.4400     0.9989     0.5780
  569   11.360   3166.66     0.9087     0.0196     0.6800     0.1136     1.1935     2.1559   181.7600     1.0117     0.5579
  570   11.380   3167.68     0.9212     0.0193     0.6818     0.1138     1.2066     2.0966   182.0800     1.0245     0.5521
  571   11.400   3168.57     0.9320     0.0205     0.6616     0.1140     1.2101     2.2032   182.4000     1.0277     0.5333
  572   11.420   3169.57     0.9237     0.0216     0.6550     0.1142     1.2007     2.2899   182.7200     1.0180     0.5356
  573   11.440   3170.63     0.9144     0.0210     0.6746     0.1144     1.1975     2.3056   183.0400     1.0145     0.5517
  574   11.460   3171.68     0.9590     0.0208     0.6778     0.1146     1.2455     2.1851   183.3600     1.0621     0.5344
  575   11.480   3172.67     1.0214     0.0209     0.6311     0.1148     1.2911     2.0427   183.6800     1.1074     0.4762
  576   11.500   3173.67     0.9857     0.0202     0.6168     0.1150     1.2453     2.0274   184.0000     1.0613     0.4744
  577   11.520   3174.69     0.8907     0.0204     0.6672     0.1152     1.1642     2.2910   184.3200     0.9798     0.5469
  578   11.540   3175.73     0.8953     0.0198     0.6783     0.1154     1.1792     2.2506   184.6400     0.9945     0.5635
  579   11.560   3176.69     0.9218     0.0193     0.6721     0.1156     1.2050     2.1019   184.9600     1.0201     0.5478
  580   11.580   3177.73     0.9203     0.0211     0.6539     0.1158     1.1952     2.2669   185.2800     1.0099     0.5335
  581   11.600   3178.72     0.9138     0.0224     0.6470     0.1160     1.1864     2.4536   185.6000     1.0008     0.5326
  582   11.620   3179.73     0.9297     0.0232     0.6391     0.1162     1.1978     2.4818   185.9200     1.0119     0.5160
  583   11.640   3180.82     0.9005     0.0226     0.6278     0.1164     1.1670     2.5054   186.2400     0.9808     0.5284
  584   11.660   3181.82     0.8712     0.0159     0.6310     0.1166     1.1339     1.8060   186.5600     0.9474     0.5373
  585   11.680   3182.85     0.8373     0.0097     0.6467     0.1168     1.1063     1.1511   186.8800     0.9194     0.5696
  586   11.700   3183.82     0.8094     0.0123     0.6755     0.1170     1.0889     1.5143   187.2000     0.9017     0.6083
  587   11.720   3184.80     0.9070     0.0159     0.7057     0.1172     1.1986     1.9046   187.5200     1.0111     0.5732
  588   11.740   3185.83     1.7929     0.0199     0.6149     0.1174     2.0713     1.4111   187.8400     1.8834     0.3006
  589   11.760   3186.84     3.7144     0.0277     0.4067     0.1176     3.9265     0.9867   188.1600     3.7384     0.1089
  590   11.780   3187.89     6.1665     0.0370     0.1476     0.1178     6.2454     0.6899   188.4800     6.0570     0.0120
  591   11.800   3188.90     7.5937     0.0477     0.0797     0.1180     7.6342     0.6701   188.8000     7.4454    -0.0028
  592   11.820   3189.91     8.6095     0.0602     0.0462     0.1182     8.6330     0.7263   189.1200     8.4439    -0.0074
  593   11.840   3190.95     9.2978     0.0704     0.0337     0.1184     9.3121     0.7722   189.4400     9.1227    -0.0092
  594   11.860   3192.06     9.9148     0.0791     0.0155     0.1186     9.9243     0.8116   189.7600     9.7345    -0.0099
  595   11.880   3193.09    10.2938     0.0850     0.0094     0.1188    10.2983     0.8358   190.0800    10.1082    -0.0107
  596   11.900   3194.11    10.6407     0.0886     0.0072     0.1190    10.6437     0.8417   190.4000    10.4533    -0.0107
  597   11.920   3195.12    10.9114     0.0953     0.0149     0.1192    10.9167     0.8800   190.7200    10.7260    -0.0099
  598   11.940   3196.20    11.2575     0.1017     0.0194     0.1194    11.2654     0.9100   191.0400    11.0743    -0.0091
  599   11.960   3197.25    11.4863     0.1063     0.0113     0.1196    11.4931     0.9310   191.3600    11.3018    -0.0091
  600   11.980   3198.34    11.5561     0.1117     0.0049     0.1198    11.5583     0.9671   191.6800    11.3666    -0.0101
  601   12.000   3199.35    11.5378     0.1113     0.0095     0.1200    11.5410     0.9642   192.0000    11.3490    -0.0099
  602   12.020   3200.43    11.5881     0.1070     0.0151     0.1202    11.5935     0.9246   192.3200    11.4012    -0.0094
  603   12.040   3201.45    11.7644     0.1026     0.0237     0.1204    11.7728     0.8757   192.6400    11.5802    -0.0087
  604   12.060   3202.59    12.1968     0.1005     0.0279     0.1206    12.2081     0.8325   192.9600    12.0151    -0.0078
  605   12.080   3203.56    12.6244     0.0965     0.0308     0.1208    12.6366     0.7714   193.2800    12.4433    -0.0074
  606   12.100   3204.63    12.9040     0.0971     0.0306     0.1210    12.9181     0.7558   193.6000    12.7245    -0.0069
  607   12.120   3205.73    12.9972     0.0973     0.0111     0.1212    13.0057     0.7485   193.9200    12.8117    -0.0079
  608   12.140   3206.83    12.8827     0.1003    -0.0105     0.1214    12.8799     0.7753   194.2400    12.6857    -0.0101
  609   12.160   3207.89    12.8060     0.1032    -0.0077     0.1216    12.8042     0.8062   194.5600    12.6097    -0.0100
  610   12.180   3208.91    12.7724     0.1042    -0.0143     0.1218    12.7667     0.8136   194.8800    12.5718    -0.0108
  611   12.200   3209.95    12.7150     0.1073    -0.0107     0.1220    12.7095     0.8448   195.2000    12.5143    -0.0108
  612   12.220   3210.98    12.5459     0.1065    -0.0027     0.1222    12.5431     0.8478   195.5200    12.3476    -0.0104
  613   12.240   3212.08    12.4053     0.1045     0.0047     0.1224    12.4065     0.8405   195.8400    12.2106    -0.0098
  614   12.260   3213.18    12.2009     0.1031     0.0103     0.1226    12.2040     0.8394   196.1600    12.0079    -0.0096
  615   12.280   3214.18    12.1423     0.1033     0.0184     0.1228    12.1485     0.8509   196.4800    11.9520    -0.0090
  616   12.300   3215.20    12.0442     0.1073     0.0384     0.1230    12.0552     0.8857   196.8000    11.8584    -0.0082
  617   12.320   3216.23    11.8910     0.1108     0.0299     0.1232    11.9035     0.9305   197.1200    11.7064    -0.0080
  618   12.340   3217.41    11.6661     0.1115     0.0305     0.1234    11.6782     0.9501   197.4400    11.4807    -0.0083
  619   12.360   3218.44    11.5116     0.1080     0.0335     0.1236    11.5253     0.9339   197.7600    11.3276    -0.0080
  620   12.380   3219.44    11.4396     0.1017     0.0402     0.1238    11.4551     0.8888   198.0800    11.2570    -0.0077
  621   12.400   3220.45    11.4759     0.0927     0.0469     0.1240    11.4950     0.8087   198.4000    11.2966    -0.0070
  622   12.420   3221.48    11.5722     0.0851     0.0438     0.1242    11.5927     0.7372   198.7200    11.3940    -0.0066
  623   12.440   3222.56    11.7128     0.0871     0.0195     0.1244    11.7254     0.7448   199.0400    11.5264    -0.0082
  624   12.460   3223.67    11.7363     0.0901    -0.0023     0.1246    11.7367     0.7680   199.3600    11.5373    -0.0107
  625   12.480   3224.75    11.8070     0.0955    -0.0028     0.1248    11.8055     0.8097   199.6800    11.6058    -0.0111
  626   12.500   3225.83    11.9094     0.1028    -0.0028     0.1250    11.9084     0.8630   200.0000    11.7084    -0.0109
  627   12.520   3226.92    11.9840     0.1126    -0.0032     0.1252    11.9823     0.9422   200.3200    11.7820    -0.0110
  628   12.540   3228.02    12.1025     0.1218     0.0076     0.1254    12.1043     1.0084   200.6400    11.9037    -0.0102
  629   12.560   3229.07    12.1104     0.1237     0.0186     0.1256    12.1164     1.0207   200.9600    11.9154    -0.0094
  630   12.580   3230.13    12.0600     0.1220     0.0304     0.1258    12.0708     1.0114   201.2800    11.8696    -0.0084
  631   12.600   3231.19    12.0848     0.1226     0.0430     0.1260    12.1006     1.0147   201.6000    11.8990    -0.0074
  632   12.620   3232.27    12.0725     0.1210     0.0516     0.1262    12.0928     1.0015   201.9200    11.8909    -0.0065
  633   12.640   3233.38    12.0146     0.1201     0.0546     0.1264    12.0378     0.9985   202.2400    11.8355    -0.0060
  634   12.660   3234.50    11.9434     0.1162     0.0554     0.1266    11.9666     0.9721   202.5600    11.7641    -0.0061
  635   12.680   3235.54    11.8591     0.1113     0.0628     0.1268    11.8841     0.9374   202.8800    11.6812    -0.0058
  636   12.700   3236.63    11.8719     0.1078     0.0693     0.1270    11.9007     0.9088   203.2000    11.6975    -0.0050
  637   12.720   3237.69    11.8233     0.1106     0.0711     0.1272    11.8530     0.9339   203.5200    11.6495    -0.0049
  638   12.740   3238.75    11.7396     0.1095     0.0545     0.1274    11.7661     0.9330   203.8400    11.5623    -0.0056
  639   12.760   3239.73    11.7261     0.1073     0.0058     0.1276    11.7348     0.9140   204.1600    11.5307    -0.0093
  640   12.780   3240.78    11.5942     0.1073    -0.0039     0.1278    11.5922     0.9236   204.4800    11.3878    -0.0116
  641   12.800   3241.87    11.3751     0.1122    -0.0010     0.1280    11.3734     0.9819   204.8000    11.1686    -0.0118
  642   12.820   3242.98    11.1150     0.1132     0.0115     0.1282    11.1181     1.0149   205.1200    10.9130    -0.0111
  643   12.840   3244.03    10.9886     0.1107     0.0205     0.1284    10.9956     0.9973   205.4400    10.7902    -0.0103
  644   12.860   3245.12    11.0383     0.1082     0.0332     0.1286    11.0505     0.9743   205.7600    10.8447    -0.0092
  645   12.880   3246.15    11.2974     0.1073     0.0469     0.1288    11.3156     0.9607   206.0800    11.1095    -0.0077
  646   12.900   3247.25    11.8673     0.1139     0.0558     0.1290    11.8905     0.9747   206.4000    11.6841    -0.0063
  647   12.920   3248.34    12.5783     0.1252     0.0552     0.1292    12.6020     1.0029   206.7200    12.3952    -0.0059
  648   12.940   3257.00    13.2824     0.1351     0.0650     0.1294    13.3071     1.0286   207.0400    13.1001    -0.0054
  649   12.960   3280.78    13.7295     0.1442     0.0832     0.1296    13.7618     1.0977   207.3600    13.5544    -0.0040
  650   12.980   3304.56    14.1765     0.1516     0.0952     0.1298    14.2164     1.1545   207.6800    14.0088    -0.0025
  651   13.000   3310.34    14.0828     0.1543     0.0751     0.1300    14.1166     1.0880   208.0000    13.9086    -0.0036
  652   13.020   3311.32    13.6630     0.1527     0.0730     0.1302    13.6929     1.1086   208.3200    13.4845    -0.0044
  653   13.040   3312.37    13.3613     0.1488     0.0815     0.1304    13.3948     1.1087   208.6400    13.1861    -0.0038
  654   13.060   3313.56    13.0267     0.1426     0.0845     0.1306    13.0614     1.0875   208.9600    12.8524    -0.0037
  655   13.080   3314.59    12.7514     0.1357     0.0829     0.1308    12.7876     1.0596   209.2800    12.5783    -0.0035
  656   13.100   3315.64    12.6057     0.1341     0.0730     0.1310    12.6369     1.0626   209.6000    12.4273    -0.0046
  657   13.120   3316.68    12.6989     0.1282     0.0739     0.1312    12.7294     1.0116   209.9200    12.5195    -0.0047
  658   13.140   3317.75    12.9049     0.1230     0.0720     0.1314    12.9364     0.9582   210.2400    12.7262    -0.0044
  659   13.160   3318.86    13.4071     0.1197     0.0590     0.1316    13.4328     0.9022   210.5600    13.2222    -0.0053
  660   13.180   3319.91    13.9538     0.1212     0.0474     0.1318    13.9777     0.8769   210.8800    13.7668    -0.0055
  661   13.200   3321.05    14.3768     0.1249    -0.0081     0.1320    14.3836     0.8736   211.2000    14.1724    -0.0082
  662   13.220   3322.05    14.8200     0.1250    -0.0368     0.1322    14.8073     0.8479   211.5200    14.5957    -0.0111
  663   13.240   3323.16    15.2309     0.1296    -0.0464     0.1324    15.2113     0.8562   211.8400    14.9994    -0.0119
  664   13.260   3324.22    15.6133     0.1334    -0.0531     0.1326    15.5926     0.8593   212.1600    15.3805    -0.0118
  665   13.280   3325.27    15.8842     0.1405    -0.0606     0.1328    15.8598     0.8866   212.4800    15.6473    -0.0122
  666   13.300   3326.38    16.0872     0.1465    -0.0665     0.1330    16.0593     0.9121   212.8000    15.8465    -0.0126
  667   13.320   3327.44    16.1550     0.1556    -0.0756     0.1332    16.1235     0.9639   213.1200    15.9104    -0.0131
  668   13.340   3328.54    16.2410     0.1620    -0.0759     0.1334    16.2094     0.9975   213.4400    15.9960    -0.0130
  669   13.360   3329.58    16.3317     0.1678    -0.0703     0.1336    16.3011     1.0272   213.7600    16.0873    -0.0128
  670   13.380   3330.62    16.4473     0.1737    -0.0584     0.1338    16.4220     1.0565   214.0800    16.2079    -0.0120
  671   13.400   3331.73    16.5400     0.1762    -0.0497     0.1340    16.5185     1.0658   214.4000    16.3041    -0.0114
  672   13.420   3332.89    16.5780     0.1692    -0.0514     0.1342    16.5576     1.0201   214.7200    16.3429    -0.0112
  673   13.440   3333.91    16.5060     0.1631    -0.0527     0.1344    16.4833     0.9868   215.0400    16.2683    -0.0116
  674   13.460   3335.00    16.3684     0.1567    -0.0508     0.1346    16.3467     0.9561   215.3600    16.1314    -0.0115
  675   13.480   3336.03    16.3574     0.1480    -0.0545     0.1348    16.3359     0.9047   215.6800    16.1202    -0.0115
  676   13.500   3337.12    16.2133     0.1458    -0.0611     0.1350    16.1886     0.8987   216.0000    15.9726    -0.0121
  677   13.520   3338.26    16.1320     0.1448    -0.0555     0.1352    16.1080     0.8965   216.3200    15.8917    -0.0121
  678   13.540   3339.33    16.0162     0.1436    -0.0529     0.1354    15.9946     0.8930   216.6400    15.7780    -0.0118
  679   13.560   3340.45    15.6928     0.1412    -0.0641     0.1356    15.6673     0.8970   216.9600    15.4504    -0.0127
  680   13.580   3341.54    15.3582     0.1379    -0.0706     0.1358    15.3291     0.8934   217.2800    15.1118    -0.0136
  681   13.600   3342.59    15.0459     0.1335    -0.0724     0.1360    15.0161     0.8830   217.6000    14.7985    -0.0140
  682   13.620   3343.68    14.8338     0.1273    -0.0644     0.1362    14.8051     0.8582   217.9200    14.5872    -0.0140
  683   13.640   3344.79    14.9089     0.1294    -0.0635     0.1364    14.8823     0.8679   218.2400    14.6640    -0.0136
  684   13.660   3345.90    14.7197     0.1314    -0.0739     0.1366    14.6901     0.8879   218.5600    14.4715    -0.0143
  685   13.680   3346.93    14.2184     0.1278    -0.0783     0.1368    14.1867     0.8920   218.8800    13.9678    -0.0152
  686   13.700   3348.01    13.8073     0.1276    -0.0826     0.1370    13.7721     0.9192   219.2000    13.5529    -0.0163
  687   13.720   3349.07    13.6200     0.1319    -0.0769     0.1372    13.5864     0.9671   219.5200    13.3669    -0.0163
  688   13.740   3350.15    13.4743     0.1354    -0.0702     0.1374    13.4436     1.0036   219.8400    13.2237    -0.0159
  689   13.760   3351.22    13.2479     0.1368    -0.0587     0.1376    13.2218     1.0298   220.1600    13.0016    -0.0154
  690   13.780   3352.30    13.2243     0.1258    -0.0462     0.1378    13.2031     0.9526   220.4800    12.9826    -0.0145
  691   13.800   3353.36    13.8770     0.1194    -0.0353     0.1380    13.8605     0.8671   220.8000    13.6397    -0.0130
  692   13.820   3354.46    14.7480     0.1230    -0.0364     0.1382    14.7335     0.8379   221.1200    14.5124    -0.0119
  693   13.840   3355.50    15.6060     0.1404    -0.0413     0.1384    15.5910     0.9026   221.4400    15.3695    -0.0113
  694   13.860   3356.61    16.1867     0.1558    -0.0816     0.1386    16.1611     0.9640   221.7600    15.9393    -0.0125
  695   13.880   3357.76    16.4608     0.1685    -0.1013     0.1388    16.4222     1.0264   222.0800    16.2001    -0.0143
  696   13.900   3358.86    16.8006     0.1735    -0.1052     0.1390    16.7561     1.0353   222.4000    16.5337    -0.0148
  697   13.920   3359.95    16.8685     0.1809    -0.0947     0.1392    16.8275     1.0723   222.7200    16.6048    -0.0143
  698   13.940   3361.01    16.6030     0.1819    -0.0895     0.1394    16.5635     1.0944   223.0400    16.3404    -0.0143
  699   13.960   3362.07    16.1213     0.1771    -0.0792     0.1396    16.0867     1.0826   223.3600    15.8633    -0.0140
  700   13.980   3363.16    15.5257     0.1687    -0.0708     0.1398    15.4956     1.0713   223.6800    15.2720    -0.0138
  701   14.000   3364.28    15.1990     0.1635    -0.0583     0.1400    15.1728     1.0713   224.0000    14.9488    -0.0135
  702   14.020   3365.38    15.0911     0.1588    -0.0503     0.1402    15.0689     1.0514   224.3200    14.8446    -0.0130
  703   14.040   3366.53    15.2148     0.1572    -0.0435     0.1404    15.1958     1.0345   224.6400    14.9711    -0.0124
  704   14.060   3367.66    15.5309     0.1567    -0.0312     0.1406    15.5161     1.0122   224.9600    15.2912    -0.0115
  705   14.080   3368.76    15.6946     0.1588    -0.0295     0.1408    15.6821     1.0127   225.2800    15.4568    -0.0110
  706   14.100   3369.86    15.6587     0.1602    -0.0335     0.1410    15.6451     1.0210   225.6000    15.4195    -0.0112
  707   14.120   3370.95    15.4632     0.1577    -0.0337     0.1412    15.4493     1.0171   225.9200    15.2234    -0.0115
  708   14.140   3372.02    15.1042     0.1534    -0.0333     0.1414    15.0900     1.0131   226.2400    14.8638    -0.0118
  709   14.160   3373.12    14.7424     0.1503    -0.0298     0.1416    14.7293     1.0159   226.5600    14.5028    -0.0119
  710   14.180   3374.22    14.4832     0.1501    -0.0254     0.1418    14.4715     1.0346   226.8800    14.2447    -0.0119
  711   14.200   3375.28    14.2617     0.1489    -0.0194     0.1420    14.2530     1.0435   227.2000    14.0258    -0.0116
  712   14.220   3376.40    14.2772     0.1447    -0.0132     0.1422    14.2703     1.0143   227.5200    14.0427    -0.0113
  713   14.240   3377.49    14.4450     0.1371    -0.0055     0.1424    14.4416     0.9509   227.8400    14.2138    -0.0106
  714   14.260   3378.52    14.7355     0.1304    -0.0009     0.1426    14.7338     0.8863   228.1600    14.5056    -0.0101
  715   14.280   3379.61    15.1752     0.1237    -0.0035     0.1428    15.1746     0.8249   228.4800    14.9461    -0.0097
  716   14.300   3380.77    15.6636     0.1236    -0.0403     0.1430    15.6536     0.7906   228.8000    15.4248    -0.0108
  717   14.320   3381.91    16.0418     0.1297    -0.0755     0.1432    16.0129     0.8100   229.1200    15.7838    -0.0134
  718   14.340   3382.98    16.0644     0.1323    -0.0993     0.1434    16.0263     0.8227   229.4400    15.7968    -0.0148
  719   14.360   3384.00    15.9350     0.1304    -0.1049     0.1436    15.8919     0.8171   229.7600    15.6622    -0.0157
  720   14.380   3385.13    15.7727     0.1290    -0.0973     0.1438    15.7293     0.8175   230.0800    15.4993    -0.0159
  721   14.400   3386.27    15.4905     0.1311    -0.1006     0.1440    15.4485     0.8445   230.4000    15.2181    -0.0160
  722   14.420   3387.25    15.0800     0.1381    -0.0973     0.1442    15.0389     0.9112   230.7200    14.8081    -0.0163
  723   14.440   3388.40    14.5739     0.1364    -0.0943     0.1444    14.5332     0.9329   231.0400    14.3022    -0.0169
  724   14.460   3389.49    14.4955     0.1293    -0.0882     0.1446    14.4578     0.8919   231.3600    14.2264    -0.0165
  725   14.480   3390.58    14.5008     0.1115    -0.0857     0.1448    14.4642     0.7695   231.6800    14.2326    -0.0163
  726   14.500   3391.69    14.4380     0.1066    -0.0833     0.1450    14.4028     0.7378   232.0000    14.1708    -0.0161
  727   14.520   3392.74    14.2840     0.1135    -0.0927     0.1452    14.2476     0.7924   232.3200    14.0152    -0.0166
  728   14.540   3393.84    13.7298     0.1233    -0.1148     0.1454    13.6850     0.8958   232.6400    13.4524    -0.0187
  729   14.560   3394.93    12.7204     0.1286    -0.1404     0.1456    12.6631     1.0021   232.9600    12.4301    -0.0227
  730   14.580   3395.99    11.7961     0.1284    -0.1330     0.1458    11.7390     1.0813   233.2800    11.5058    -0.0245
  731   14.600   3397.04    11.5124     0.1310    -0.1223     0.1460    11.4597     1.1384   233.6000    11.2261    -0.0242
  732   14.620   3398.19    12.1904     0.1287    -0.1161     0.1462    12.1409     1.0639   233.9200    11.9070    -0.0222
  733   14.640   3399.37    13.0468     0.1341    -0.1168     0.1464    12.9976     1.0360   234.2400    12.7633    -0.0206
  734   14.660   3400.42    13.2310     0.1447    -0.1387     0.1466    13.1766     1.0935   234.5600    12.9421    -0.0213
  735   14.680   3401.45    13.1784     0.1539    -0.1569     0.1468    13.1149     1.1679   234.8800    12.8800    -0.0231
  736   14.700   3402.55    12.9879     0.1586    -0.1667     0.1470    12.9165     1.2172   235.2000    12.6813    -0.0250
  737   14.720   3403.70    12.8851     0.1611    -0.1568     0.1472    12.8179     1.2508   235.5200    12.5823    -0.0244
  738   14.740   3404.68    12.9295     0.1572    -0.1423     0.1474    12.8683     1.2161   235.8400    12.6324    -0.0232
  739   14.760   3405.80    13.2217     0.1465    -0.1339     0.1476    13.1643     1.1109   236.1600    12.9281    -0.0220
  740   14.780   3406.90    13.3897     0.1362    -0.1267     0.1478    13.3352     1.0173   236.4800    13.0987    -0.0212
  741   14.800   3408.05    13.5037     0.1313    -0.1200     0.1480    13.4520     0.9754   236.8000    13.2152    -0.0205
  742   14.820   3409.04    13.9362     0.1282    -0.1129     0.1482    13.8884     0.9215   237.1200    13.6513    -0.0192
  743   14.840   3410.15    14.3254     0.1255    -0.1075     0.1484    14.2800     0.8803   237.4400    14.0426    -0.0183
  744   14.860   3411.19    14.6237     0.1219    -0.1094     0.1486    14.5780     0.8349   237.7600    14.3403    -0.0179
  745   14.880   3412.39    14.7365     0.1169    -0.1111     0.1488    14.6897     0.7930   238.0800    14.4517    -0.0180
  746   14.900   3413.39    14.7358     0.1148    -0.1125     0.1490    14.6887     0.7766   238.4000    14.4503    -0.0181
  747   14.920   3414.47    14.8143     0.1153    -0.1115     0.1492    14.7679     0.7760   238.7200    14.5292    -0.0179
  748   14.940   3415.54    15.0439     0.1138    -0.1238     0.1494    14.9946     0.7625   239.0400    14.7556    -0.0181
  749   14.960   3416.67    15.3078     0.1102    -0.1352     0.1496    15.2522     0.7240   239.3600    15.0129    -0.0188
  750   14.980   3417.80    15.3411     0.1115    -0.1421     0.1498    15.2831     0.7266   239.6800    15.0434    -0.0191
  751   15.000   3428.38    15.2435     0.1177    -0.0865     0.1500    15.1932     0.7706   240.0000    14.9532    -0.0180
  752   15.020   3463.81    15.1574     0.1239     0.0097     0.1502    15.1475     0.8114   240.3200    14.9072    -0.0116
  753   15.040   3494.70    15.0520     0.1299     0.0312     0.1504    15.0738     0.8599   240.6400    14.8331    -0.0066
  754   15.060   3495.76    14.6799     0.1334     0.0070     0.1506    14.6845     0.9010   240.9600    14.4435    -0.0097
  755   15.080   3496.83    14.2198     0.1329    -0.0057     0.1508    14.2182     0.9285   241.2800    13.9769    -0.0111
  756   15.100   3497.90    13.8805     0.1225    -0.0095     0.1510    13.8761     0.8774   241.6000    13.6345    -0.0118
  757   15.120   3499.02    13.5678     0.1220    -0.0029     0.1512    13.5654     0.8930   241.9200    13.3234    -0.0118
  758   15.140   3500.06    13.2882     0.1241    -0.0024     0.1514    13.2881     0.9284   242.2400    13.0458    -0.0116
  759   15.160   3501.11    12.9728     0.1193    -0.0190     0.1516    12.9679     0.9104   242.5600    12.7253    -0.0128
  760   15.180   3502.16    12.3261     0.1139    -0.0208     0.1518    12.3160     0.9085   242.8800    12.0731    -0.0146
  761   15.200   3503.22    11.4999     0.1299    -0.0289     0.1520    11.4898     1.0951   243.2000    11.2466    -0.0157
  762   15.220   3504.27    10.6484     0.1490    -0.0443     0.1522    10.6311     1.3741   243.5200    10.3876    -0.0186
  763   15.240   3505.36     9.9804     0.1361    -0.0625     0.1524     9.9574     1.3416   243.8400     9.7136    -0.0213
  764   15.260   3506.43     9.5902     0.1304    -0.0710     0.1526     9.5604     1.3568   244.1600     9.3163    -0.0240
  765   15.280   3507.42     9.9281     0.1292    -0.0853     0.1528     9.8974     1.3196   244.4800     9.6529    -0.0234
  766   15.300   3508.43    10.4660     0.1242    -0.1173     0.1530    10.4183     1.2116   244.8000    10.1735    -0.0262
  767   15.320   3509.52    11.5630     0.1219    -0.1423     0.1532    11.5083     1.0861   245.1200    11.2631    -0.0252
  768   15.340   3510.61    12.1834     0.1146    -0.1512     0.1534    12.1205     0.9586   245.4400    11.8751    -0.0255
  769   15.360   3511.66    12.3545     0.1070    -0.1511     0.1536    12.2910     0.8674   245.7600    12.0452    -0.0253
  770   15.380   3512.72    12.2971     0.1060    -0.1446     0.1538    12.2354     0.8608   246.0800    11.9894    -0.0251
  771   15.400   3513.73    12.0216     0.1175    -0.1341     0.1540    11.9635     0.9668   246.4000    11.7171    -0.0250
  772   15.420   3514.75    11.2084     0.1284    -0.1290     0.1542    11.1536     1.1127   246.7200    10.9069    -0.0261
  773   15.440   3515.85     9.8196     0.1475    -0.1245     0.1544     9.7664     1.4287   247.0400     9.5193    -0.0296
  774   15.460   3516.91     8.3710     0.1555    -0.1208     0.1546     8.3197     1.7536   247.3600     8.0723    -0.0343
  775   15.480   3517.97     6.9702     0.1648    -0.1149     0.1548     6.9209     2.1992   247.6800     6.6733    -0.0408
  776   15.500   3519.02     5.9951     0.1613    -0.1050     0.1550     5.9492     2.5747   248.0000     5.7012    -0.0464
  777   15.520   3520.07     5.6404     0.1531    -0.0888     0.1552     5.6005     2.6838   248.3200     5.3522    -0.0467
  778   15.540   3521.05     5.3013     0.1521    -0.0737     0.1554     5.2677     2.8214   248.6400     5.0190    -0.0469
  779   15.560   3522.16     5.4948     0.1520    -0.0406     0.1556     5.4744     2.7922   248.9600     5.2254    -0.0391
  780   15.580   3523.17     5.6811     0.1344    -0.0531     0.1558     5.6595     2.3858   249.2800     5.4102    -0.0383
  781   15.600   3524.29     6.0999     0.1209    -0.0540     0.1560     6.0775     2.0320   249.6000     5.8279    -0.0360
  782   15.620   3525.37     7.5785     0.1089    -0.0633     0.1562     7.5523     1.5601   249.9200     7.3024    -0.0300
  783   15.640   3526.45     9.1471     0.1101    -0.0657     0.1564     9.1217     1.2428   250.2400     8.8715    -0.0245
  784   15.660   3527.49    10.0666     0.1104    -0.0936     0.1566    10.0276     1.1142   250.5600     9.7770    -0.0255
  785   15.680   3528.60    10.5552     0.1050    -0.0975     0.1568    10.5144     1.0071   250.8800    10.2636    -0.0247
  786   15.700   3529.58    10.9313     0.1026    -0.0923     0.1570    10.8910     0.9475   251.2000    10.6398    -0.0238
  787   15.720   3530.64    11.5527     0.0973    -0.0802     0.1572    11.5173     0.8540   251.5200    11.2658    -0.0214
  788   15.740   3531.76    12.4761     0.0944    -0.0696     0.1574    12.4454     0.7686   251.8400    12.1935    -0.0189
  789   15.760   3532.82    13.4469     0.0900    -0.0563     0.1576    13.4215     0.6790   252.1600    13.1693    -0.0166
  790   15.780   3533.86    14.2369     0.0910    -0.0554     0.1578    14.2140     0.6449   252.4800    13.9616    -0.0152
  791   15.800   3534.90    14.5833     0.1025    -0.0658     0.1580    14.5572     0.7033   252.8000    14.3044    -0.0154
  792   15.820   3535.99    14.3579     0.1121    -0.0750     0.1582    14.3273     0.7732   253.1200    14.0742    -0.0164
  793   15.840   3537.07    13.6742     0.1242    -0.0853     0.1584    13.6405     0.8921   253.4400    13.3870    -0.0178
  794   15.860   3538.15    12.6660     0.1392    -0.0894     0.1586    12.6283     1.0725   253.7600    12.3745    -0.0201
  795   15.880   3539.20    11.3727     0.1436    -0.0900     0.1588    11.3354     1.2211   254.0800    11.0813    -0.0224
  796   15.900   3540.26    10.2719     0.1392    -0.0809     0.1590    10.2360     1.3456   254.4000     9.9816    -0.0245
  797   15.920   3541.23    10.2889     0.1347    -0.0687     0.1592    10.2573     1.3144   254.7200    10.0025    -0.0234
  798   15.940   3542.32    11.0950     0.1311    -0.0554     0.1594    11.0701     1.2002   255.0400    10.8151    -0.0202
  799   15.960   3543.41    11.5456     0.1168    -0.0479     0.1596    11.5253     1.0135   255.3600    11.2699    -0.0185
  800   15.980   3544.53    11.6468     0.0978    -0.0622     0.1598    11.6239     0.8428   255.6800    11.3682    -0.0189
  801   16.000   3545.59    11.8321     0.0724    -0.0903     0.1600    11.7997     0.6134   256.0000    11.5437    -0.0205
  802   16.020   3546.71    11.6921     0.0674    -0.1046     0.1602    11.6504     0.5732   256.3200    11.3941    -0.0228
  803   16.040   3547.67    11.2872     0.0758    -0.1129     0.1604    11.2416     0.6651   256.6400    10.9849    -0.0245
  804   16.060   3548.78    10.5606     0.0933    -0.1217     0.1606    10.5103     0.8653   256.9600    10.2534    -0.0274
  805   16.080   3549.81    10.0456     0.1102    -0.1243     0.1608     9.9941     1.0845   257.2800     9.7368    -0.0291
  806   16.100   3550.92     9.7827     0.1090    -0.1180     0.1610     9.7323     1.1129   257.6000     9.4747    -0.0297
  807   16.120   3552.08     9.7894     0.0932    -0.1124     0.1612     9.7416     0.9554   257.9200     9.4837    -0.0290
  808   16.140   3553.08     9.9902     0.0797    -0.1027     0.1614     9.9459     0.8037   258.2400     9.6877    -0.0275
  809   16.160   3554.08    10.2298     0.0737    -0.1215     0.1616    10.1837     0.7244   258.5600     9.9252    -0.0273
  810   16.180   3555.06    10.0793     0.0794    -0.1649     0.1618    10.0142     0.7820   258.8800     9.7553    -0.0325
  811   16.200   3556.21     9.4455     0.0812    -0.1898     0.1620     9.3690     0.8324   259.2000     9.1098    -0.0378
  812   16.220   3557.25     8.6068     0.0710    -0.1839     0.1622     8.5281     0.7931   259.5200     8.2686    -0.0423
  813   16.240   3558.30     8.0603     0.0727    -0.1711     0.1624     7.9867     0.8839   259.8400     7.7268    -0.0437
  814   16.260   3559.33     8.5907     0.0855    -0.1580     0.1626     8.5234     1.0347   260.1600     8.2632    -0.0391
  815   16.280   3560.34     9.1081     0.0997    -0.1894     0.1628     9.0343     1.1167   260.4800     8.7738    -0.0386
  816   16.300   3561.37     9.1994     0.1340    -0.1909     0.1630     9.1163     1.4290   260.8000     8.8555    -0.0408
  817   16.320   3562.43     7.7733     0.1497    -0.1882     0.1632     7.6959     1.7762   261.1200     7.4348    -0.0469
  818   16.340   3563.49     6.2918     0.1450    -0.1910     0.1634     6.2113     2.1455   261.4400     5.9499    -0.0598
  819   16.360   3564.53     5.4180     0.1195    -0.1846     0.1636     5.3391     2.1220   261.7600     5.0773    -0.0693
  820   16.380   3565.51     4.9838     0.1074    -0.1718     0.1638     4.9094     2.0989   262.0800     4.6474    -0.0733
  821   16.400   3566.57     4.5885     0.1105    -0.1635     0.1640     4.5188     2.3347   262.4000     4.2564    -0.0775
  822   16.420   3567.59     4.7212     0.0993    -0.1492     0.1642     4.6568     2.2157   262.7200     4.3941    -0.0724
  823   16.440   3568.71     6.3773     0.0963    -0.1425     0.1644     6.3170     1.6947   263.0400     6.0539    -0.0513
  824   16.460   3569.75     8.6990     0.1048    -0.1379     0.1646     8.6449     1.2741   263.3600     8.3815    -0.0350
  825   16.480   3570.77     9.0446     0.1042    -0.1521     0.1648     8.9810     1.1431   263.6800     8.7174    -0.0363
  826   16.500   3571.79     8.0444     0.0909    -0.1552     0.1650     7.9798     1.0809   264.0000     7.7158    -0.0414
  827   16.520   3572.83     6.7216     0.1013    -0.1535     0.1652     6.6567     1.4216   264.3200     6.3924    -0.0501
  828   16.540   3573.91     6.0921     0.1223    -0.1452     0.1654     6.0297     1.9993   264.6400     5.7650    -0.0545
  829   16.560   3575.01     6.3016     0.1425    -0.1330     0.1656     6.2442     2.2832   264.9600     5.9793    -0.0505
  830   16.580   3576.09     6.1383     0.1352    -0.1204     0.1658     6.0860     2.1643   265.2800     5.8207    -0.0499
  831   16.600   3577.09     5.3818     0.1400    -0.1343     0.1660     5.3257     2.4467   265.6000     5.0601    -0.0592
  832   16.620   3578.09     4.6455     0.1378    -0.1300     0.1662     4.5896     2.8123   265.9200     4.3237    -0.0692
  833   16.640   3579.08     4.2976     0.1315    -0.1223     0.1664     4.2453     2.9194   266.2400     3.9791    -0.0731
  834   16.660   3580.11     4.0263     0.1277    -0.1089     0.1666     3.9780     3.0045   266.5600     3.7115    -0.0759
  835   16.680   3581.26     3.9074     0.1270    -0.0955     0.1668     3.8666     3.1839   266.8800     3.5997    -0.0733
  836   16.700   3582.30     3.8272     0.1349    -0.0982     0.1670     3.7865     3.5198   267.2000     3.5193    -0.0750
  837   16.720   3583.35     4.5667     0.1192    -0.0951     0.1672     4.5265     2.9085   267.5200     4.2590    -0.0620
  838   16.740   3589.82     5.4438     0.0924    -0.0794     0.1674     5.4075     1.8335   267.8400     5.1397    -0.0501
  839   16.760   3619.02     6.3872     0.0864    -0.0590     0.1676     6.3594     1.6427   268.1600     6.0913    -0.0404
  840   16.780   3648.22     7.3304     0.0841    -0.0507     0.1678     7.3113     1.3085   268.4800     7.0428    -0.0307
  841   16.800   3653.41     7.4954     0.0946    -0.0746     0.1680     7.4661     1.2465   268.8000     7.1973    -0.0331
  842   16.820   3654.47     6.7041     0.0979    -0.0815     0.1682     6.6714     1.3878   269.1200     6.4023    -0.0385
  843   16.840   3655.48     5.9057     0.0993    -0.0884     0.1684     5.8689     1.5891   269.4400     5.5994    -0.0458
  844   16.860   3656.47     5.2127     0.1000    -0.0849     0.1686     5.1767     1.8311   269.7600     4.9070    -0.0518
  845   16.880   3657.45     5.0416     0.0968    -0.0891     0.1688     5.0050     1.9000   270.0800     4.7349    -0.0540
  846   16.900   3658.56     5.1693     0.1001    -0.0743     0.1690     5.1346     1.9679   270.4000     4.8642    -0.0517
  847   16.920   3659.67     6.0199     0.0932    -0.0716     0.1692     5.9907     1.5938   270.7200     5.7200    -0.0417
  848   16.940   3660.67     6.6513     0.0906    -0.0734     0.1694     6.6202     1.4123   271.0400     6.3492    -0.0384
  849   16.960   3661.59     7.5325     0.0868    -0.0674     0.1696     7.5031     1.1767   271.3600     7.2317    -0.0332
  850   16.980   3662.65     8.3844     0.0854    -0.0640     0.1698     8.3580     1.0398   271.6800     8.0863    -0.0288
  851   17.000   3663.76     9.2382     0.0882    -0.0625     0.1700     9.2122     0.9792   272.0000     8.9402    -0.0260
  852   17.020   3664.90    10.2852     0.0939    -0.0770     0.1702    10.2547     0.9450   272.3200     9.9824    -0.0243
  853   17.040   3665.94    11.0769     0.0984    -0.0989     0.1704    11.0404     0.9053   272.6400    10.7677    -0.0239
  854   17.060   3667.00    10.7017     0.0979    -0.1169     0.1706    10.6540     0.8888   272.9600    10.3810    -0.0274
  855   17.080   3668.05     9.4763     0.0980    -0.1353     0.1708     9.4221     0.9857   273.2800     9.1488    -0.0328
  856   17.100   3669.08     8.0108     0.0970    -0.1387     0.1710     7.9517     1.1487   273.6000     7.6781    -0.0406
  857   17.120   3670.11     7.5666     0.0936    -0.1338     0.1712     7.5114     1.2229   273.9200     7.2374    -0.0418
  858   17.140   3671.12     7.5971     0.0936    -0.1433     0.1714     7.5383     1.2444   274.2400     7.2640    -0.0429
  859   17.160   3672.17     8.2039     0.0914    -0.1310     0.1716     8.1470     1.1624   274.5600     7.8724    -0.0390
  860   17.180   3673.30     9.1707     0.0792    -0.1414     0.1718     9.1124     0.9013   274.8800     8.8375    -0.0351
  861   17.200   3674.32     9.1852     0.0628    -0.1420     0.1720     9.1256     0.6813   275.2000     8.8504    -0.0355
  862   17.220   3675.39     8.3178     0.0613    -0.1423     0.1722     8.2584     0.7266   275.5200     7.9829    -0.0393
  863   17.240   3676.35     7.5274     0.0630    -0.1423     0.1724     7.4676     0.8316   275.8400     7.1917    -0.0438
  864   17.260   3677.37     6.7501     0.0695    -0.1448     0.1726     6.6897     1.0061   276.1600     6.4136    -0.0494
  865   17.280   3678.50     5.6293     0.0815    -0.1472     0.1728     5.5674     1.4281   276.4800     5.2909    -0.0606
  866   17.300   3679.41     4.7339     0.0765    -0.1425     0.1730     4.6732     1.5836   276.8000     4.3964    -0.0724
  867   17.320   3680.38     3.8249     0.0613    -0.1338     0.1732     3.7672     1.5857   277.1200     3.4901    -0.0894
  868   17.340   3681.40     2.9409     0.0509    -0.1175     0.1734     2.8889     1.7031   277.4400     2.6115    -0.1142
  869   17.360   3682.44     2.2503     0.0455    -0.0992     0.1736     2.2067     2.0008   277.7600     1.9290    -0.1443
  870   17.380   3683.51     1.7663     0.0470    -0.0857     0.1738     1.7273     2.5831   278.0800     1.4492    -0.1843
  871   17.400   3684.45     1.6551     0.0456    -0.0711     0.1740     1.6238     2.7850   278.4000     1.3454    -0.1848
  872   17.420   3685.45     1.7835     0.0369    -0.0636     0.1742     1.7558     2.1475   278.7200     1.4771    -0.1627
  873   17.440   3686.43     1.9274     0.0314    -0.0553     0.1744     1.9029     1.6801   279.0400     1.6238    -0.1435
  874   17.460   3687.45     2.1462     0.0363    -0.0462     0.1746     2.1251     1.7925   279.3600     1.8457    -0.1220
  875   17.480   3688.53     2.4312     0.0403    -0.0382     0.1748     2.4139     1.6759   279.6800     2.1342    -0.1012
  876   17.500   3689.53     2.6718     0.0400    -0.0315     0.1750     2.6579     1.5041   280.0000     2.3779    -0.0875
  877   17.520   3690.60     2.7728     0.0436    -0.0258     0.1752     2.7613     1.5775   280.3200     2.4810    -0.0817
  878   17.540   3691.64     2.6912     0.0338    -0.0181     0.1754     2.6826     1.2221   280.6400     2.4020    -0.0816
  879   17.560   3692.62     2.4286     0.0303    -0.0122     0.1756     2.4232     1.1823   280.9600     2.1422    -0.0881
  880   17.580   3693.60     2.0890     0.0390    -0.0056     0.1758     2.0855     1.7479   281.2800     1.8042    -0.1021
  881   17.600   3694.61     1.8840     0.0369     0.0042     0.1760     1.8840     1.9006   281.6000     1.6024    -0.1098
  882   17.620   3695.64     1.8082     0.0322     0.0203     0.1762     1.8143     1.7854   281.9200     1.5323    -0.1056
  883   17.640   3696.67     1.8376     0.0270     0.0279     0.1764     1.8496     1.4681   282.2400     1.5673    -0.0943
  884   17.660   3697.75     1.7204     0.0246     0.0379     0.1766     1.7342     1.3952   282.5600     1.4516    -0.0991
  885   17.680   3698.77     1.4887     0.0219     0.0471     0.1768     1.5067     1.4620   282.8800     1.2239    -0.1095
  886   17.700   3699.79     1.3687     0.0285     0.0665     0.1770     1.3941     2.0804   283.2000     1.1109    -0.1048
  887   17.720   3700.74     1.3451     0.0359     0.0792     0.1772     1.3763     2.6769   283.5200     1.0928    -0.0943
  888   17.740   3701.73     1.5578     0.0316     0.0988     0.1774     1.5959     2.2124   283.8400     1.3121    -0.0665
  889   17.760   3702.78     1.9082     0.0323     0.1098     0.1776     1.9530     1.7077   284.1600     1.6688    -0.0428
  890   17.780   3703.84     2.0413     0.0328     0.1016     0.1778     2.0850     1.6102   284.4800     1.8005    -0.0409
  891   17.800   3704.84     1.8964     0.0333     0.1127     0.1780     1.9421     1.7377   284.8000     1.6573    -0.0418
  892   17.820   3705.82     1.5984     0.0362     0.1149     0.1782     1.6454     2.2427   285.1200     1.3603    -0.0489
  893   17.840   3706.79     1.3832     0.0372     0.1459     0.1784     1.4408     2.6717   285.4400     1.1553    -0.0356
  894   17.860   3707.80     1.3491     0.0331     0.1673     0.1786     1.4164     2.4632   285.7600     1.1306    -0.0163
  895   17.880   3708.91     1.4308     0.0238     0.1825     0.1788     1.5057     1.7157   286.0800     1.2196    -0.0004
  896   17.900   3709.91     1.4362     0.0246     0.1956     0.1790     1.5162     1.7046   286.4000     1.2298     0.0093
  897   17.920   3710.91     1.4398     0.0323     0.2159     0.1792     1.5275     2.2598   286.7200     1.2408     0.0238
  898   17.940   3711.87     1.5449     0.0374     0.2333     0.1794     1.6406     2.5450   287.0400     1.3536     0.0358
  899   17.960   3712.90     1.8377     0.0436     0.2426     0.1796     1.9390     2.5023   287.3600     1.6517     0.0373
  900   17.980   3714.05     2.1226     0.0439     0.2378     0.1798     2.2234     2.1033   287.6800     1.9357     0.0312
  901   18.000   3715.03     2.1999     0.0421     0.2382     0.1800     2.2991     1.9269   288.0000     2.0111     0.0280
  902   18.020   3716.02     2.0563     0.0410     0.2419     0.1802     2.1566     1.9126   288.3200     1.8683     0.0314
  903   18.040   3716.99     1.9219     0.0349     0.2584     0.1804     2.0277     1.7762   288.6400     1.7391     0.0411
  904   18.060   3718.09     1.7011     0.0354     0.2726     0.1806     1.8128     1.9357   288.9600     1.5238     0.0559
  905   18.080   3719.09     1.5232     0.0389     0.2930     0.1808     1.6415     2.4152   289.2800     1.3522     0.0746
  906   18.100   3720.12     1.6143     0.0420     0.3315     0.1810     1.7474     2.6623   289.6000     1.4578     0.0931
  907   18.120   3721.10     2.1019     0.0353     0.3569     0.1812     2.2502     1.9106   289.9200     1.9602     0.0877
  908   18.140   3722.14     2.3680     0.0343     0.3098     0.1814     2.5076     1.4703   290.2400     2.2173     0.0680
  909   18.160   3723.16     2.1263     0.0344     0.3282     0.1816     2.2599     1.6063   290.5600     1.9693     0.0695
  910   18.180   3724.22     1.8240     0.0327     0.3419     0.1818     1.9664     1.7742   290.8800     1.6755     0.0941
  911   18.200   3725.20     1.6057     0.0355     0.3597     0.1820     1.7530     2.2112   291.2000     1.4618     0.1154
  912   18.220   3726.21     1.6341     0.0328     0.3780     0.1822     1.7917     2.0348   291.5200     1.5001     0.1286
  913   18.240   3727.30     1.5738     0.0294     0.3893     0.1824     1.7345     1.8477   291.8400     1.4427     0.1389
  914   18.260   3728.20     1.5029     0.0278     0.4094     0.1826     1.6717     1.8242   292.1600     1.3796     0.1590
  915   18.280   3729.25     1.4629     0.0275     0.4443     0.1828     1.6445     1.8682   292.4800     1.3520     0.1847
  916   18.300   3730.21     1.4063     0.0258     0.4661     0.1830     1.5987     1.7785   292.8000     1.3059     0.2107
  917   18.320   3731.31     1.3716     0.0241     0.5026     0.1832     1.5781     1.7383   293.1200     1.2850     0.2401
  918   18.340   3732.35     1.2693     0.0260     0.5215     0.1834     1.4844     2.0433   293.4400     1.1909     0.2762
  919   18.360   3733.28     1.2646     0.0310     0.5632     0.1836     1.4941     2.5245   293.7600     1.2003     0.3023
  920   18.380   3734.31     1.4703     0.0317     0.6016     0.1838     1.7189     2.3192   294.0800     1.4248     0.2867
  921   18.400   3735.33     1.8781     0.0339     0.5914     0.1840     2.1287     1.9671   294.4000     1.8343     0.2254
  922   18.420   3736.39     2.0487     0.0331     0.5628     0.1842     2.2918     1.6871   294.7200     1.9971     0.1979
  923   18.440   3737.41     1.9202     0.0338     0.5034     0.1844     2.1355     1.6494   295.0400     1.8405     0.1782
  924   18.460   3738.39     1.6777     0.0342     0.4951     0.1846     1.8882     1.9383   295.3600     1.5929     0.1988
  925   18.480   3739.46     1.5014     0.0355     0.5044     0.1848     1.7119     2.2870   295.6800     1.4162     0.2234
  926   18.500   3740.57     1.3668     0.0395     0.5405     0.1850     1.5859     2.8657   296.0000     1.2899     0.2611
  927   18.520   3741.53     1.4457     0.0375     0.5839     0.1852     1.6883     2.7581   296.3200     1.3920     0.2820
  928   18.540   3742.56     1.6237     0.0346     0.5813     0.1854     1.8709     2.1547   296.6400     1.5743     0.2560
  929   18.560   3743.55     1.6369     0.0279     0.5374     0.1856     1.8675     1.7186   296.9600     1.5705     0.2313
  930   18.580   3744.62     1.5329     0.0230     0.5557     0.1858     1.7620     1.4468   297.2800     1.4647     0.2456
  931   18.600   3745.66     1.3848     0.0236     0.5621     0.1860     1.6203     1.6312   297.6000     1.3227     0.2835
  932   18.620   3746.70     1.2531     0.0291     0.5924     0.1862     1.4978     2.2651   297.9200     1.1999     0.3307
  933   18.640   3747.71     1.1621     0.0388     0.6323     0.1864     1.4206     3.2485   298.2400     1.1224     0.3823
  934   18.660   3748.73     1.1903     0.0465     0.6917     0.1866     1.4728     4.0170   298.5600     1.1742     0.4139
  935   18.680   3749.77     1.3612     0.0442     0.6855     0.1868     1.6529     3.4864   298.8800     1.3540     0.3754
  936   18.700   3750.82     1.4851     0.0401     0.5975     0.1870     1.7466     2.7144   299.2000     1.4474     0.3009
  937   18.720   3765.82     1.4266     0.0374     0.5267     0.1872     1.6630     2.6132   299.5200     1.3634     0.2737
  938   18.740   3830.27     1.3990     0.0358     0.4221     0.1874     1.5914     2.4976   299.8400     1.2916     0.2039
  939   18.760   3894.72     1.3714     0.0333     0.3369     0.1876     1.5199     2.3420   300.1600     1.2198     0.1341
  940   18.780   3909.90     1.2323     0.0305     0.3930     0.1878     1.3893     2.4233   300.4800     1.0889     0.1713
  941   18.800   3910.86     1.1546     0.0276     0.4332     0.1880     1.3321     2.3829   300.8000     1.0313     0.2274
  942   18.820   3911.77     1.1406     0.0277     0.4654     0.1882     1.3301     2.4278   301.1200     1.0290     0.2554
  943   18.840   3912.76     1.1938     0.0284     0.5029     0.1884     1.4009     2.4105   301.4400     1.0995     0.2771
  944   18.860   3913.78     1.2854     0.0278     0.5112     0.1886     1.4999     2.2459   301.7600     1.1981     0.2687
  945   18.880   3914.82     1.2738     0.0282     0.5195     0.1888     1.4900     2.2029   302.0800     1.1879     0.2745
  946   18.900   3915.84     1.2540     0.0285     0.5394     0.1890     1.4776     2.2723   302.4000     1.1752     0.2922
  947   18.920   3916.85     1.2485     0.0273     0.5619     0.1892     1.4811     2.1809   302.7200     1.1783     0.3093
  948   18.940   3917.88     1.2267     0.0263     0.5831     0.1894     1.4685     2.1363   303.0400     1.1654     0.3314
  949   18.960   3918.87     1.2178     0.0274     0.5999     0.1896     1.4673     2.2490   303.3600     1.1639     0.3476
  950   18.980   3919.95     1.1827     0.0275     0.6240     0.1898     1.4412     2.2809   303.6800     1.1375     0.3744
  951   19.000   3920.90     1.1828     0.0266     0.6467     0.1900     1.4519     2.2636   304.0000     1.1479     0.3925
  952   19.020   3921.95     1.2043     0.0267     0.6479     0.1902     1.4765     2.2317   304.3200     1.1722     0.3906
  953   19.040   3922.92     1.1702     0.0273     0.6541     0.1904     1.4432     2.2923   304.6400     1.1385     0.4037
  954   19.060   3924.01     1.1135     0.0269     0.6816     0.1906     1.3946     2.3503   304.9600     1.0897     0.4395
  955   19.080   3925.06     1.0232     0.0268     0.7189     0.1908     1.3206     2.6087   305.2800     1.0153     0.5095
  956   19.100   3926.09     0.9870     0.0261     0.7392     0.1910     1.2955     2.6363   305.6000     0.9899     0.5491
  957   19.120   3927.07     1.0174     0.0271     0.7523     0.1912     1.3315     2.7352   305.9200     1.0256     0.5427
  958   19.140   3928.04     1.0427     0.0291     0.7687     0.1914     1.3646     2.8110   306.2400     1.0583     0.5432
  959   19.160   3929.07     1.1679     0.0281     0.7698     0.1916     1.4923     2.4347   306.5600     1.1858     0.4898
  960   19.180   3930.08     1.2691     0.0266     0.7297     0.1918     1.5867     2.1057   306.8800     1.2798     0.4410
  961   19.200   3931.10     1.2899     0.0257     0.6896     0.1920     1.5800     1.9728   307.2000     1.2728     0.3918
  962   19.220   3932.16     1.1645     0.0257     0.6930     0.1922     1.4545     2.1798   307.5200     1.1470     0.4349
  963   19.240   3933.18     1.0196     0.0277     0.7121     0.1924     1.3140     2.5859   307.8400     1.0062     0.5057
  964   19.260   3934.14     0.9421     0.0291     0.7516     0.1926     1.2518     3.0860   308.1600     0.9437     0.5774
  965   19.280   3935.09     0.9853     0.0279     0.7724     0.1928     1.3085     2.9379   308.4800     1.0000     0.5767
  966   19.300   3936.10     1.0913     0.0281     0.7586     0.1930     1.4139     2.6546   308.8000     1.1051     0.5204
  967   19.320   3937.21     1.1484     0.0260     0.7459     0.1932     1.4631     2.2600   309.1200     1.1540     0.4819
  968   19.340   3938.25     1.0983     0.0245     0.7551     0.1934     1.4122     2.2180   309.4400     1.1028     0.5025
  969   19.360   3939.22     1.0509     0.0281     0.7820     0.1936     1.3747     2.6647   309.7600     1.0650     0.5423
  970   19.380   3940.17     1.0729     0.0321     0.8088     0.1938     1.4088     3.0782   310.0800     1.0987     0.5519
  971   19.400   3941.27     1.2923     0.0303     0.8212     0.1940     1.6377     2.5034   310.4000     1.3273     0.4745
  972   19.420   3942.23     1.5580     0.0279     0.7489     0.1942     1.8860     1.9043   310.7200     1.5753     0.3731
  973   19.440   3943.26     1.7048     0.0286     0.6447     0.1944     1.9864     1.7113   311.0400     1.6753     0.2840
  974   19.460   3944.27     1.5811     0.0281     0.6495     0.1946     1.8523     1.6957   311.3600     1.5410     0.2932
  975   19.480   3945.31     1.3203     0.0287     0.6820     0.1948     1.6010     2.0134   311.6800     1.2894     0.3680
  976   19.500   3946.36     1.1788     0.0286     0.7019     0.1950     1.4697     2.3905   312.0000     1.1577     0.4299
  977   19.520   3947.43     1.1551     0.0288     0.7349     0.1952     1.4601     2.5065   312.3200     1.1477     0.4625
  978   19.540   3948.49     1.1789     0.0267     0.7464     0.1954     1.4916     2.3047   312.6400     1.1789     0.4657
  979   19.560   3949.41     1.1983     0.0257     0.7498     0.1956     1.5128     2.1421   312.9600     1.1998     0.4609
  980   19.580   3950.47     1.1787     0.0259     0.7474     0.1958     1.4934     2.1794   313.2800     1.1801     0.4690
  981   19.600   3951.46     1.1279     0.0250     0.7576     0.1960     1.4434     2.1676   313.6000     1.1298     0.4915
  982   19.620   3952.45     1.0491     0.0256     0.7802     0.1962     1.3728     2.3756   313.9200     1.0589     0.5429
  983   19.640   3953.55     0.9995     0.0279     0.7831     0.1964     1.3313     2.7575   314.2400     1.0170     0.5835
  984   19.660   3954.60     1.0022     0.0281     0.7672     0.1966     1.3286     2.8011   314.5600     1.0141     0.5725
  985   19.680   3955.61     0.9742     0.0266     0.7527     0.1968     1.2868     2.7244   314.8800     0.9720     0.5635
  986   19.700   3956.62     0.9876     0.0274     0.7330     0.1970     1.3000     2.7718   315.2000     0.9848     0.5552
  987   19.720   3957.61     0.9941     0.0291     0.7334     0.1972     1.2990     2.9381   315.5200     0.9834     0.5377
  988   19.740   3958.58     1.0698     0.0284     0.7574     0.1974     1.3842     2.7627   315.8400     1.0683     0.5161
  989   19.760   3959.66     1.4085     0.0326     0.7443     0.1976     1.7300     2.4161   316.1600     1.4138     0.4033
  990   19.780   3960.65     1.9004     0.0343     0.5905     0.1978     2.1716     1.8483   316.4800     1.8552     0.2422
  991   19.800   3961.72     2.2000     0.0394     0.5164     0.1980     2.4229     1.8070   316.8000     2.1061     0.1580
  992   19.820   3962.73     2.3487     0.0391     0.4193     0.1982     2.5428     1.6708   317.1200     2.2257     0.1187
  993   19.840   3963.69     2.3177     0.0399     0.4029     0.1984     2.4870     1.6771   317.4400     2.1696     0.0945
  994   19.860   3964.67     1.9691     0.0377     0.4078     0.1986     2.1388     1.7573   317.7600     1.8211     0.1132
  995   19.880   3965.66     1.5178     0.0345     0.4249     0.1988     1.6925     2.0542   318.0800     1.3744     0.1585
  996   19.900   3966.66     1.2213     0.0319     0.4709     0.1990     1.4107     2.4174   318.4000     1.0923     0.2311
  997   19.920   3967.71     1.1441     0.0309     0.5154     0.1992     1.3535     2.6746   318.7200     1.0348     0.2892
  998   19.940   3968.79     1.1946     0.0311     0.5589     0.1994     1.4222     2.6581   319.0400     1.1032     0.3104
  999   19.960   3969.83     1.3434     0.0293     0.5871     0.1996     1.5876     2.2894   319.3600     1.2683     0.3014
 1000   19.980   3970.90     1.5245     0.0299     0.5549     0.1998     1.7642     1.9999   319.6800     1.4445     0.2568
 1001   20.000   3971.84     1.4818     0.0295     0.5338     0.2000     1.7061     1.9395   320.0000     1.3861     0.2410
 1002   20.020   3972.83     1.3302     0.0298     0.5631     0.2002     1.5619     2.1338   320.3200     1.2416     0.2836
 1003   20.040   3973.87     1.1346     0.0313     0.6229     0.2004     1.3858     2.6593   320.6400     1.0651     0.3741
 1004   20.060   3975.11     1.0126     0.0299     0.6702     0.2006     1.2895     2.8997   320.9600     0.9685     0.4737
 1005   20.080   3976.16     0.9745     0.0284     0.7070     0.2008     1.2665     2.8864   321.2800     0.9452     0.5231
 1006   20.100   3977.07     0.9801     0.0278     0.7275     0.2010     1.2824     2.8491   321.6000     0.9608     0.5399
 1007   20.120   3978.04     0.9872     0.0291     0.7459     0.2012     1.2975     2.9642   321.9200     0.9755     0.5509
 1008   20.140   3979.10     0.9704     0.0266     0.7719     0.2014     1.2897     2.7315   322.2400     0.9675     0.5777
 1009   20.160   3980.31     0.9377     0.0283     0.8008     0.2016     1.2702     3.0224   322.5600     0.9477     0.6228
 1010   20.180   3981.31     0.9345     0.0272     0.8247     0.2018     1.2772     2.9177   322.8800     0.9543     0.6434
 1011   20.200   3982.23     0.9658     0.0213     0.8410     0.2020     1.3175     2.2557   323.2000     0.9943     0.6391
 1012   20.220   3983.18     1.0331     0.0175     0.8690     0.2022     1.3953     1.7462   323.5200     1.0718     0.6162
 1013   20.240   3984.18     1.1821     0.0251     0.7724     0.2024     1.5276     2.2326   323.8400     1.2038     0.5154
 1014   20.260   3985.23     1.2687     0.0441     0.8042     0.2026     1.5916     3.6663   324.1600     1.2674     0.4488
 1015   20.280   3986.32     2.2443     0.0638     0.8597     0.2028     2.6045     2.9729   324.4800     2.2800     0.2919
 1016   20.300   3987.41     3.3507     0.0667     0.5212     0.2030     3.6234     2.0040   324.8000     3.2986     0.1356
 1017   20.320   3988.36     3.1384     0.0675     0.3442     0.2032     3.2959     2.0297   325.1200     2.9708     0.0575
 1018   20.340   3989.36     2.6868     0.0671     0.3323     0.2034     2.8258     2.3139   325.4400     2.5004     0.0511
 1019   20.360   3990.38     2.1347     0.0672     0.3640     0.2036     2.2819     2.9161   325.7600     1.9561     0.0759
 1020   20.380   3991.37     1.5813     0.0601     0.4367     0.2038     1.7500     3.3091   326.0800     1.4239     0.1410
 1021   20.400   3992.40     1.2700     0.0474     0.5377     0.2040     1.4834     3.4805   326.4000     1.1570     0.2639
 1022   20.420   3993.47     1.1280     0.0404     0.5984     0.2042     1.3717     3.2038   326.7200     1.0450     0.3601
 1023   20.440   3994.51     1.1111     0.0341     0.6385     0.2044     1.3737     2.9210   327.0400     1.0466     0.4019
 1024   20.460   3995.48     1.0971     0.0307     0.6735     0.2046     1.3748     2.7920   327.3600     1.0474     0.4360
 1025   20.480   3996.49     1.0959     0.0326     0.7051     0.2048     1.3886     2.9846   327.6800     1.0609     0.4638
 1026   20.500   3997.57     1.0902     0.0328     0.7328     0.2050     1.3946     3.0019   328.0000     1.0666     0.4874
 1027   20.520   4006.61     1.0972     0.0322     0.7526     0.2052     1.4105     2.9528   328.3200     1.0821     0.4995
 1028   20.540   4022.59     1.1073     0.0321     0.7720     0.2054     1.4288     2.9444   328.6400     1.1001     0.5087
 1029   20.560   4037.18     1.1093     0.0319     0.8033     0.2056     1.4399     2.9069   328.9600     1.1110     0.5237
 1030   20.580   4038.22     1.0501     0.0324     0.8405     0.2058     1.3988     3.0215   329.2800     1.0695     0.5839
 1031   20.600   4039.21     1.0254     0.0312     0.8640     0.2060     1.3839     3.0234   329.6000     1.0543     0.6143
 1032   20.620   4040.25     1.0139     0.0299     0.8746     0.2062     1.3809     2.9426   329.9200     1.0510     0.6353
 1033   20.640   4041.28     1.0039     0.0292     0.8878     0.2064     1.3739     2.8959   330.2400     1.0437     0.6465
 1034   20.660   4042.31     0.9776     0.0290     0.8974     0.2066     1.3533     2.9580   330.5600     1.0228     0.6727
 1035   20.680   4043.32     0.9550     0.0295     0.9152     0.2068     1.3367     3.0836   330.8800     1.0058     0.6979
 1036   20.700   4044.37     0.9428     0.0290     0.9337     0.2070     1.3326     3.0755   331.2000     1.0014     0.7201
 1037   20.720   4045.40     0.9305     0.0285     0.9343     0.2072     1.3236     3.0597   331.5200     0.9921     0.7347
 1038   20.740   4046.36     0.9189     0.0286     0.9334     0.2074     1.3106     3.1087   331.8400     0.9788     0.7410
 1039   20.760   4047.34     0.9211     0.0285     0.9330     0.2076     1.3131     3.0988   332.1600     0.9809     0.7397
 1040   20.780   4048.31     0.9375     0.0285     0.9291     0.2078     1.3289     3.0407   332.4800     0.9964     0.7267
 1041   20.800   4049.32     0.9653     0.0286     0.9223     0.2080     1.3558     2.9746   332.8000     1.0230     0.7056
 1042   20.820   4050.40     1.0005     0.0275     0.9188     0.2082     1.3840     2.7504   333.1200     1.0509     0.6708
 1043   20.840   4051.41     1.0108     0.0280     0.9124     0.2084     1.3954     2.7768   333.4400     1.0619     0.6660
 1044   20.860   4052.42     1.0541     0.0283     0.9046     0.2086     1.4355     2.7195   333.7600     1.1017     0.6349
 1045   20.880   4053.39     1.0693     0.0275     0.8927     0.2088     1.4445     2.5377   334.0800     1.1104     0.6164
 1046   20.900   4054.38     1.0131     0.0280     0.9171     0.2090     1.3948     2.7127   334.4000     1.0604     0.6599
 1047   20.920   4055.36     0.9978     0.0287     0.9253     0.2092     1.3859     2.8861   334.7200     1.0512     0.6802
 1048   20.940   4056.45     0.9835     0.0297     0.9386     0.2094     1.3748     3.0169   335.0400     1.0398     0.6948
 1049   20.960   4057.47     0.9749     0.0311     0.9584     0.2096     1.3748     3.1933   335.3600     1.0394     0.7142
 1050   20.980   4058.50     0.9944     0.0320     0.9671     0.2098     1.3998     3.2582   335.6800     1.0641     0.7099
 1051   21.000   4059.55     1.0138     0.0324     0.9673     0.2100     1.4205     3.2447   336.0000     1.0845     0.6992
 1052   21.020   4060.49     1.0215     0.0327     0.9712     0.2102     1.4279     3.2312   336.3200     1.0916     0.6939
 1053   21.040   4061.53     1.0127     0.0336     0.9837     0.2104     1.4242     3.3168   336.6400     1.0876     0.7075
 1054   21.060   4062.58     1.0181     0.0349     0.9966     0.2106     1.4361     3.4335   336.9600     1.0992     0.7140
 1055   21.080   4063.97     1.0222     0.0349     0.9857     0.2108     1.4381     3.4142   337.2800     1.1008     0.7080
 1056   21.100   4081.14     1.0339     0.0346     0.9727     0.2110     1.4444     3.3852   337.6000     1.1068     0.6924
 1057   21.120   4098.30     1.0456     0.0354     0.9598     0.2112     1.4506     3.4636   337.9200     1.1127     0.6769
 1058   21.140   4114.14     1.0578     0.0358     0.9736     0.2114     1.4594     3.3880   338.2400     1.1212     0.6644
 1059   21.160   4115.15     1.0618     0.0364     0.9916     0.2116     1.4771     3.4185   338.5600     1.1385     0.6825
 1060   21.180   4116.19     1.0528     0.0363     0.9925     0.2118     1.4700     3.4441   338.8800     1.1311     0.6909
 1061   21.200   4117.15     1.0569     0.0358     0.9959     0.2120     1.4746     3.3956   339.2000     1.1354     0.6892
 1062   21.220   4118.14     1.0591     0.0359     1.0044     0.2122     1.4796     3.3694   339.5200     1.1401     0.6920
 1063   21.240   4119.12     1.0545     0.0354     1.0150     0.2124     1.4788     3.3373   339.8400     1.1389     0.7004
 1064   21.260   4120.16     1.0535     0.0343     1.0185     0.2126     1.4803     3.2587   340.1600     1.1401     0.7048
 1065   21.280   4121.26     1.0518     0.0337     1.0286     0.2128     1.4820     3.2047   340.4800     1.1416     0.7109
 1066   21.300   4122.26     1.0608     0.0337     1.0320     0.2130     1.4947     3.1812   340.8000     1.1539     0.7108
 1067   21.320   4123.23     1.0580     0.0337     1.0402     0.2132     1.4947     3.1818   341.1200     1.1536     0.7166
 1068   21.340   4124.27     1.0624     0.0333     1.0355     0.2134     1.4977     3.1324   341.4400     1.1563     0.7119
 1069   21.360   4125.27     1.0677     0.0351     1.0319     0.2136     1.5012     3.2997   341.7600     1.1595     0.7061
 1070   21.380   4126.27     1.1986     0.0356     1.0243     0.2138     1.6304     2.9421   342.0800     1.2883     0.6328
 1071   21.400   4127.22     1.1185     0.0353     1.0142     0.2140     1.5451     3.1068   342.4000     1.2027     0.6666
 1072   21.420   4128.26     1.1309     0.0354     0.9988     0.2142     1.5545     3.1488   342.7200     1.2118     0.6555
 1073   21.440   4129.28     1.1510     0.0358     0.9815     0.2144     1.5603     3.0783   343.0400     1.2172     0.6253
 1074   21.460   4130.36     1.0777     0.0357     1.0195     0.2146     1.5038     3.2977   343.3600     1.1604     0.6894
 1075   21.480   4131.34     1.0793     0.0355     1.0328     0.2148     1.5117     3.2973   343.6800     1.1680     0.6975
 1076   21.500   4132.32     1.0816     0.0340     1.0293     0.2150     1.5148     3.1457   344.0000     1.1708     0.6974
 1077   21.520   4133.37     1.0729     0.0337     1.0244     0.2152     1.5041     3.1342   344.3200     1.1598     0.6995
 1078   21.540   4134.41     1.0834     0.0336     1.0252     0.2154     1.5130     3.1182   344.6400     1.1684     0.6911
 1079   21.560   4135.59     1.0872     0.0339     1.0323     0.2156     1.5211     3.1168   344.9600     1.1761     0.6950
 1080   21.580   4136.56     1.0764     0.0337     1.0318     0.2158     1.5095     3.1125   345.2800     1.1642     0.7004
 1081   21.600   4137.48     1.0714     0.0340     1.0265     0.2160     1.5031     3.1820   345.6000     1.1575     0.7014
 1082   21.620   4138.57     1.0679     0.0350     1.0253     0.2162     1.4991     3.2781   345.9200     1.1532     0.7027
 1083   21.640   4139.55     1.0712     0.0349     1.0220     0.2164     1.5010     3.2739   346.2400     1.1547     0.6988
 1084   21.660   4140.67     1.0667     0.0348     1.0184     0.2166     1.4957     3.2661   346.5600     1.1491     0.7004
 1085   21.680   4141.74     1.0627     0.0347     1.0168     0.2168     1.4901     3.2677   346.8800     1.1432     0.7004
 1086   21.700   4142.71     1.0731     0.0349     1.0222     0.2170     1.5016     3.2545   347.2000     1.1544     0.6959
 1087   21.720   4143.62     1.0764     0.0354     1.0287     0.2172     1.5068     3.2826   347.5200     1.1593     0.6965
 1088   21.740   4144.65     1.0857     0.0357     1.0333     0.2174     1.5207     3.2930   347.8400     1.1728     0.6977
 1089   21.760   4145.68     1.0718     0.0352     1.0415     0.2176     1.5085     3.2305   348.1600     1.1603     0.7086
 1090   21.780   4146.74     1.0787     0.0350     1.0383     0.2178     1.5161     3.2447   348.4800     1.1676     0.7053
 1091   21.800   4147.75     1.0720     0.0348     1.0457     0.2180     1.5095     3.2348   348.8000     1.1607     0.7096
 1092   21.820   4148.77     1.0568     0.0346     1.0452     0.2182     1.4973     3.2923   349.1200     1.1482     0.7234
 1093   21.840   4149.78     1.0646     0.0348     1.0416     0.2184     1.5034     3.2648   349.4400     1.1539     0.7159
 1094   21.860   4150.84     1.0800     0.0345     1.0347     0.2186     1.5150     3.2149   349.7600     1.1652     0.7012
 1095   21.880   4151.78     1.0964     0.0345     1.0415     0.2188     1.5331     3.1611   350.0800     1.1831     0.6940
 1096   21.900   4152.79     1.0919     0.0346     1.0456     0.2190     1.5305     3.1625   350.4000     1.1801     0.6992
 1097   21.920   4153.82     1.1026     0.0345     1.0430     0.2192     1.5411     3.1346   350.7200     1.1903     0.6929
 1098   21.940   4154.89     1.0846     0.0352     1.0428     0.2194     1.5225     3.2241   351.0400     1.1714     0.7027
 1099   21.960   4155.96     1.0861     0.0353     1.0434     0.2196     1.5244     3.2558   351.3600     1.1730     0.7023
 1100   21.980   4156.93     1.0735     0.0344     1.0451     0.2198     1.5118     3.1779   351.6800     1.1601     0.7100
 1101   22.000   4157.94     1.0621                1.0455     0.2200     1.5023              352.0000     1.1503     0.7200
 1102   22.020   4159.02     1.0586                1.0444     0.2202     1.4966              352.3200     1.1443     0.7190
 1103   22.040   4160.07     1.0697                1.0489     0.2204     1.5096              352.6400     1.1570     0.7149
 1104   22.060   4161.21     1.0646                1.0507     0.2206     1.5056              352.9600     1.1526     0.7195
 1105   22.080   4162.15     1.0902                1.0438     0.2208     1.5293              353.2800     1.1760     0.7012
 1106   22.097   4163.09     1.0989                           0.2210     1.5380              353.5568     1.1844     0.6960
 
 
