

 Program UNIPLOT                         version 05.36.02
 _______________
 (c) Fugro Netherlands Marine, Nootdorp, The Netherlands


 ASCII representation of data plotted on a graph.

 This ASCII file presents data interpolated to values per fixed depth interval.
 The data are corrected for the depth-offset differences between the various 
 transducers in the penetrometer.

 The records at the start of penetration may include no values or anomalous
 values where a depth offset implies incomplete penetration of a particular
 sensor into the ground.

 The records at the end of penetration may include no values for data channels
 where the transducer did not reach this depth.

 The reference level for test values is (1) the ground surface for onshore tests and (2) the seafloor for nearshore and offshore tests.

 UNICAS data file          : CPT-1014.000                            
 Output using command file : PlotASCII.cmd

 ASCII file created at : date          :21-May-2022
                         time          :11:56:42
 Project number                        :20024805                                                                                            
 Date of testing                       :20-May-2022                                                                                         
 Location                              :Hong Kong Offshore Wind Farm Project                                                                
 Test name                             :CPT-1014
 Penetrometer                          :F7.5CKE2HAW2/B/3285
 Serial no                             :1701-3285

 Table description:
 Column ID                             :Parameter name
 ___________________________________________________________________________________
 Rec                                   :Record ID, Record ID [-]
 Depth                                 :Depth, Depth [m]
 Time                                  :Time, Time [s]
 Cone                                  :Cone Resistance, Cone Resistance [MPa]
 Friction                              :Sleeve Friction, Sleeve Friction [MPa]
 Pore 2                                :Porewater Pressure, Porewater Pressure at Shoulder [MPa]
 HydroPress                            :Hydrostatic Pressure, Hydrostatic Pressure [MPa]
 qt                                    :Total Cone Resistance, Total Cone Resistance [MPa]
 Fric_ratio                            :Friction Ratio, Friction Ratio [%]
 SigmaVert                             :Vertical stress, Vertical stress [kPa] as specified in ground model
 Qnet                                  :Net Cone Resistance, Net Cone Resistance [MPa], unit weight as specified in ground model
 Bq                                    :Porewater Pressure Ratio, Porewater Pressure Ratio [-], unit weight as specified in ground model


 Data table:
  Rec    Depth      Time       Cone   Friction     Pore 2 HydroPress         qt Fric_ratio  SigmaVert       Qnet         Bq
   No        m         s        MPa        MPa        MPa        MPa        MPa          %        kPa        MPa          -
    1    0.000   1782.56     0.0000                           0.0000     0.0000                0.0000     0.0000           
    2    0.020   1783.55     0.0018                0.0001     0.0002     0.0018                0.3200     0.0015    -0.1013
    3    0.040   1784.52     0.0026                0.0006     0.0004     0.0028                0.6400     0.0021     0.0280
    4    0.060   1785.55     0.0019     0.0003     0.0013     0.0006     0.0024    14.6253     0.9600     0.0014     0.3284
    5    0.080   1786.54     0.0026     0.0002     0.0018     0.0008     0.0032     8.9633     1.2800     0.0019     0.3472
    6    0.100   1787.57     0.0011     0.0002     0.0021     0.0010     0.0019    14.3518     1.6000     0.0003     3.3794
    7    0.120   1788.55     0.0077     0.0003     0.0019     0.0012     0.0085     5.1785     1.9200     0.0066     0.1250
    8    0.140   1789.58     0.0080     0.0007     0.0013     0.0014     0.0086     9.0784     2.2400     0.0063    -0.0020
    9    0.160   1790.55     0.0079     0.0008     0.0007     0.0016     0.0083    10.1193     2.5600     0.0057    -0.1277
   10    0.180   1791.56     0.0083     0.0009     0.0002     0.0018     0.0084    10.6387     2.8800     0.0056    -0.2554
   11    0.200   1792.57     0.0094     0.0010    -0.0005     0.0020     0.0092    10.0954     3.2000     0.0060    -0.4083
   12    0.220   1793.57     0.0088     0.0011    -0.0003     0.0022     0.0086    11.7098     3.5200     0.0050    -0.5385
   13    0.240   1794.61     0.0120     0.0011     0.0011     0.0024     0.0123     9.0213     3.8400     0.0085    -0.2128
   14    0.260   1795.58     0.0134     0.0011     0.0022     0.0026     0.0144     9.1852     4.1600     0.0102    -0.0308
   15    0.280   1796.58     0.0103     0.0011     0.0015     0.0028     0.0109     8.4531     4.4800     0.0064    -0.2125
   16    0.300   1797.56     0.0100     0.0011     0.0011     0.0030     0.0107     8.4014     4.8000     0.0059    -0.2299
   17    0.320   1798.61     0.0136     0.0011     0.0016     0.0032     0.0142     8.3496     5.1200     0.0091    -0.1770
   18    0.340   1799.58     0.0165     0.0013     0.0015     0.0034     0.0171     7.8309     5.4400     0.0116    -0.1751
   19    0.360   1800.56     0.0153     0.0015     0.0007     0.0036     0.0158    11.4942     5.7600     0.0101    -0.2298
   20    0.380   1814.00     0.0160     0.0013     0.0009     0.0038     0.0163     7.6410     6.0800     0.0102    -0.4154
   21    0.400   1838.88     0.0128     0.0019     0.0014     0.0040     0.0133    10.5433     6.4000     0.0069    -0.7034
   22    0.420   1863.76     0.0097     0.0016     0.0018     0.0042     0.0104     8.8287     6.7200     0.0037    -0.9915
   23    0.440   1876.15     0.0082     0.0016     0.0023     0.0044     0.0089    18.7134     7.0400     0.0019    -1.5027
   24    0.460   1877.17     0.0089     0.0015     0.0043     0.0046     0.0105    17.0946     7.3600     0.0032    -0.2118
   25    0.480   1878.17     0.0127     0.0014     0.0047     0.0048     0.0146    11.3780     7.6800     0.0069    -0.0601
   26    0.500   1879.17     0.0096     0.0017     0.0046     0.0050     0.0114    17.1053     8.0000     0.0034    -0.2430
   27    0.520   1880.18     0.0107     0.0014     0.0042     0.0052     0.0124    13.4262     8.3200     0.0041    -0.2982
   28    0.540   1881.20     0.0138     0.0015     0.0050     0.0054     0.0158    10.7802     8.6400     0.0071    -0.0854
   29    0.560   1882.19     0.0176     0.0015     0.0049     0.0056     0.0196     8.5957     8.9600     0.0106    -0.0938
   30    0.580   1883.18     0.0178     0.0016     0.0040     0.0058     0.0200     8.9668     9.2800     0.0107    -0.0691
   31    0.600   1884.18     0.0151     0.0018     0.0044     0.0060     0.0171    11.6535     9.6000     0.0075    -0.1786
   32    0.620   1885.18     0.0184     0.0022     0.0043     0.0062     0.0204    11.8272     9.9200     0.0105    -0.1293
   33    0.640   1886.23     0.0158     0.0018     0.0060     0.0064     0.0184    11.6834    10.2400     0.0081    -0.0400
   34    0.660   1887.20     0.0153     0.0020     0.0064     0.0066     0.0180    13.3858    10.5600     0.0074    -0.0305
   35    0.680   1888.18     0.0158     0.0018     0.0076     0.0068     0.0189    11.1922    10.8800     0.0080     0.0834
   36    0.700   1889.19     0.0135     0.0020     0.0069     0.0070     0.0166    14.3798    11.2000     0.0054     0.0507
   37    0.720   1890.20     0.0135     0.0019     0.0082     0.0072     0.0165    12.6444    11.5200     0.0050     0.1507
   38    0.740   1891.20     0.0137     0.0020     0.0097     0.0074     0.0173    14.7420    11.8400     0.0055     0.2100
   39    0.760   1892.23     0.0157     0.0016     0.0107     0.0076     0.0198     9.8033    12.1600     0.0076     0.3212
   40    0.780   1893.19     0.0145     0.0016     0.0120     0.0078     0.0194    11.4024    12.4800     0.0069     0.5499
   41    0.800   1894.20     0.0146     0.0018     0.0133     0.0080     0.0201    13.2559    12.8000     0.0073     0.7155
   42    0.820   1895.19     0.0162     0.0018     0.0138     0.0082     0.0220    11.2494    13.1200     0.0089     0.6196
   43    0.840   1896.21     0.0190     0.0019     0.0141     0.0084     0.0249     9.6836    13.4400     0.0114     0.5238
   44    0.860   1897.22     0.0174     0.0020     0.0134     0.0086     0.0231    11.4482    13.7600     0.0093     0.5360
   45    0.880   1898.15     0.0174     0.0019     0.0125     0.0088     0.0230    10.9131    14.0800     0.0089     0.5000
   46    0.900   1899.19     0.0157     0.0021     0.0124     0.0090     0.0209    13.7378    14.4000     0.0065     0.5164
   47    0.920   1900.15     0.0158     0.0019     0.0136     0.0092     0.0213    11.3128    14.7200     0.0066     0.5849
   48    0.940   1901.18     0.0166     0.0020     0.0158     0.0094     0.0230    11.9702    15.0400     0.0080     0.7360
   49    0.960   1902.20     0.0175     0.0020     0.0170     0.0096     0.0246    12.1345    15.3600     0.0092     0.7998
   50    0.980   1903.17     0.0263     0.0018     0.0173     0.0098     0.0335     6.9536    15.6800     0.0178     0.4117
   51    1.000   1904.18     0.0309     0.0022     0.0163     0.0100     0.0382     7.4066    16.0000     0.0222     0.3360
   52    1.020   1905.18     0.0377     0.0024     0.0101     0.0102     0.0432     6.6678    16.3200     0.0269     0.1116
   53    1.040   1906.18     0.0425     0.0021     0.0093     0.0104     0.0462     4.9363    16.6400     0.0296    -0.0490
   54    1.060   1907.21     0.0410     0.0027     0.0106     0.0106     0.0453     6.5566    16.9600     0.0284    -0.0076
   55    1.080   1908.20     0.0394     0.0027     0.0076     0.0108     0.0431     6.9733    17.2800     0.0258    -0.0751
   56    1.100   1909.18     0.0363     0.0027     0.0101     0.0110     0.0401     7.3329    17.6000     0.0225    -0.0902
   57    1.120   1910.20     0.0299     0.0029     0.0119     0.0112     0.0348     8.5539    17.9200     0.0169     0.0193
   58    1.140   1911.21     0.0268     0.0028     0.0133     0.0114     0.0322    10.6917    18.2400     0.0139     0.0913
   59    1.160   1912.25     0.0233     0.0026     0.0144     0.0116     0.0289    10.7649    18.5600     0.0104     0.1826
   60    1.180   1913.21     0.0232     0.0024     0.0161     0.0118     0.0298    10.6537    18.8800     0.0110     0.3661
   61    1.200   1914.23     0.0295     0.0025     0.0186     0.0120     0.0371     8.1763    19.2000     0.0179     0.3357
   62    1.220   1915.25     0.0295     0.0026     0.0206     0.0122     0.0377     8.6202    19.5200     0.0182     0.4134
   63    1.240   1916.25     0.0288     0.0026     0.0198     0.0124     0.0375     9.2844    19.8400     0.0176     0.4737
   64    1.260   1917.23     0.0314     0.0024     0.0178     0.0126     0.0392     7.7496    20.1600     0.0191     0.3162
   65    1.280   1918.24     0.0337     0.0026     0.0178     0.0128     0.0409     7.8265    20.4800     0.0204     0.2180
   66    1.300   1919.25     0.0325     0.0025     0.0158     0.0130     0.0397     7.7445    20.8000     0.0189     0.2239
   67    1.320   1920.23     0.0316     0.0026     0.0162     0.0132     0.0385     7.9224    21.1200     0.0174     0.1817
   68    1.340   1921.23     0.0297     0.0027     0.0195     0.0134     0.0372     8.9309    21.4400     0.0157     0.2861
   69    1.360   1922.23     0.0269     0.0027     0.0227     0.0136     0.0360     9.7066    21.7600     0.0143     0.5790
   70    1.380   1923.22     0.0270     0.0027     0.0247     0.0138     0.0371    10.1780    22.0800     0.0150     0.6829
   71    1.400   1924.20     0.0294     0.0021     0.0258     0.0140     0.0401     7.3059    22.4000     0.0177     0.6489
   72    1.420   1925.22     0.0328     0.0026     0.0261     0.0142     0.0437     7.8366    22.7200     0.0210     0.5657
   73    1.440   1926.23     0.0327     0.0025     0.0259     0.0144     0.0437     7.8150    23.0400     0.0207     0.5704
   74    1.460   1927.22     0.0357     0.0025     0.0249     0.0146     0.0466     6.9243    23.3600     0.0232     0.4894
   75    1.480   1928.23     0.0340     0.0027     0.0240     0.0148     0.0441     7.8499    23.6800     0.0205     0.4579
   76    1.500   1929.25     0.0361     0.0030     0.0241     0.0150     0.0461     8.3824    24.0000     0.0221     0.3976
   77    1.520   1930.22     0.0379     0.0028     0.0248     0.0152     0.0484     7.3407    24.3200     0.0241     0.4087
   78    1.540   1931.22     0.0347     0.0031     0.0258     0.0154     0.0455     8.9731    24.6400     0.0209     0.5006
   79    1.560   1932.21     0.0346     0.0030     0.0254     0.0156     0.0454     9.0258    24.9600     0.0204     0.5034
   80    1.580   1933.24     0.0355     0.0031     0.0298     0.0158     0.0476     8.7795    25.2800     0.0223     0.5812
   81    1.600   1934.27     0.0374     0.0029     0.0310     0.0160     0.0502     7.6239    25.6000     0.0246     0.5913
   82    1.620   1935.27     0.0386     0.0029     0.0303     0.0162     0.0515     7.4908    25.9200     0.0255     0.5625
   83    1.640   1936.25     0.0424     0.0028     0.0313     0.0164     0.0553     6.6580    26.2400     0.0291     0.4973
   84    1.660   1937.25     0.0466     0.0027     0.0285     0.0166     0.0589     5.8205    26.5600     0.0324     0.3956
   85    1.680   1938.25     0.0500     0.0030     0.0311     0.0168     0.0627     6.0219    26.8800     0.0358     0.3729
   86    1.700   1939.24     0.0550     0.0030     0.0346     0.0170     0.0689     5.4650    27.2000     0.0417     0.3864
   87    1.720   1940.25     0.0544     0.0032     0.0360     0.0172     0.0697     5.7593    27.5200     0.0422     0.4532
   88    1.740   1941.24     0.0566     0.0029     0.0334     0.0174     0.0713     5.2331    27.8400     0.0434     0.4061
   89    1.760   1942.25     0.0624     0.0037     0.0362     0.0176     0.0770     6.1028    28.1600     0.0489     0.3522
   90    1.780   1943.24     0.0663     0.0037     0.0391     0.0178     0.0825     5.7854    28.4800     0.0540     0.3825
   91    1.800   1944.21     0.0706     0.0035     0.0342     0.0180     0.0860     5.0461    28.8000     0.0572     0.3298
   92    1.820   1945.24     0.0672     0.0035     0.0329     0.0182     0.0816     5.1221    29.1200     0.0524     0.3045
   93    1.840   1946.25     0.0659     0.0036     0.0349     0.0184     0.0794     5.4156    29.4400     0.0500     0.2763
   94    1.860   1947.24     0.0624     0.0033     0.0386     0.0186     0.0777     5.1464    29.7600     0.0479     0.3729
   95    1.880   1948.21     0.0585     0.0033     0.0414     0.0188     0.0758     5.5640    30.0800     0.0457     0.4905
   96    1.900   1949.20     0.0569     0.0033     0.0450     0.0190     0.0749     5.8672    30.4000     0.0445     0.5363
   97    1.920   1950.23     0.0537     0.0030     0.0477     0.0192     0.0733     5.4676    30.7200     0.0426     0.6478
   98    1.940   1951.21     0.0495     0.0032     0.0482     0.0194     0.0693     6.3952    31.0400     0.0383     0.7266
   99    1.960   1952.22     0.0483     0.0032     0.0417     0.0196     0.0666     6.6229    31.3600     0.0353     0.6803
  100    1.980   1953.20     0.0523     0.0032     0.0461     0.0198     0.0707     6.0763    31.6800     0.0391     0.6150
  101    2.000   1954.21     0.0532     0.0031     0.0499     0.0200     0.0744     5.9240    32.0000     0.0424     0.7189
  102    2.020   1955.20     0.0562     0.0033     0.0542     0.0202     0.0783     5.8025    32.3200     0.0460     0.7064
  103    2.040   1956.18     0.0561     0.0031     0.0575     0.0204     0.0794     5.5478    32.6400     0.0468     0.7501
  104    2.060   1957.20     0.0567     0.0028     0.0578     0.0206     0.0808     5.0406    32.9600     0.0478     0.7692
  105    2.080   1958.22     0.0623     0.0030     0.0609     0.0208     0.0874     4.8637    33.2800     0.0541     0.7214
  106    2.100   1959.21     0.0631     0.0034     0.0620     0.0210     0.0888     5.4294    33.6000     0.0552     0.7307
  107    2.120   1960.23     0.0716     0.0036     0.0581     0.0212     0.0966     5.0939    33.9200     0.0627     0.6101
  108    2.140   1961.21     0.0737     0.0038     0.0602     0.0214     0.0985     5.1397    34.2400     0.0642     0.5836
  109    2.160   1962.22     0.0790     0.0037     0.0540     0.0216     0.1027     4.6583    34.5600     0.0681     0.5098
  110    2.180   1963.25     0.0799     0.0036     0.0558     0.0218     0.1028     4.5233    34.8800     0.0679     0.4829
  111    2.200   1964.22     0.0762     0.0035     0.0574     0.0220     0.1002     4.6348    35.2000     0.0650     0.5395
  112    2.220   1965.22     0.0762     0.0036     0.0645     0.0222     0.1028     4.7447    35.5200     0.0673     0.6112
  113    2.240   1966.21     0.0793     0.0036     0.0690     0.0224     0.1075     4.5618    35.8400     0.0716     0.6239
  114    2.260   1967.23     0.0859     0.0039     0.0703     0.0226     0.1154     4.6564    36.1600     0.0793     0.6024
  115    2.280   1968.21     0.0977     0.0036     0.0707     0.0228     0.1277     3.8616    36.4800     0.0912     0.5344
  116    2.300   1969.22     0.1098     0.0032     0.0647     0.0230     0.1376     3.0667    36.8000     0.1008     0.4290
  117    2.320   1970.20     0.1151     0.0035     0.0603     0.0232     0.1410     3.0688    37.1200     0.1039     0.3705
  118    2.340   1971.21     0.1175     0.0038     0.0605     0.0234     0.1429     3.2441    37.4400     0.1054     0.3515
  119    2.360   1972.20     0.1208     0.0039     0.0562     0.0236     0.1448     3.2605    37.7600     0.1071     0.3142
  120    2.380   1984.60     0.1203     0.0038     0.0522     0.0238     0.1428     3.1725    38.0800     0.1047     0.2848
  121    2.400   2003.82     0.1230     0.0035     0.0482     0.0240     0.1438     2.9765    38.4000     0.1054     0.2431
  122    2.420   2019.80     0.1229     0.0032     0.0500     0.0242     0.1429     2.5484    38.7200     0.1042     0.2243
  123    2.440   2020.79     0.1177     0.0029     0.0508     0.0244     0.1401     2.4867    39.0400     0.1011     0.2860
  124    2.460   2021.79     0.1099     0.0034     0.0534     0.0246     0.1322     3.0766    39.3600     0.0929     0.3064
  125    2.480   2022.79     0.1046     0.0028     0.0475     0.0248     0.1255     2.6632    39.6800     0.0858     0.2882
  126    2.500   2023.79     0.0953     0.0023     0.0511     0.0250     0.1169     2.3463    40.0000     0.0769     0.3415
  127    2.520   2024.77     0.0892     0.0028     0.0479     0.0252     0.1099     3.1923    40.3200     0.0696     0.3455
  128    2.540   2025.80     0.0939     0.0026     0.0507     0.0254     0.1144     2.7971    40.6400     0.0738     0.3174
  129    2.560   2026.80     0.0980     0.0028     0.0576     0.0256     0.1215     2.8368    40.9600     0.0806     0.3770
  130    2.580   2027.79     0.1085     0.0031     0.0587     0.0258     0.1332     2.8515    41.2800     0.0919     0.3585
  131    2.600   2028.80     0.1218     0.0031     0.0476     0.0260     0.1422     2.5148    41.6000     0.1006     0.2237
  132    2.620   2029.80     0.1224     0.0031     0.0472     0.0262     0.1426     2.4781    41.9200     0.1007     0.2171
  133    2.640   2030.78     0.1186     0.0032     0.0469     0.0264     0.1383     2.6761    42.2400     0.0961     0.2145
  134    2.660   2031.78     0.1130     0.0036     0.0481     0.0266     0.1334     3.1462    42.5600     0.0908     0.2409
  135    2.680   2032.81     0.1077     0.0039     0.0532     0.0268     0.1294     3.6426    42.8800     0.0865     0.2870
  136    2.700   2033.82     0.0985     0.0041     0.0616     0.0270     0.1226     4.0796    43.2000     0.0794     0.3831
  137    2.720   2034.81     0.1017     0.0037     0.0623     0.0272     0.1281     3.6555    43.5200     0.0845     0.4208
  138    2.740   2035.82     0.1015     0.0036     0.0659     0.0274     0.1289     3.4871    43.8400     0.0851     0.4451
  139    2.760   2036.82     0.0933     0.0033     0.0668     0.0276     0.1213     3.5499    44.1600     0.0771     0.5054
  140    2.780   2037.84     0.0913     0.0036     0.0593     0.0278     0.1172     3.9639    44.4800     0.0727     0.4659
  141    2.800   2038.77     0.0915     0.0034     0.0557     0.0280     0.1154     3.7129    44.8000     0.0706     0.4089
  142    2.820   2039.79     0.0941     0.0033     0.0589     0.0282     0.1181     3.4920    45.1200     0.0730     0.3958
  143    2.840   2040.78     0.0938     0.0036     0.0602     0.0284     0.1192     3.7781    45.4400     0.0738     0.4355
  144    2.860   2041.78     0.0965     0.0034     0.0604     0.0286     0.1216     3.4994    45.7600     0.0759     0.4118
  145    2.880   2042.78     0.0987     0.0036     0.0652     0.0288     0.1255     3.5996    46.0800     0.0794     0.4407
  146    2.900   2043.76     0.1048     0.0034     0.0690     0.0290     0.1333     3.2829    46.4000     0.0869     0.4475
  147    2.920   2044.78     0.1113     0.0037     0.0694     0.0292     0.1406     3.3322    46.7200     0.0939     0.4328
  148    2.940   2045.75     0.1154     0.0034     0.0718     0.0294     0.1453     2.9337    47.0400     0.0982     0.4234
  149    2.960   2046.75     0.1198     0.0039     0.0710     0.0296     0.1499     3.2591    47.3600     0.1025     0.4109
  150    2.980   2047.75     0.1292     0.0040     0.0698     0.0298     0.1588     3.0776    47.6800     0.1111     0.3657
  151    3.000   2048.75     0.1378     0.0039     0.0663     0.0300     0.1649     2.9152    48.0000     0.1169     0.2943
  152    3.020   2049.76     0.1401     0.0043     0.0669     0.0302     0.1686     3.1182    48.3200     0.1202     0.3133
  153    3.040   2050.78     0.1386     0.0044     0.0621     0.0304     0.1652     3.2000    48.6400     0.1166     0.2828
  154    3.060   2051.77     0.1340     0.0043     0.0581     0.0306     0.1589     3.1559    48.9600     0.1099     0.2599
  155    3.080   2052.77     0.1210     0.0043     0.0548     0.0308     0.1445     3.5612    49.2800     0.0952     0.2635
  156    3.100   2053.80     0.1061     0.0043     0.0619     0.0310     0.1317     4.0006    49.6000     0.0821     0.3653
  157    3.120   2054.82     0.1070     0.0043     0.0646     0.0312     0.1335     4.0238    49.9200     0.0836     0.3824
  158    3.140   2055.82     0.1163     0.0041     0.0633     0.0314     0.1436     3.6209    50.2400     0.0933     0.3605
  159    3.160   2056.81     0.1262     0.0041     0.0599     0.0316     0.1511     3.2310    50.5600     0.1006     0.2771
  160    3.180   2057.81     0.1279     0.0042     0.0630     0.0318     0.1535     3.3082    50.8800     0.1026     0.2834
  161    3.200   2058.80     0.1286     0.0043     0.0693     0.0320     0.1570     3.3337    51.2000     0.1058     0.3349
  162    3.220   2059.79     0.1252     0.0044     0.0728     0.0322     0.1553     3.4660    51.5200     0.1038     0.3815
  163    3.240   2060.78     0.1249     0.0040     0.0751     0.0324     0.1560     3.2246    51.8400     0.1041     0.3996
  164    3.260   2061.78     0.1197     0.0039     0.0784     0.0326     0.1519     3.2685    52.1600     0.0997     0.4425
  165    3.280   2062.78     0.1226     0.0036     0.0806     0.0328     0.1562     2.9080    52.4800     0.1037     0.4536
  166    3.300   2063.77     0.1162     0.0034     0.0832     0.0330     0.1510     2.9534    52.8000     0.0982     0.5071
  167    3.320   2064.76     0.1164     0.0036     0.0843     0.0332     0.1518     3.0671    53.1200     0.0987     0.5189
  168    3.340   2065.79     0.1112     0.0035     0.0837     0.0334     0.1464     3.1209    53.4400     0.0930     0.5426
  169    3.360   2066.78     0.1119     0.0036     0.0818     0.0336     0.1466     3.1725    53.7600     0.0928     0.5276
  170    3.380   2067.79     0.1042     0.0037     0.0749     0.0338     0.1366     3.5685    54.0800     0.0825     0.5240
  171    3.400   2068.78     0.1071     0.0036     0.0722     0.0340     0.1375     3.3982    54.4000     0.0831     0.4627
  172    3.420   2069.77     0.1110     0.0037     0.0742     0.0342     0.1421     3.3188    54.7200     0.0874     0.4560
  173    3.440   2070.77     0.1139     0.0038     0.0724     0.0344     0.1438     3.3153    55.0400     0.0887     0.4137
  174    3.460   2071.77     0.1162     0.0038     0.0765     0.0346     0.1475     3.2803    55.3600     0.0922     0.4334
  175    3.480   2072.79     0.1207     0.0037     0.0820     0.0348     0.1545     3.0730    55.6800     0.0988     0.4620
  176    3.500   2073.79     0.1329     0.0036     0.0836     0.0350     0.1681     2.7691    56.0000     0.1121     0.4354
  177    3.520   2074.82     0.1449     0.0039     0.0818     0.0352     0.1796     2.7240    56.3200     0.1233     0.3841
  178    3.540   2075.78     0.1500     0.0043     0.0801     0.0354     0.1845     2.9217    56.6400     0.1279     0.3660
  179    3.560   2076.79     0.1519     0.0045     0.0779     0.0356     0.1858     2.9908    56.9600     0.1288     0.3504
  180    3.580   2077.82     0.1520     0.0044     0.0751     0.0358     0.1841     2.8629    57.2800     0.1268     0.3212
  181    3.600   2078.82     0.1521     0.0046     0.0760     0.0360     0.1836     2.9980    57.6000     0.1260     0.3097
  182    3.620   2079.80     0.1502     0.0044     0.0785     0.0362     0.1829     2.9201    57.9200     0.1250     0.3345
  183    3.640   2080.84     0.1455     0.0041     0.0841     0.0364     0.1797     2.7730    58.2400     0.1214     0.3708
  184    3.660   2081.83     0.1368     0.0039     0.0907     0.0366     0.1738     2.8027    58.5600     0.1152     0.4473
  185    3.680   2082.82     0.1411     0.0041     0.0919     0.0368     0.1794     2.8981    58.8800     0.1205     0.4511
  186    3.700   2083.83     0.1425     0.0041     0.0935     0.0370     0.1810     2.8453    59.2000     0.1218     0.4491
  187    3.720   2084.80     0.1430     0.0040     0.0968     0.0372     0.1832     2.8158    59.5200     0.1236     0.4729
  188    3.740   2085.84     0.1425     0.0035     0.0970     0.0374     0.1832     2.4468    59.8400     0.1233     0.4822
  189    3.760   2086.81     0.1479     0.0035     0.1013     0.0376     0.1897     2.3698    60.1600     0.1296     0.4791
  190    3.780   2087.81     0.1565     0.0035     0.1017     0.0378     0.1985     2.2298    60.4800     0.1380     0.4506
  191    3.800   2088.80     0.1686     0.0035     0.1065     0.0380     0.2128     2.0726    60.8000     0.1520     0.4416
  192    3.820   2089.80     0.1876     0.0037     0.1065     0.0382     0.2326     1.9587    61.1200     0.1714     0.4010
  193    3.840   2090.80     0.2035     0.0047     0.0844     0.0384     0.2428     2.3364    61.4400     0.1814     0.3046
  194    3.860   2091.81     0.2245     0.0055     0.0766     0.0386     0.2570     2.4836    61.7600     0.1952     0.1987
  195    3.880   2092.83     0.2369     0.0062     0.0687     0.0388     0.2678     2.6025    62.0800     0.2058     0.1695
  196    3.900   2093.82     0.2331     0.0069     0.0582     0.0390     0.2589     2.9647    62.4000     0.1965     0.1138
  197    3.920   2094.83     0.2161     0.0067     0.0520     0.0392     0.2392     3.0772    62.7200     0.1765     0.0894
  198    3.940   2095.83     0.1969     0.0067     0.0524     0.0394     0.2177     3.3589    63.0400     0.1546     0.0651
  199    3.960   2096.86     0.1760     0.0061     0.0590     0.0396     0.1999     3.4393    63.3600     0.1365     0.1260
  200    3.980   2097.85     0.1600     0.0058     0.0682     0.0398     0.1872     3.6071    63.6800     0.1235     0.2017
  201    4.000   2098.83     0.1468     0.0047     0.0783     0.0400     0.1787     3.0962    64.0000     0.1147     0.3126
  202    4.020   2099.84     0.1497     0.0045     0.0816     0.0402     0.1834     3.1144    64.3200     0.1191     0.3369
  203    4.040   2100.86     0.1403     0.0040     0.0857     0.0404     0.1760     2.8580    64.6400     0.1114     0.4003
  204    4.060   2101.85     0.1411     0.0038     0.0872     0.0406     0.1776     2.7469    64.9600     0.1126     0.4119
  205    4.080   2102.86     0.1444     0.0038     0.0862     0.0408     0.1812     2.6471    65.2800     0.1159     0.4050
  206    4.100   2103.88     0.1504     0.0037     0.0821     0.0410     0.1845     2.4334    65.6000     0.1189     0.3384
  207    4.120   2104.92     0.1475     0.0035     0.0852     0.0412     0.1828     2.3671    65.9200     0.1169     0.3669
  208    4.140   2105.94     0.1430     0.0036     0.0893     0.0414     0.1801     2.5318    66.2400     0.1138     0.4121
  209    4.160   2106.89     0.1435     0.0036     0.0908     0.0416     0.1814     2.5390    66.5600     0.1148     0.4237
  210    4.180   2107.91     0.1393     0.0037     0.0923     0.0418     0.1777     2.6674    66.8800     0.1108     0.4489
  211    4.200   2108.93     0.1400     0.0038     0.0948     0.0420     0.1797     2.7092    67.2000     0.1125     0.4667
  212    4.220   2109.94     0.1437     0.0033     0.0961     0.0422     0.1838     2.3306    67.5200     0.1163     0.4581
  213    4.240   2110.92     0.1435     0.0035     0.0975     0.0424     0.1842     2.4017    67.8400     0.1164     0.4685
  214    4.260   2111.96     0.1396     0.0036     0.0997     0.0426     0.1813     2.5782    68.1600     0.1131     0.5009
  215    4.280   2112.94     0.1364     0.0035     0.1001     0.0428     0.1782     2.5054    68.4800     0.1098     0.5182
  216    4.300   2113.93     0.1354     0.0033     0.1002     0.0430     0.1776     2.4084    68.8000     0.1088     0.5282
  217    4.320   2114.92     0.1365     0.0032     0.0991     0.0432     0.1783     2.3186    69.1200     0.1092     0.5154
  218    4.340   2115.94     0.1344     0.0033     0.0972     0.0434     0.1754     2.4120    69.4400     0.1060     0.5122
  219    4.360   2116.92     0.1311     0.0032     0.0963     0.0436     0.1712     2.4991    69.7600     0.1014     0.5123
  220    4.380   2123.00     0.1331     0.0039     0.0964     0.0438     0.1742     2.9904    70.0800     0.1041     0.5218
  221    4.400   2139.66     0.1389     0.0037     0.0918     0.0440     0.1782     2.8125    70.4000     0.1078     0.4621
  222    4.420   2156.32     0.1448     0.0035     0.0873     0.0442     0.1821     2.6069    70.7200     0.1114     0.4024
  223    4.440   2163.24     0.1449     0.0033     0.0938     0.0444     0.1835     2.2984    71.0400     0.1125     0.4229
  224    4.460   2164.22     0.1375     0.0031     0.0978     0.0446     0.1779     2.2406    71.3600     0.1066     0.4854
  225    4.480   2165.22     0.1349     0.0031     0.1024     0.0448     0.1772     2.2943    71.6800     0.1055     0.5312
  226    4.500   2166.24     0.1398     0.0037     0.1036     0.0450     0.1828     2.6709    72.0000     0.1108     0.5186
  227    4.520   2167.24     0.1437     0.0033     0.1047     0.0452     0.1882     2.2794    72.3200     0.1158     0.5231
  228    4.540   2168.24     0.1467     0.0034     0.1008     0.0454     0.1894     2.3399    72.6400     0.1167     0.4817
  229    4.560   2169.25     0.1425     0.0036     0.0960     0.0456     0.1838     2.5266    72.9600     0.1108     0.4756
  230    4.580   2170.28     0.1417     0.0033     0.0848     0.0458     0.1774     2.3344    73.2800     0.1042     0.3780
  231    4.600   2171.26     0.1317     0.0034     0.0957     0.0460     0.1709     2.5529    73.6000     0.0973     0.4854
  232    4.620   2172.25     0.1301     0.0036     0.1009     0.0462     0.1720     2.7842    73.9200     0.0981     0.5459
  233    4.640   2173.27     0.1338     0.0034     0.1047     0.0464     0.1770     2.5624    74.2400     0.1028     0.5512
  234    4.660   2174.28     0.1365     0.0031     0.1063     0.0466     0.1809     2.2760    74.5600     0.1063     0.5550
  235    4.680   2175.26     0.1366     0.0031     0.1078     0.0468     0.1816     2.2612    74.8800     0.1067     0.5654
  236    4.700   2176.27     0.1430     0.0033     0.1112     0.0470     0.1893     2.3351    75.2000     0.1141     0.5532
  237    4.720   2177.29     0.1469     0.0032     0.1134     0.0472     0.1941     2.1678    75.5200     0.1186     0.5498
  238    4.740   2178.30     0.1497     0.0030     0.1152     0.0474     0.1981     2.0120    75.8400     0.1223     0.5550
  239    4.760   2179.27     0.1533     0.0033     0.1132     0.0476     0.2013     2.1872    76.1600     0.1251     0.5325
  240    4.780   2180.27     0.1568     0.0035     0.1110     0.0478     0.2037     2.2174    76.4800     0.1272     0.5017
  241    4.800   2181.26     0.1558     0.0034     0.1101     0.0480     0.2023     2.1896    76.8000     0.1255     0.5007
  242    4.820   2182.31     0.1523     0.0036     0.1100     0.0482     0.1982     2.3486    77.1200     0.1211     0.5052
  243    4.840   2183.31     0.1534     0.0035     0.1117     0.0484     0.1998     2.2958    77.4400     0.1224     0.5079
  244    4.860   2184.30     0.1472     0.0036     0.1137     0.0486     0.1946     2.4511    77.7600     0.1169     0.5503
  245    4.880   2185.30     0.1451     0.0037     0.1129     0.0488     0.1932     2.5459    78.0800     0.1151     0.5694
  246    4.900   2186.30     0.1440     0.0039     0.1154     0.0490     0.1917     2.6643    78.4000     0.1133     0.5707
  247    4.920   2187.30     0.1427     0.0028     0.1182     0.0492     0.1915     1.9829    78.7200     0.1128     0.5950
  248    4.940   2188.31     0.1430     0.0024     0.1200     0.0494     0.1927     1.6851    79.0400     0.1137     0.6078
  249    4.960   2189.31     0.1482     0.0022     0.1230     0.0496     0.1997     1.5043    79.3600     0.1203     0.6075
  250    4.980   2190.29     0.1594     0.0020     0.1281     0.0498     0.2127     1.2670    79.6800     0.1330     0.5799
  251    5.000   2191.30     0.1750     0.0024     0.1308     0.0500     0.2295     1.3929    80.0000     0.1495     0.5340
  252    5.020   2192.30     0.2025     0.0028     0.1186     0.0502     0.2546     1.4509    80.3200     0.1743     0.4258
  253    5.040   2193.32     0.2275     0.0037     0.1112     0.0504     0.2749     1.6498    80.6400     0.1942     0.3208
  254    5.060   2194.35     0.2489     0.0044     0.1063     0.0506     0.2942     1.7740    80.9600     0.2133     0.2694
  255    5.080   2195.32     0.2659     0.0048     0.1001     0.0508     0.3095     1.7975    81.2800     0.2282     0.2324
  256    5.100   2196.33     0.2701     0.0053     0.0949     0.0510     0.3102     1.9647    81.6000     0.2286     0.1946
  257    5.120   2197.36     0.2600     0.0054     0.0973     0.0512     0.3000     2.0537    81.9200     0.2181     0.2015
  258    5.140   2198.37     0.2520     0.0054     0.0965     0.0514     0.2929     2.1513    82.2400     0.2107     0.2189
  259    5.160   2199.38     0.2444     0.0050     0.0997     0.0516     0.2854     2.0315    82.5600     0.2028     0.2264
  260    5.180   2200.37     0.2364     0.0052     0.1077     0.0518     0.2804     2.1720    82.8800     0.1975     0.2681
  261    5.200   2201.37     0.2226     0.0050     0.1090     0.0520     0.2683     2.2081    83.2000     0.1851     0.3074
  262    5.220   2202.38     0.2103     0.0045     0.1131     0.0522     0.2570     2.1438    83.5200     0.1735     0.3404
  263    5.240   2203.36     0.1996     0.0038     0.1173     0.0524     0.2483     1.8917    83.8400     0.1644     0.3860
  264    5.260   2204.36     0.1921     0.0039     0.1198     0.0526     0.2421     2.0433    84.1600     0.1579     0.4205
  265    5.280   2205.36     0.1890     0.0043     0.1219     0.0528     0.2401     2.2916    84.4800     0.1556     0.4428
  266    5.300   2206.37     0.1864     0.0041     0.1190     0.0530     0.2368     2.2275    84.8000     0.1520     0.4410
  267    5.320   2207.36     0.1810     0.0042     0.1190     0.0532     0.2313     2.3088    85.1200     0.1462     0.4562
  268    5.340   2208.35     0.1766     0.0045     0.1137     0.0534     0.2246     2.5483    85.4400     0.1392     0.4372
  269    5.360   2209.33     0.1751     0.0046     0.1167     0.0536     0.2226     2.6135    85.7600     0.1369     0.4355
  270    5.380   2210.35     0.1697     0.0043     0.1238     0.0538     0.2211     2.5178    86.0800     0.1350     0.5082
  271    5.400   2211.35     0.1749     0.0039     0.1280     0.0540     0.2279     2.2378    86.4000     0.1415     0.5102
  272    5.420   2212.38     0.1714     0.0041     0.1320     0.0542     0.2265     2.3617    86.7200     0.1398     0.5508
  273    5.440   2213.35     0.1696     0.0037     0.1354     0.0544     0.2260     2.1810    87.0400     0.1390     0.5752
  274    5.460   2214.28     0.1697     0.0037     0.1367     0.0546     0.2270     2.1855    87.3600     0.1396     0.5865
  275    5.480   2215.26     0.1720     0.0035     0.1363     0.0548     0.2291     1.9962    87.6800     0.1415     0.5740
  276    5.500   2216.26     0.1718     0.0033     0.1321     0.0550     0.2284     1.9354    88.0000     0.1404     0.5682
  277    5.520   2217.22     0.1702     0.0032     0.1328     0.0552     0.2255     1.8724    88.3200     0.1372     0.5587
  278    5.540   2218.22     0.1714     0.0034     0.1338     0.0554     0.2274     2.0060    88.6400     0.1387     0.5617
  279    5.560   2219.23     0.1725     0.0030     0.1324     0.0556     0.2284     1.7582    88.9600     0.1394     0.5561
  280    5.580   2220.24     0.1657     0.0035     0.1334     0.0558     0.2216     2.1073    89.2800     0.1323     0.5843
  281    5.600   2221.23     0.1678     0.0037     0.1309     0.0560     0.2230     2.1941    89.6000     0.1334     0.5642
  282    5.620   2222.23     0.1690     0.0037     0.1318     0.0562     0.2232     2.1991    89.9200     0.1333     0.5480
  283    5.640   2223.25     0.1665     0.0036     0.1350     0.0564     0.2229     2.1526    90.2400     0.1326     0.5866
  284    5.660   2224.23     0.1712     0.0041     0.1344     0.0566     0.2278     2.4058    90.5600     0.1373     0.5701
  285    5.680   2225.23     0.1745     0.0039     0.1357     0.0568     0.2317     2.2575    90.8800     0.1408     0.5639
  286    5.700   2226.23     0.1786     0.0039     0.1365     0.0570     0.2359     2.1540    91.2000     0.1447     0.5480
  287    5.720   2227.11     0.1785     0.0042     0.1328     0.0572     0.2346     2.3653    91.5200     0.1431     0.5348
  288    5.740   2227.89     0.1784     0.0042     0.1329     0.0574     0.2341     2.3497    91.8400     0.1423     0.5283
  289    5.760   2228.75     0.1766     0.0040     0.1382     0.0576     0.2328     2.2460    92.1600     0.1407     0.5423
  290    5.780   2229.70     0.1730     0.0042     0.1391     0.0578     0.2311     2.4200    92.4800     0.1386     0.5811
  291    5.800   2230.68     0.1769     0.0036     0.1334     0.0580     0.2336     2.0289    92.8000     0.1408     0.5470
  292    5.820   2231.67     0.1779     0.0037     0.1331     0.0582     0.2342     2.1000    93.1200     0.1411     0.5369
  293    5.840   2232.68     0.1832     0.0035     0.1365     0.0584     0.2405     1.9352    93.4400     0.1471     0.5299
  294    5.860   2233.68     0.1869     0.0040     0.1391     0.0586     0.2447     2.1668    93.7600     0.1509     0.5225
  295    5.880   2234.67     0.1942     0.0041     0.1370     0.0588     0.2518     2.1447    94.0800     0.1577     0.4963
  296    5.900   2235.63     0.1982     0.0038     0.1322     0.0590     0.2535     1.9462    94.4000     0.1591     0.4566
  297    5.920   2236.68     0.1998     0.0042     0.1283     0.0592     0.2540     2.0985    94.7200     0.1592     0.4388
  298    5.940   2237.68     0.2037     0.0046     0.1299     0.0594     0.2588     2.2482    95.0400     0.1637     0.4385
  299    5.960   2238.64     0.2024     0.0046     0.1349     0.0596     0.2583     2.2530    95.3600     0.1629     0.4500
  300    5.980   2239.61     0.2030     0.0041     0.1352     0.0598     0.2596     2.0497    95.6800     0.1640     0.4583
  301    6.000   2240.64     0.2031     0.0041     0.1376     0.0600     0.2610     2.0200    96.0000     0.1650     0.4726
  302    6.020   2241.67     0.2052     0.0045     0.1355     0.0602     0.2624     2.2198    96.3200     0.1661     0.4582
  303    6.040   2242.64     0.2037     0.0045     0.1341     0.0604     0.2613     2.2245    96.6400     0.1646     0.4660
  304    6.060   2243.59     0.1917     0.0043     0.1355     0.0606     0.2490     2.2554    96.9600     0.1521     0.4994
  305    6.080   2244.62     0.1917     0.0041     0.1389     0.0608     0.2490     2.1614    97.2800     0.1517     0.4987
  306    6.100   2245.67     0.1865     0.0041     0.1441     0.0610     0.2462     2.2081    97.6000     0.1486     0.5454
  307    6.120   2246.64     0.1853     0.0039     0.1484     0.0612     0.2469     2.1216    97.9200     0.1490     0.5743
  308    6.140   2247.64     0.1908     0.0040     0.1516     0.0614     0.2541     2.1229    98.2400     0.1558     0.5724
  309    6.160   2248.65     0.1960     0.0040     0.1525     0.0616     0.2600     2.0605    98.5600     0.1615     0.5630
  310    6.180   2249.66     0.2005     0.0040     0.1489     0.0618     0.2635     1.9763    98.8800     0.1646     0.5359
  311    6.200   2250.62     0.2039     0.0044     0.1501     0.0620     0.2661     2.1434    99.2000     0.1669     0.5159
  312    6.220   2251.65     0.2086     0.0046     0.1513     0.0622     0.2718     2.1903    99.5200     0.1723     0.5131
  313    6.240   2252.63     0.2097     0.0044     0.1503     0.0624     0.2736     2.0934    99.8400     0.1737     0.5159
  314    6.260   2253.65     0.2140     0.0047     0.1460     0.0626     0.2755     2.1586   100.1600     0.1754     0.4782
  315    6.280   2254.62     0.2186     0.0049     0.1507     0.0628     0.2811     2.2238   100.4800     0.1806     0.4763
  316    6.300   2255.62     0.2192     0.0049     0.1482     0.0630     0.2822     2.2453   100.8000     0.1814     0.4791
  317    6.320   2256.60     0.2244     0.0048     0.1479     0.0632     0.2864     2.1619   101.1200     0.1853     0.4556
  318    6.340   2258.60     0.2215     0.0049     0.1466     0.0634     0.2839     2.2240   101.4400     0.1825     0.4670
  319    6.360   2275.66     0.2224     0.0045     0.1407     0.0636     0.2823     2.0321   101.7600     0.1806     0.4376
  320    6.380   2292.72     0.2233     0.0047     0.1347     0.0638     0.2808     2.1182   102.0800     0.1787     0.4081
  321    6.400   2301.57     0.2225     0.0049     0.1403     0.0640     0.2807     2.1810   102.4000     0.1783     0.4182
  322    6.420   2302.59     0.2199     0.0049     0.1441     0.0642     0.2800     2.2005   102.7200     0.1773     0.4448
  323    6.440   2303.56     0.2180     0.0049     0.1429     0.0644     0.2777     2.2622   103.0400     0.1747     0.4450
  324    6.460   2304.58     0.2157     0.0050     0.1449     0.0646     0.2766     2.3305   103.3600     0.1732     0.4636
  325    6.480   2305.56     0.2153     0.0047     0.1429     0.0648     0.2758     2.1865   103.6800     0.1721     0.4613
  326    6.500   2306.61     0.1992     0.0046     0.1403     0.0650     0.2586     2.2905   104.0000     0.1546     0.4946
  327    6.520   2307.59     0.1939     0.0047     0.1389     0.0652     0.2520     2.4076   104.3200     0.1477     0.4961
  328    6.540   2308.61     0.1900     0.0048     0.1488     0.0654     0.2507     2.5224   104.6400     0.1460     0.5408
  329    6.560   2309.58     0.1858     0.0049     0.1556     0.0656     0.2503     2.6477   104.9600     0.1453     0.6044
  330    6.580   2310.53     0.1873     0.0050     0.1567     0.0658     0.2535     2.7057   105.2800     0.1482     0.6195
  331    6.600   2311.56     0.1880     0.0047     0.1576     0.0660     0.2541     2.5263   105.6000     0.1485     0.6149
  332    6.620   2323.37     0.1913     0.0047     0.1560     0.0662     0.2572     2.4776   105.9200     0.1513     0.5994
  333    6.640   2347.40     0.1960     0.0047     0.1539     0.0664     0.2610     2.5089   106.2400     0.1547     0.5715
  334    6.660   2371.43     0.2007     0.0045     0.1527     0.0666     0.2647     2.3019   106.5600     0.1582     0.5436
  335    6.680   2378.58     0.2078     0.0048     0.1609     0.0668     0.2752     2.3286   106.8800     0.1683     0.5562
  336    6.700   2379.20     0.2253     0.0052     0.1571     0.0670     0.2925     2.4485   107.2000     0.1853     0.5029
  337    6.720   2379.84     0.2404     0.0053     0.1519     0.0672     0.3047     2.3040   107.5200     0.1972     0.4357
  338    6.740   2380.51     0.2460     0.0059     0.1482     0.0674     0.3089     2.4308   107.8400     0.2011     0.4098
  339    6.760   2381.14     0.2571     0.0060     0.1433     0.0676     0.3177     2.4038   108.1600     0.2096     0.3667
  340    6.780   2381.80     0.2589     0.0056     0.1435     0.0678     0.3189     2.1885   108.4800     0.2104     0.3562
  341    6.800   2382.44     0.2543     0.0057     0.1546     0.0680     0.3174     2.2130   108.8000     0.2086     0.3944
  342    6.820   2383.08     0.2470     0.0062     0.1626     0.0682     0.3147     2.5208   109.1200     0.2056     0.4527
  343    6.840   2383.72     0.2408     0.0060     0.1698     0.0684     0.3106     2.4754   109.4400     0.2011     0.4865
  344    6.860   2384.39     0.2314     0.0057     0.1764     0.0686     0.3047     2.3932   109.7600     0.1950     0.5433
  345    6.880   2385.05     0.2432     0.0052     0.1771     0.0688     0.3187     2.1782   110.0800     0.2086     0.5320
  346    6.900   2385.68     0.2472     0.0054     0.1741     0.0690     0.3195     2.2029   110.4000     0.2091     0.4934
  347    6.920   2386.32     0.2475     0.0056     0.1799     0.0692     0.3223     2.2563   110.7200     0.2115     0.5137
  348    6.940   2397.20     0.2474     0.0059     0.1781     0.0694     0.3226     2.3959   111.0400     0.2116     0.5182
  349    6.960   2417.01     0.2481     0.0062     0.1752     0.0696     0.3221     2.5183   111.3600     0.2107     0.5057
  350    6.980   2436.81     0.2488     0.0058     0.1717     0.0698     0.3216     2.3390   111.6800     0.2099     0.4931
  351    7.000   2439.94     0.2544     0.0052     0.1793     0.0700     0.3280     2.0455   112.0000     0.2160     0.4871
  352    7.020   2440.98     0.2497     0.0057     0.1867     0.0702     0.3273     2.2719   112.3200     0.2150     0.5326
  353    7.040   2442.02     0.2499     0.0056     0.1890     0.0704     0.3290     2.2607   112.6400     0.2163     0.5446
  354    7.060   2443.02     0.2520     0.0054     0.1901     0.0706     0.3312     2.1688   112.9600     0.2182     0.5407
  355    7.080   2444.03     0.2626     0.0052     0.1878     0.0708     0.3423     1.9827   113.2800     0.2291     0.5202
  356    7.100   2445.01     0.2727     0.0056     0.1816     0.0710     0.3492     2.0705   113.6000     0.2356     0.4715
  357    7.120   2446.04     0.2769     0.0061     0.1830     0.0712     0.3530     2.1938   113.9200     0.2390     0.4595
  358    7.140   2447.06     0.2812     0.0058     0.1878     0.0714     0.3601     2.0876   114.2400     0.2459     0.4740
  359    7.160   2448.09     0.2981     0.0056     0.1825     0.0716     0.3744     1.8987   114.5600     0.2599     0.4240
  360    7.180   2449.11     0.3011     0.0056     0.1821     0.0718     0.3783     1.8634   114.8800     0.2635     0.4258
  361    7.200   2450.09     0.3038     0.0062     0.1822     0.0720     0.3816     2.0461   115.2000     0.2664     0.4245
  362    7.220   2451.05     0.3029     0.0068     0.1917     0.0722     0.3809     2.2292   115.5200     0.2654     0.4277
  363    7.240   2452.09     0.3087     0.0069     0.1970     0.0724     0.3899     2.2267   115.8400     0.2740     0.4406
  364    7.260   2453.06     0.3153     0.0066     0.1947     0.0726     0.3972     2.1120   116.1600     0.2811     0.4361
  365    7.280   2454.12     0.3183     0.0065     0.1926     0.0728     0.3989     2.0547   116.4800     0.2825     0.4222
  366    7.300   2455.13     0.3194     0.0062     0.1912     0.0730     0.3992     1.9384   116.8000     0.2824     0.4142
  367    7.320   2456.12     0.3140     0.0058     0.1998     0.0732     0.3979     1.8510   117.1200     0.2808     0.4510
  368    7.340   2457.10     0.3192     0.0050     0.1981     0.0734     0.4034     1.5623   117.4400     0.2859     0.4439
  369    7.360   2458.08     0.3143     0.0045     0.1992     0.0736     0.3978     1.4389   117.7600     0.2801     0.4471
  370    7.380   2459.10     0.3147     0.0054     0.2019     0.0738     0.3988     1.7317   118.0800     0.2807     0.4505
  371    7.400   2460.12     0.3142     0.0058     0.1873     0.0740     0.3948     1.8484   118.4000     0.2764     0.4264
  372    7.420   2461.15     0.3202     0.0060     0.1753     0.0742     0.3950     1.8817   118.7200     0.2763     0.3759
  373    7.440   2462.13     0.3110     0.0062     0.1591     0.0744     0.3812     1.9905   119.0400     0.2621     0.3534
  374    7.460   2463.15     0.3075     0.0059     0.1441     0.0746     0.3686     1.9146   119.3600     0.2492     0.2843
  375    7.480   2464.18     0.2908     0.0055     0.1450     0.0748     0.3517     1.8793   119.6800     0.2320     0.3020
  376    7.500   2465.16     0.2706     0.0057     0.1518     0.0750     0.3337     2.0438   120.0000     0.2137     0.3524
  377    7.520   2466.19     0.2966     0.0050     0.1661     0.0752     0.3643     1.7902   120.3200     0.2440     0.3524
  378    7.540   2467.20     0.4122     0.0052     0.1719     0.0754     0.4841     1.3316   120.6400     0.3634     0.2666
  379    7.560   2468.22     0.6900     0.0059     0.1684     0.0756     0.7618     0.9028   120.9600     0.6409     0.1511
  380    7.580   2469.23     0.9136     0.0059     0.1449     0.0758     0.9782     0.6451   121.2800     0.8569     0.0908
  381    7.600   2470.21     0.8219     0.0062     0.1539     0.0760     0.8844     0.7351   121.6000     0.7628     0.0962
  382    7.620   2471.26     0.6291     0.0076     0.1669     0.0762     0.6981     1.1764   121.9200     0.5762     0.1536
  383    7.640   2472.27     0.5446     0.0066     0.1689     0.0764     0.6146     1.1955   122.2400     0.4924     0.1837
  384    7.660   2473.26     0.4783     0.0072     0.1860     0.0766     0.5521     1.4877   122.5600     0.4295     0.2309
  385    7.680   2474.27     0.4316     0.0070     0.2110     0.0768     0.5165     1.6232   122.8800     0.3936     0.3185
  386    7.700   2475.23     0.4464     0.0063     0.2333     0.0770     0.5408     1.4203   123.2000     0.4176     0.3536
  387    7.720   2476.23     0.4493     0.0077     0.2504     0.0772     0.5532     1.7209   123.5200     0.4297     0.3960
  388    7.740   2477.25     0.4761     0.0085     0.2342     0.0774     0.5782     1.8147   123.8400     0.4543     0.3648
  389    7.760   2478.28     0.5022     0.0075     0.2173     0.0776     0.5946     1.5066   124.1600     0.4704     0.3030
  390    7.780   2479.30     0.5714     0.0092     0.2282     0.0778     0.6645     1.6438   124.4800     0.5400     0.2665
  391    7.800   2480.29     0.6273     0.0114     0.2292     0.0780     0.7256     1.8309   124.8000     0.6008     0.2599
  392    7.820   2481.27     0.6975     0.0126     0.2461     0.0782     0.7967     1.8241   125.1200     0.6716     0.2352
  393    7.840   2482.26     0.7614     0.0136     0.2816     0.0784     0.8758     1.8013   125.4400     0.7504     0.2585
  394    7.860   2483.26     0.7920     0.0139     0.2486     0.0786     0.9040     1.7657   125.7600     0.7783     0.2418
  395    7.880   2484.29     0.8186     0.0141     0.2001     0.0788     0.9087     1.7103   126.0800     0.7826     0.1732
  396    7.900   2485.27     0.7599     0.0131     0.2215     0.0790     0.8495     1.7095   126.4000     0.7231     0.1858
  397    7.920   2486.27     0.6986     0.0134     0.2289     0.0792     0.7981     1.9026   126.7200     0.6713     0.2347
  398    7.940   2487.24     0.6598     0.0149     0.2128     0.0794     0.7493     2.2221   127.0400     0.6222     0.2151
  399    7.960   2488.27     0.6111     0.0117     0.2100     0.0796     0.7017     1.8975   127.3600     0.5743     0.2370
  400    7.980   2489.29     0.4931     0.0097     0.2019     0.0798     0.5814     1.9415   127.6800     0.4537     0.2876
  401    8.000   2490.28     0.4612     0.0096     0.1498     0.0800     0.5315     2.0870   128.0000     0.4035     0.2164
  402    8.020   2491.30     0.4689     0.0096     0.1555     0.0802     0.5325     2.0511   128.3200     0.4042     0.1762
  403    8.040   2492.28     0.4747     0.0097     0.1748     0.0804     0.5459     2.0347   128.6400     0.4172     0.2133
  404    8.060   2493.29     0.4539     0.0096     0.1780     0.0806     0.5309     2.1099   128.9600     0.4019     0.2556
  405    8.080   2494.30     0.4537     0.0094     0.1320     0.0808     0.5124     2.0791   129.2800     0.3831     0.1538
  406    8.100   2495.30     0.5076     0.0092     0.1507     0.0810     0.5661     1.8257   129.6000     0.4365     0.1330
  407    8.120   2496.32     0.5411     0.0083     0.1743     0.0812     0.6108     1.5515   129.9200     0.4809     0.1763
  408    8.140   2497.35     0.5823     0.0082     0.1943     0.0814     0.6621     1.4090   130.2400     0.5319     0.2043
  409    8.160   2498.33     0.5925     0.0076     0.2059     0.0816     0.6777     1.2698   130.5600     0.5472     0.2218
  410    8.180   2499.34     0.5501     0.0068     0.2069     0.0818     0.6359     1.2417   130.8800     0.5050     0.2426
  411    8.200   2500.34     0.5265     0.0078     0.2212     0.0820     0.6178     1.4792   131.2000     0.4866     0.2784
  412    8.220   2501.36     0.5270     0.0084     0.2152     0.0822     0.6181     1.5978   131.5200     0.4866     0.2772
  413    8.240   2502.37     0.5330     0.0089     0.2087     0.0824     0.6221     1.6479   131.8400     0.4902     0.2644
  414    8.260   2503.37     0.5564     0.0096     0.2088     0.0826     0.6435     1.7776   132.1600     0.5114     0.2443
  415    8.280   2504.42     0.5625     0.0102     0.1835     0.0828     0.6436     1.8528   132.4800     0.5111     0.2163
  416    8.300   2505.38     0.5833     0.0105     0.1881     0.0830     0.6608     1.7890   132.8000     0.5280     0.1924
  417    8.320   2506.37     0.5642     0.0106     0.2123     0.0832     0.6497     1.8655   133.1200     0.5166     0.2335
  418    8.340   2512.31     0.5612     0.0101     0.2206     0.0834     0.6515     1.8040   133.4400     0.5180     0.2533
  419    8.360   2529.79     0.5740     0.0097     0.2370     0.0836     0.6711     1.7339   133.7600     0.5374     0.2737
  420    8.380   2547.28     0.5868     0.0087     0.2542     0.0838     0.6908     1.5381   134.0800     0.5567     0.2941
  421    8.400   2552.33     0.6024     0.0076     0.2689     0.0840     0.7141     1.2656   134.4000     0.5797     0.3142
  422    8.420   2553.36     0.5762     0.0072     0.2729     0.0842     0.6905     1.2351   134.7200     0.5557     0.3379
  423    8.440   2554.37     0.5849     0.0063     0.2748     0.0844     0.7016     1.0752   135.0400     0.5666     0.3416
  424    8.460   2555.31     0.5777     0.0059     0.2510     0.0846     0.6854     1.0179   135.3600     0.5500     0.3124
  425    8.480   2556.34     0.5242     0.0059     0.2307     0.0848     0.6234     1.0978   135.6800     0.4877     0.3114
  426    8.500   2557.34     0.4714     0.0054     0.1904     0.0850     0.5551     1.1498   136.0000     0.4191     0.2727
  427    8.520   2558.35     0.4581     0.0051     0.1766     0.0852     0.5342     1.1142   136.3200     0.3979     0.2415
  428    8.540   2559.35     0.4164     0.0056     0.1555     0.0854     0.4842     1.2968   136.6400     0.3475     0.2186
  429    8.560   2560.37     0.3736     0.0056     0.1471     0.0856     0.4346     1.4926   136.9600     0.2977     0.2012
  430    8.580   2561.36     0.3385     0.0054     0.1688     0.0858     0.4059     1.5810   137.2800     0.2687     0.2788
  431    8.600   2562.39     0.3024     0.0051     0.1888     0.0860     0.3800     1.6686   137.6000     0.2424     0.4082
  432    8.620   2563.39     0.3045     0.0047     0.1993     0.0862     0.3866     1.5325   137.9200     0.2487     0.4388
  433    8.640   2564.38     0.3233     0.0048     0.2102     0.0864     0.4102     1.4829   138.2400     0.2720     0.4436
  434    8.660   2565.38     0.3995     0.0044     0.2127     0.0866     0.4887     1.1427   138.5600     0.3501     0.3601
  435    8.680   2566.39     0.4589     0.0046     0.2099     0.0868     0.5475     0.9968   138.8800     0.4086     0.3042
  436    8.700   2567.40     0.4837     0.0048     0.2066     0.0870     0.5707     0.9979   139.2000     0.4315     0.2784
  437    8.720   2568.44     0.4601     0.0055     0.1963     0.0872     0.5444     1.1954   139.5200     0.4049     0.2805
  438    8.740   2569.42     0.4464     0.0060     0.1972     0.0874     0.5285     1.3381   139.8400     0.3886     0.2783
  439    8.760   2570.42     0.4509     0.0059     0.1955     0.0876     0.5341     1.3246   140.1600     0.3940     0.2807
  440    8.780   2571.39     0.4977     0.0052     0.1853     0.0878     0.5774     1.0570   140.4800     0.4369     0.2336
  441    8.800   2572.39     0.5260     0.0046     0.1830     0.0880     0.6018     0.8907   140.8000     0.4610     0.2007
  442    8.820   2573.41     0.5737     0.0058     0.1942     0.0882     0.6533     1.0280   141.1200     0.5122     0.1979
  443    8.840   2574.42     0.5739     0.0061     0.2028     0.0884     0.6585     1.0610   141.4400     0.5171     0.2188
  444    8.860   2575.42     0.4960     0.0060     0.2067     0.0886     0.5822     1.2054   141.7600     0.4404     0.2651
  445    8.880   2576.44     0.4446     0.0062     0.1982     0.0888     0.5288     1.3840   142.0800     0.3867     0.2887
  446    8.900   2577.41     0.4234     0.0065     0.1891     0.0890     0.5051     1.5220   142.4000     0.3627     0.2904
  447    8.920   2578.40     0.4614     0.0064     0.2023     0.0892     0.5425     1.4242   142.7200     0.3998     0.2598
  448    8.940   2579.42     0.4839     0.0066     0.2255     0.0894     0.5764     1.3824   143.0400     0.4334     0.3020
  449    8.960   2580.44     0.5049     0.0073     0.2295     0.0896     0.6010     1.4483   143.3600     0.4577     0.3045
  450    8.980   2581.43     0.4639     0.0080     0.2279     0.0898     0.5597     1.7042   143.6800     0.4160     0.3333
  451    9.000   2582.45     0.4333     0.0081     0.2312     0.0900     0.5304     1.8802   144.0000     0.3864     0.3659
  452    9.020   2583.43     0.3810     0.0083     0.2470     0.0902     0.4826     2.1574   144.3200     0.3383     0.4513
  453    9.040   2584.45     0.3733     0.0089     0.2393     0.0904     0.4732     2.4363   144.6400     0.3285     0.4499
  454    9.060   2585.44     0.3812     0.0083     0.2588     0.0906     0.4865     2.2034   144.9600     0.3415     0.4689
  455    9.080   2586.52     0.4196     0.0063     0.2727     0.0908     0.5333     1.5365   145.2800     0.3880     0.4641
  456    9.100   2587.49     0.4641     0.0040     0.2673     0.0910     0.5754     0.8696   145.6000     0.4298     0.4052
  457    9.120   2588.49     0.4622     0.0029     0.2760     0.0912     0.5765     0.6336   145.9200     0.4306     0.4202
  458    9.140   2589.49     0.5018     0.0023     0.3038     0.0914     0.6268     0.4519   146.2400     0.4806     0.4289
  459    9.160   2590.47     0.5226     0.0021     0.3080     0.0916     0.6530     0.4000   146.5600     0.5064     0.4319
  460    9.180   2591.50     0.5112     0.0036     0.2627     0.0918     0.6371     0.6953   146.8800     0.4902     0.4247
  461    9.200   2592.49     0.4265     0.0030     0.2064     0.0920     0.5155     0.6949   147.2000     0.3683     0.3258
  462    9.220   2593.49     0.3911     0.0025     0.1745     0.0922     0.4689     0.6507   147.5200     0.3214     0.2894
  463    9.240   2594.47     0.3658     0.0028     0.1461     0.0924     0.4308     0.7412   147.8400     0.2830     0.2197
  464    9.260   2595.48     0.4108     0.0033     0.1242     0.0926     0.4661     0.8090   148.1600     0.3179     0.1236
  465    9.280   2596.47     0.4143     0.0041     0.1226     0.0928     0.4652     0.9893   148.4800     0.3167     0.0892
  466    9.300   2597.48     0.3566     0.0045     0.1316     0.0930     0.4096     1.2455   148.8000     0.2608     0.1283
  467    9.320   2598.50     0.3687     0.0051     0.1441     0.0932     0.4278     1.3863   149.1200     0.2787     0.1705
  468    9.340   2599.47     0.4044     0.0059     0.1529     0.0934     0.4673     1.4697   149.4400     0.3178     0.1773
  469    9.360   2600.50     0.4514     0.0066     0.1553     0.0936     0.5173     1.4674   149.7600     0.3676     0.1724
  470    9.380   2601.46     0.4885     0.0067     0.1709     0.0938     0.5570     1.3854   150.0800     0.4069     0.1700
  471    9.400   2602.47     0.5263     0.0074     0.1790     0.0940     0.6013     1.4056   150.4000     0.4509     0.1873
  472    9.420   2603.50     0.6699     0.0084     0.1864     0.0942     0.7466     1.2902   150.7200     0.5959     0.1486
  473    9.440   2604.48     0.7259     0.0083     0.1838     0.0944     0.8045     1.1510   151.0400     0.6535     0.1418
  474    9.460   2605.47     0.7099     0.0090     0.1709     0.0946     0.7829     1.2656   151.3600     0.6315     0.1252
  475    9.480   2606.48     0.6774     0.0098     0.1797     0.0948     0.7507     1.4491   151.6800     0.5990     0.1328
  476    9.500   2607.51     0.6602     0.0099     0.2000     0.0950     0.7411     1.5015   152.0000     0.5891     0.1658
  477    9.520   2608.51     0.6306     0.0094     0.2097     0.0952     0.7187     1.4908   152.3200     0.5664     0.2022
  478    9.540   2609.51     0.6581     0.0075     0.2174     0.0954     0.7476     1.1538   152.6400     0.5950     0.1980
  479    9.560   2610.51     0.6728     0.0061     0.2299     0.0956     0.7684     0.9095   152.9600     0.6154     0.2142
  480    9.580   2611.56     0.6374     0.0059     0.2600     0.0958     0.7421     0.9240   153.2800     0.5889     0.2607
  481    9.600   2612.55     0.6537     0.0070     0.2762     0.0960     0.7688     1.0686   153.6000     0.6152     0.2896
  482    9.620   2613.56     0.6477     0.0088     0.2763     0.0962     0.7647     1.3563   153.9200     0.6108     0.2986
  483    9.640   2614.56     0.6296     0.0097     0.2245     0.0964     0.7371     1.5394   154.2400     0.5829     0.2735
  484    9.660   2615.57     0.5586     0.0104     0.1790     0.0966     0.6375     1.8577   154.5600     0.4830     0.1889
  485    9.680   2616.57     0.6032     0.0110     0.1666     0.0968     0.6738     1.8246   154.8800     0.5189     0.1375
  486    9.700   2617.57     0.6390     0.0116     0.1769     0.0970     0.7119     1.8178   155.2000     0.5567     0.1375
  487    9.720   2618.57     0.6522     0.0118     0.2168     0.0972     0.7363     1.8117   155.5200     0.5807     0.1772
  488    9.740   2619.62     0.6863     0.0119     0.2600     0.0974     0.7910     1.7386   155.8400     0.6352     0.2392
  489    9.760   2620.59     0.6899     0.0107     0.2965     0.0976     0.8095     1.5427   156.1600     0.6533     0.2865
  490    9.780   2621.59     0.6745     0.0108     0.3245     0.0978     0.8079     1.6021   156.4800     0.6514     0.3376
  491    9.800   2622.62     0.6665     0.0106     0.3454     0.0980     0.8083     1.5830   156.8000     0.6515     0.3680
  492    9.820   2623.59     0.6744     0.0114     0.3615     0.0982     0.8247     1.6946   157.1200     0.6676     0.3890
  493    9.840   2624.61     0.6977     0.0121     0.3644     0.0984     0.8512     1.7668   157.4400     0.6937     0.3849
  494    9.860   2625.63     0.7489     0.0119     0.3668     0.0986     0.9025     1.5966   157.7600     0.7448     0.3589
  495    9.880   2626.62     0.7870     0.0094     0.3632     0.0988     0.9414     1.2052   158.0800     0.7833     0.3434
  496    9.900   2627.61     0.8264     0.0107     0.3562     0.0990     0.9755     1.2987   158.4000     0.8171     0.3134
  497    9.920   2628.63     0.8376     0.0141     0.3565     0.0992     0.9857     1.6907   158.7200     0.8270     0.3063
  498    9.940   2629.63     0.8972     0.0201     0.3982     0.0994     1.0587     2.2863   159.0400     0.8996     0.3178
  499    9.960   2630.68     1.3362     0.0213     0.3991     0.0996     1.5043     1.6742   159.3600     1.3449     0.2240
  500    9.980   2631.66     1.6906     0.0211     0.2960     0.0998     1.8330     1.2793   159.6800     1.6734     0.1432
  501   10.000   2632.63     1.7432     0.0207     0.2544     0.1000     1.8482     1.1789   160.0000     1.6882     0.0889
  502   10.020   2633.66     1.5068     0.0216     0.2758     0.1002     1.6165     1.4202   160.3200     1.4562     0.1107
  503   10.040   2634.64     1.1903     0.0216     0.3545     0.1004     1.3341     1.6078   160.6400     1.1735     0.2064
  504   10.060   2635.67     1.0898     0.0230     0.3404     0.1006     1.2406     2.0584   160.9600     1.0796     0.2392
  505   10.080   2636.67     1.1023     0.0238     0.2709     0.1008     1.2275     2.1633   161.2800     1.0662     0.1849
  506   10.100   2637.67     1.1503     0.0212     0.2245     0.1010     1.2511     1.9117   161.6000     1.0895     0.1277
  507   10.120   2638.69     1.2737     0.0189     0.1741     0.1012     1.3548     1.5045   161.9200     1.1929     0.0772
  508   10.140   2639.69     1.4919     0.0157     0.1126     0.1014     1.5506     1.0751   162.2400     1.3884     0.0282
  509   10.160   2640.74     1.8937     0.0124     0.0390     0.1016     1.9184     0.6654   162.5600     1.7559    -0.0240
  510   10.180   2641.71     2.2506     0.0126     0.0101     0.1018     2.2592     0.5701   162.8800     2.0963    -0.0388
  511   10.200   2642.73     2.6071     0.0143     0.0098     0.1020     2.6108     0.5505   163.2000     2.4476    -0.0381
  512   10.220   2643.74     2.9295     0.0176     0.0166     0.1022     2.9353     0.6067   163.5200     2.7718    -0.0319
  513   10.240   2644.78     3.1886     0.0233     0.0153     0.1024     3.1957     0.7408   163.8400     3.0319    -0.0282
  514   10.260   2645.77     3.3436     0.0290     0.0169     0.1026     3.3500     0.8749   164.1600     3.1858    -0.0275
  515   10.280   2646.78     3.4752     0.0335     0.0238     0.1028     3.4839     0.9734   164.4800     3.3194    -0.0248
  516   10.300   2647.78     3.6027     0.0362     0.0365     0.1030     3.6162     1.0095   164.8000     3.4514    -0.0206
  517   10.320   2648.78     3.7301     0.0374     0.0438     0.1032     3.7473     1.0089   165.1200     3.5822    -0.0174
  518   10.340   2662.58     3.9528     0.0358     0.0628     0.1034     3.9765     0.9480   165.4400     3.8110    -0.0129
  519   10.360   2683.19     4.2232     0.0349     0.0818     0.1036     4.2548     0.9253   165.7600     4.0891    -0.0075
  520   10.380   2702.68     4.4976     0.0354     0.0806     0.1038     4.5360     0.9216   166.0800     4.3699    -0.0028
  521   10.400   2703.74     4.8631     0.0346     0.0258     0.1040     4.8826     0.7185   166.4000     4.7162    -0.0121
  522   10.420   2704.72     5.1367     0.0341    -0.0147     0.1042     5.1319     0.6674   166.7200     4.9652    -0.0233
  523   10.440   2705.75     5.3418     0.0385    -0.0238     0.1044     5.3335     0.7197   167.0400     5.1665    -0.0240
  524   10.460   2706.76     5.0857     0.0419    -0.0325     0.1046     5.0723     0.8213   167.3600     4.9050    -0.0278
  525   10.480   2707.74     4.5315     0.0452    -0.0261     0.1048     4.5193     0.9889   167.6800     4.3516    -0.0308
  526   10.500   2708.77     3.8549     0.0471    -0.0207     0.1050     3.8460     1.2133   168.0000     3.6780    -0.0343
  527   10.520   2709.76     3.3666     0.0496    -0.0124     0.1052     3.3598     1.4062   168.3200     3.1915    -0.0380
  528   10.540   2710.75     3.0560     0.0480     0.0044     0.1054     3.0554     1.5683   168.6400     2.8868    -0.0370
  529   10.560   2711.77     3.0454     0.0433     0.0368     0.1056     3.0552     1.4248   168.9600     2.8862    -0.0285
  530   10.580   2712.78     3.1488     0.0367     0.0628     0.1058     3.1736     1.1661   169.2800     3.0043    -0.0156
  531   10.600   2713.80     3.2734     0.0292     0.0013     0.1060     3.2870     0.9091   169.6000     3.1174    -0.0236
  532   10.620   2714.82     3.4892     0.0223    -0.0626     0.1062     3.4712     0.6428   169.9200     3.3013    -0.0452
  533   10.640   2715.81     3.5845     0.0153    -0.0831     0.1064     3.5523     0.4272   170.2400     3.3821    -0.0541
  534   10.660   2716.80     3.5759     0.0128    -0.0837     0.1066     3.5406     0.3571   170.5600     3.3701    -0.0565
  535   10.680   2717.85     3.5053     0.0147    -0.0807     0.1068     3.4707     0.4187   170.8800     3.2998    -0.0573
  536   10.700   2718.85     3.3968     0.0188    -0.0773     0.1070     3.3638     0.5526   171.2000     3.1926    -0.0581
  537   10.720   2719.88     3.2958     0.0241    -0.0755     0.1072     3.2639     0.7310   171.5200     3.0924    -0.0592
  538   10.740   2720.84     3.2112     0.0267    -0.0732     0.1074     3.1802     0.8294   171.8400     3.0084    -0.0602
  539   10.760   2721.84     3.1589     0.0286    -0.0670     0.1076     3.1294     0.9051   172.1600     2.9573    -0.0601
  540   10.780   2722.87     3.0801     0.0330    -0.0551     0.1078     3.0555     1.0681   172.4800     2.8830    -0.0577
  541   10.800   2723.87     2.9704     0.0371    -0.0443     0.1080     2.9502     1.2449   172.8000     2.7774    -0.0562
  542   10.820   2724.86     2.7490     0.0384    -0.0325     0.1082     2.7334     1.3841   173.1200     2.5603    -0.0568
  543   10.840   2725.88     2.4914     0.0335    -0.0204     0.1084     2.4809     1.3303   173.4400     2.3075    -0.0578
  544   10.860   2726.84     2.3145     0.0290    -0.0013     0.1086     2.3107     1.2453   173.7600     2.1369    -0.0551
  545   10.880   2727.85     2.2272     0.0269     0.0224     0.1088     2.2326     1.2053   174.0800     2.0585    -0.0466
  546   10.900   2728.88     2.2876     0.0217     0.0601     0.1090     2.3071     0.9512   174.4000     2.1327    -0.0294
  547   10.920   2729.89     2.5119     0.0175     0.0887     0.1092     2.5459     0.7247   174.7200     2.3712    -0.0121
  548   10.940   2730.92     3.0423     0.0149     0.1018     0.1094     3.0842     0.5009   175.0400     2.9092    -0.0034
  549   10.960   2731.91     3.6776     0.0162     0.0767     0.1096     3.7151     0.4826   175.3600     3.5397    -0.0056
  550   10.980   2732.88     4.0205     0.0183     0.0567     0.1098     4.0467     0.4666   175.6800     3.8710    -0.0123
  551   11.000   2733.92     4.2482     0.0206     0.0266     0.1100     4.2639     0.4871   176.0000     4.0879    -0.0177
  552   11.020   2734.95     4.5912     0.0233     0.0081     0.1102     4.5970     0.5167   176.3200     4.4206    -0.0218
  553   11.040   2735.97     4.8816     0.0269    -0.0147     0.1104     4.8784     0.5600   176.6400     4.7018    -0.0251
  554   11.060   2737.01     5.0223     0.0284    -0.0291     0.1106     5.0109     0.5682   176.9600     4.8340    -0.0285
  555   11.080   2738.00     4.8478     0.0307    -0.0301     0.1108     4.8355     0.6318   177.2800     4.6582    -0.0301
  556   11.100   2738.98     4.5009     0.0331    -0.0382     0.1110     4.4864     0.7317   177.6000     4.3088    -0.0338
  557   11.120   2740.02     4.0375     0.0357    -0.0555     0.1112     4.0169     0.8763   177.9200     3.8390    -0.0418
  558   11.140   2741.01     3.5938     0.0371    -0.0542     0.1114     3.5698     1.0181   178.2400     3.3916    -0.0497
  559   11.160   2742.04     3.1703     0.0442    -0.0469     0.1116     3.1493     1.3729   178.5600     2.9708    -0.0544
  560   11.180   2743.05     2.8404     0.0452    -0.0325     0.1118     2.8247     1.5641   178.8800     2.6459    -0.0564
  561   11.200   2744.00     2.5249     0.0468    -0.0249     0.1120     2.5124     1.8281   179.2000     2.3332    -0.0609
  562   11.220   2745.02     2.3575     0.0458     0.0006     0.1122     2.3541     1.9342   179.5200     2.1746    -0.0553
  563   11.240   2746.03     2.2289     0.0438     0.0158     0.1124     2.2355     1.9604   179.8400     2.0557    -0.0470
  564   11.260   2747.03     2.0993     0.0414     0.0142     0.1126     2.1040     1.9445   180.1600     1.9238    -0.0528
  565   11.280   2748.01     1.9332     0.0392     0.0297     0.1128     1.9425     2.0074   180.4800     1.7620    -0.0514
  566   11.300   2749.01     1.8999     0.0409     0.0443     0.1130     1.9181     2.1610   180.8000     1.7373    -0.0400
  567   11.320   2750.04     1.9033     0.0423     0.0596     0.1132     1.9242     2.2189   181.1200     1.7430    -0.0365
  568   11.340   2751.04     1.9177     0.0445     0.0896     0.1134     1.9516     2.3164   181.4400     1.7702    -0.0185
  569   11.360   2752.00     1.7985     0.0441     0.0886     0.1136     1.8348     2.4441   181.7600     1.6530    -0.0166
  570   11.380   2753.02     1.6478     0.0423     0.1122     0.1138     1.6923     2.5352   182.0800     1.5102    -0.0052
  571   11.400   2754.02     1.5687     0.0390     0.1352     0.1140     1.6235     2.4846   182.4000     1.4411     0.0114
  572   11.420   2755.06     1.7015     0.0363     0.1639     0.1142     1.7681     2.1744   182.7200     1.5854     0.0279
  573   11.440   2756.03     1.8273     0.0313     0.1906     0.1144     1.9028     1.7413   183.0400     1.7198     0.0380
  574   11.460   2757.01     1.8406     0.0281     0.2029     0.1146     1.9254     1.5237   183.3600     1.7420     0.0501
  575   11.480   2758.01     1.7881     0.0378     0.2084     0.1148     1.8735     2.1109   183.6800     1.6898     0.0524
  576   11.500   2759.01     2.0066     0.0393     0.2445     0.1150     2.1052     2.0029   184.0000     1.9212     0.0623
  577   11.520   2760.08     2.0805     0.0355     0.2406     0.1152     2.1867     1.7030   184.3200     2.0024     0.0687
  578   11.540   2761.07     2.0181     0.0367     0.2142     0.1154     2.1120     1.8075   184.6400     1.9274     0.0562
  579   11.560   2762.07     1.8102     0.0409     0.2646     0.1156     1.9053     2.2372   184.9600     1.7204     0.0645
  580   11.580   2763.07     1.6834     0.0480     0.3195     0.1158     1.8075     2.8498   185.2800     1.6223     0.1108
  581   11.600   2764.10     1.8318     0.0491     0.2947     0.1160     1.9681     2.7160   185.6000     1.7825     0.1170
  582   11.620   2765.10     2.0250     0.0426     0.2122     0.1162     2.1261     2.1208   185.9200     1.9402     0.0642
  583   11.640   2766.07     1.8107     0.0385     0.2015     0.1164     1.8970     2.0940   186.2400     1.7107     0.0520
  584   11.660   2767.08     1.5654     0.0378     0.2087     0.1166     1.6502     2.3826   186.5600     1.4637     0.0584
  585   11.680   2768.11     1.3475     0.0376     0.2797     0.1168     1.4533     2.7604   186.8800     1.2664     0.1068
  586   11.700   2769.13     1.2675     0.0300     0.3285     0.1170     1.4003     2.3685   187.2000     1.2131     0.1642
  587   11.720   2770.11     1.2764     0.0228     0.3427     0.1172     1.4171     1.7916   187.5200     1.2296     0.1771
  588   11.740   2771.08     1.2324     0.0188     0.3501     0.1174     1.3779     1.5219   187.8400     1.1900     0.1924
  589   11.760   2772.06     1.1939     0.0198     0.3765     0.1176     1.3459     1.6324   188.1600     1.1577     0.2111
  590   11.780   2773.11     1.1445     0.0224     0.4012     0.1178     1.3099     1.9569   188.4800     1.1214     0.2461
  591   11.800   2774.11     1.0827     0.0216     0.3912     0.1180     1.2498     1.9901   188.8000     1.0610     0.2639
  592   11.820   2775.12     1.0486     0.0219     0.3920     0.1182     1.2103     2.0929   189.1200     1.0212     0.2613
  593   11.840   2776.13     1.0549     0.0207     0.4010     0.1184     1.2227     1.9916   189.4400     1.0333     0.2723
  594   11.860   2777.09     1.2102     0.0211     0.4061     0.1186     1.3780     1.7546   189.7600     1.1882     0.2365
  595   11.880   2778.09     1.2925     0.0230     0.3982     0.1188     1.4636     1.7864   190.0800     1.2736     0.2267
  596   11.900   2779.09     1.1868     0.0245     0.3435     0.1190     1.3372     2.0539   190.4000     1.1468     0.2085
  597   11.920   2780.11     1.1756     0.0239     0.3629     0.1192     1.3209     2.0486   190.7200     1.1302     0.2006
  598   11.940   2781.12     1.2260     0.0228     0.3881     0.1194     1.3889     1.8658   191.0400     1.1979     0.2242
  599   11.960   2782.12     1.1882     0.0205     0.3876     0.1196     1.3538     1.7179   191.3600     1.1624     0.2363
  600   11.980   2783.14     1.1514     0.0188     0.3830     0.1198     1.3097     1.6276   191.6800     1.1180     0.2298
  601   12.000   2784.13     1.1481     0.0162     0.4082     0.1200     1.3173     1.4085   192.0000     1.1253     0.2515
  602   12.020   2785.10     1.1147     0.0161     0.4118     0.1202     1.2878     1.4112   192.3200     1.0955     0.2664
  603   12.040   2786.13     1.0859     0.0170     0.4033     0.1204     1.2576     1.5510   192.6400     1.0649     0.2708
  604   12.060   2787.18     1.0750     0.0185     0.3510     0.1206     1.2314     1.7115   192.9600     1.0385     0.2424
  605   12.080   2788.12     1.0022     0.0201     0.2970     0.1208     1.1361     1.9998   193.2800     0.9428     0.2099
  606   12.100   2789.15     0.9900     0.0187     0.2344     0.1210     1.0914     1.9015   193.6000     0.8978     0.1343
  607   12.120   2790.20     1.0435     0.0154     0.2322     0.1212     1.1416     1.4763   193.9200     0.9477     0.1186
  608   12.140   2791.20     0.9857     0.0143     0.2891     0.1214     1.1097     1.4575   194.2400     0.9155     0.1899
  609   12.160   2792.19     0.9946     0.0152     0.2708     0.1216     1.1133     1.5223   194.5600     0.9188     0.1754
  610   12.180   2793.19     0.9101     0.0157     0.2507     0.1218     1.0189     1.7054   194.8800     0.8240     0.1666
  611   12.200   2794.17     0.8305     0.0155     0.2147     0.1220     0.9253     1.7815   195.2000     0.7301     0.1423
  612   12.220   2795.19     0.7035     0.0174     0.1433     0.1222     0.7752     2.2983   195.5200     0.5797     0.0837
  613   12.240   2796.20     0.7400     0.0206     0.1448     0.1224     0.7977     2.7738   195.8400     0.6019     0.0251
  614   12.260   2797.21     0.7251     0.0230     0.1638     0.1226     0.7906     3.1554   196.1600     0.5944     0.0562
  615   12.280   2798.24     0.7578     0.0217     0.1970     0.1228     0.8358     2.9217   196.4800     0.6393     0.0981
  616   12.300   2799.23     0.8168     0.0218     0.2700     0.1230     0.9215     2.7396   196.8000     0.7247     0.1741
  617   12.320   2802.80     0.8522     0.0215     0.2374     0.1232     0.9598     2.5081   197.1200     0.7627     0.1723
  618   12.340   2825.34     0.7799     0.0226     0.1832     0.1234     0.8647     2.6253   197.4400     0.6673     0.1063
  619   12.360   2847.88     0.7076     0.0246     0.1684     0.1236     0.7696     2.8518   197.7600     0.5719     0.0403
  620   12.380   2850.60     0.7630     0.0267     0.2551     0.1238     0.8563     3.5321   198.0800     0.6582     0.1493
  621   12.400   2851.60     0.8771     0.0261     0.3345     0.1240     1.0155     3.0010   198.4000     0.8171     0.2512
  622   12.420   2852.60     1.0513     0.0274     0.3545     0.1242     1.1931     2.7202   198.7200     0.9943     0.2145
  623   12.440   2853.60     1.1012     0.0279     0.4349     0.1244     1.2663     2.5364   199.0400     1.0673     0.2518
  624   12.460   2854.60     1.1285     0.0293     0.4931     0.1246     1.3271     2.5975   199.3600     1.1278     0.3089
  625   12.480   2855.62     1.1116     0.0292     0.5567     0.1248     1.3376     2.6243   199.6800     1.1379     0.3633
  626   12.500   2856.61     1.1087     0.0304     0.5712     0.1250     1.3493     2.7383   200.0000     1.1493     0.3898
  627   12.520   2857.63     1.1386     0.0300     0.6137     0.1252     1.3838     2.6416   200.3200     1.1835     0.3876
  628   12.540   2858.66     1.1288     0.0264     0.6552     0.1254     1.3988     2.3374   200.6400     1.1982     0.4319
  629   12.560   2859.63     1.1748     0.0268     0.6981     0.1256     1.4596     2.2920   200.9600     1.2586     0.4389
  630   12.580   2860.61     1.2432     0.0326     0.7111     0.1258     1.5391     2.6953   201.2800     1.3378     0.4326
  631   12.600   2861.63     1.3361     0.0359     0.7431     0.1260     1.6378     2.6990   201.6000     1.4362     0.4124
  632   12.620   2862.63     1.4534     0.0294     0.7437     0.1262     1.7749     2.0387   201.9200     1.5729     0.4064
  633   12.640   2863.68     1.5940     0.0277     0.6546     0.1264     1.8790     1.7482   202.2400     1.6768     0.3294
  634   12.660   2864.66     1.6424     0.0424     0.6374     0.1266     1.9188     2.5883   202.5600     1.7162     0.3097
  635   12.680   2865.68     1.8182     0.0629     0.7589     0.1268     2.1168     3.5381   202.8800     1.9139     0.3059
  636   12.700   2866.69     2.4695     0.0646     0.8216     0.1270     2.8121     2.6770   203.2000     2.6089     0.2643
  637   12.720   2867.70     3.1123     0.0635     0.5599     0.1272     3.3695     2.0439   203.5200     3.1660     0.1533
  638   12.740   2868.68     2.8316     0.0633     0.3670     0.1274     2.9794     2.2149   203.8400     2.7755     0.0811
  639   12.760   2869.69     2.4275     0.0658     0.3814     0.1276     2.5961     2.6971   204.1600     2.3919     0.1144
  640   12.780   2870.73     2.1724     0.0698     0.5225     0.1278     2.3781     3.1917   204.4800     2.1736     0.1666
  641   12.800   2871.74     2.0674     0.0618     0.5501     0.1280     2.2903     2.9802   204.8000     2.0855     0.1931
  642   12.820   2872.74     1.9762     0.0512     0.5615     0.1282     2.2160     2.5703   205.1200     2.0108     0.2201
  643   12.840   2873.74     1.8583     0.0423     0.6169     0.1284     2.1194     2.2742   205.4400     1.9139     0.2577
  644   12.860   2874.73     1.8343     0.0338     0.6351     0.1286     2.1102     1.8450   205.7600     1.9044     0.2773
  645   12.880   2875.73     1.8766     0.0345     0.6382     0.1288     2.1405     1.8442   206.0800     1.9345     0.2583
  646   12.900   2876.73     1.8271     0.0491     0.6519     0.1290     2.0965     2.6125   206.4000     1.8901     0.2711
  647   12.920   2877.74     2.0254     0.0536     0.7074     0.1292     2.3235     2.6785   206.7200     2.1168     0.2749
  648   12.940   2878.76     2.4297     0.0564     0.6617     0.1294     2.7225     2.3498   207.0400     2.5154     0.2264
  649   12.960   2879.78     2.6811     0.0575     0.4164     0.1296     2.8986     2.1358   207.3600     2.6913     0.1437
  650   12.980   2880.75     2.4636     0.0574     0.3199     0.1298     2.6038     2.3060   207.6800     2.3962     0.0852
  651   13.000   2881.80     2.1272     0.0557     0.4245     0.1300     2.2876     2.5865   208.0000     2.0796     0.1216
  652   13.020   2882.82     1.9352     0.0558     0.5118     0.1302     2.1367     2.8684   208.3200     1.9284     0.1815
  653   13.040   2883.79     1.8234     0.0446     0.5714     0.1304     2.0565     2.3889   208.6400     1.8478     0.2298
  654   13.060   2884.81     1.7432     0.0379     0.6389     0.1306     2.0021     2.1372   208.9600     1.7931     0.2711
  655   13.080   2885.79     1.6686     0.0313     0.6949     0.1308     1.9526     1.8504   209.2800     1.7433     0.3128
  656   13.100   2886.81     1.6614     0.0290     0.7603     0.1310     1.9755     1.7486   209.6000     1.7659     0.3492
  657   13.120   2887.84     1.6621     0.0278     0.7713     0.1312     1.9851     1.6723   209.9200     1.7752     0.3593
  658   13.140   2888.87     1.6446     0.0291     0.8240     0.1314     1.9830     1.7693   210.2400     1.7727     0.3803
  659   13.160   2889.85     1.6689     0.0308     0.8560     0.1316     2.0256     1.8453   210.5600     1.8150     0.3954
  660   13.180   2890.90     1.7185     0.0358     0.8572     0.1318     2.0815     2.0991   210.8800     1.8706     0.3916
  661   13.200   2891.86     1.8203     0.0377     0.8104     0.1320     2.1668     2.0738   211.2000     1.9556     0.3544
  662   13.220   2892.87     1.8678     0.0397     0.7563     0.1322     2.1912     2.1285   211.5200     1.9796     0.3221
  663   13.240   2893.89     1.8595     0.0418     0.7155     0.1324     2.1666     2.2406   211.8400     1.9547     0.3063
  664   13.260   2894.88     1.7464     0.0428     0.6885     0.1326     2.0296     2.3884   212.1600     1.8174     0.2982
  665   13.280   2895.88     1.6742     0.0422     0.7598     0.1328     1.9866     2.5184   212.4800     1.7741     0.3444
  666   13.300   2896.88     1.6469     0.0405     0.7591     0.1330     1.9673     2.4596   212.8000     1.7545     0.3591
  667   13.320   2897.87     1.6056     0.0366     0.8143     0.1332     1.9375     2.2667   213.1200     1.7244     0.3812
  668   13.340   2898.90     1.5905     0.0374     0.8423     0.1334     1.9396     2.3525   213.4400     1.7262     0.4043
  669   13.360   2899.89     1.6286     0.0379     0.8438     0.1336     1.9864     2.3361   213.7600     1.7726     0.4052
  670   13.380   2900.87     1.6469     0.0341     0.7976     0.1338     1.9868     2.0778   214.0800     1.7727     0.3810
  671   13.400   2901.89     1.6356     0.0205     0.8313     0.1340     1.9795     1.2504   214.4000     1.7651     0.3880
  672   13.420   2902.91     1.6346     0.0301     0.8799     0.1342     1.9947     1.8444   214.7200     1.7799     0.4062
  673   13.440   2903.91     1.7348     0.0663     0.9476     0.1344     2.1239     3.8772   215.0400     1.9089     0.4154
  674   13.460   2904.91     2.6722     0.0840     0.9783     0.1346     3.0833     3.2761   215.3600     2.8679     0.2964
  675   13.480   2905.91     3.4601     0.0831     0.7737     0.1348     3.8370     2.4354   215.6800     3.6213     0.2111
  676   13.500   2906.91     3.5819     0.0794     0.1975     0.1350     3.7391     2.2070   216.0000     3.5231     0.0662
  677   13.520   2907.93     3.0230     0.0779     0.2528     0.1352     3.1109     2.5339   216.3200     2.8946     0.0265
  678   13.540   2908.92     2.5022     0.0800     0.3246     0.1354     2.6224     3.0394   216.6400     2.4057     0.0629
  679   13.560   2909.92     2.1163     0.0717     0.5043     0.1356     2.3034     3.3209   216.9600     2.0864     0.1487
  680   13.580   2910.93     2.0484     0.0472     0.6266     0.1358     2.3009     2.2967   217.2800     2.0836     0.2233
  681   13.600   2911.95     1.9962     0.0343     0.6535     0.1360     2.2619     1.7193   217.6000     2.0443     0.2430
  682   13.620   2912.98     1.9909     0.0328     0.6816     0.1362     2.2795     1.6483   217.9200     2.0616     0.2673
  683   13.640   2913.95     1.9221     0.0330     0.7044     0.1364     2.2096     1.6853   218.2400     1.9914     0.2754
  684   13.660   2914.97     1.8393     0.0331     0.7719     0.1366     2.1522     1.7957   218.5600     1.9336     0.3146
  685   13.680   2915.99     1.7782     0.0340     0.8389     0.1368     2.1248     1.9078   218.8800     1.9059     0.3612
  686   13.700   2917.00     1.7471     0.0335     0.8752     0.1370     2.1101     1.9127   219.2000     1.8909     0.3847
  687   13.720   2918.03     1.7532     0.0332     0.8767     0.1372     2.1230     1.9006   219.5200     1.9035     0.3904
  688   13.740   2919.00     1.7591     0.0333     0.8865     0.1374     2.1230     1.8935   219.8400     1.9032     0.3831
  689   13.760   2920.05     1.7626     0.0340     0.9263     0.1376     2.1427     1.9366   220.1600     1.9226     0.3992
  690   13.780   2921.00     1.7590     0.0334     0.9684     0.1378     2.1618     1.8974   220.4800     1.9414     0.4231
  691   13.800   2922.00     1.7849     0.0346     0.9772     0.1380     2.1959     1.9405   220.8000     1.9751     0.4256
  692   13.820   2923.05     1.7878     0.0377     0.9495     0.1382     2.1837     2.1053   221.1200     1.9626     0.4098
  693   13.840   2924.05     1.7993     0.0403     1.0035     0.1384     2.2143     2.2470   221.4400     1.9929     0.4264
  694   13.860   2925.03     1.8200     0.0414     1.0149     0.1386     2.2458     2.2722   221.7600     2.0241     0.4325
  695   13.880   2926.01     1.8612     0.0414     0.9818     0.1388     2.2793     2.2261   222.0800     2.0572     0.4164
  696   13.900   2927.03     1.8527     0.0404     0.9064     0.1390     2.2370     2.1745   222.4000     2.0146     0.3851
  697   13.920   2928.04     1.7888     0.0411     0.9561     0.1392     2.1828     2.2717   222.7200     1.9601     0.4076
  698   13.940   2929.09     1.7613     0.0429     1.0126     0.1394     2.1772     2.4276   223.0400     1.9542     0.4354
  699   13.960   2930.11     1.7317     0.0418     1.0409     0.1396     2.1688     2.4101   223.3600     1.9454     0.4632
  700   13.980   2931.09     1.7470     0.0414     1.0134     0.1398     2.1721     2.3683   223.6800     1.9484     0.4477
  701   14.000   2932.06     1.7334     0.0401     1.0223     0.1400     2.1671     2.3104   224.0000     1.9431     0.4595
  702   14.020   2933.10     1.7247     0.0373     1.0189     0.1402     2.1505     2.1542   224.3200     1.9262     0.4535
  703   14.040   2934.16     1.7098     0.0344     1.0411     0.1404     2.1442     2.0119   224.6400     1.9196     0.4657
  704   14.060   2935.09     1.6924     0.0352     1.0623     0.1406     2.1353     2.0643   224.9600     1.9103     0.4784
  705   14.080   2936.15     1.7131     0.0383     1.1200     0.1408     2.1758     2.2428   225.2800     1.9506     0.4927
  706   14.100   2937.15     1.8123     0.0386     1.1249     0.1410     2.2905     2.1341   225.6000     2.0649     0.4831
  707   14.120   2938.17     1.9258     0.0384     1.0452     0.1412     2.3796     1.9961   225.9200     2.1537     0.4362
  708   14.140   2939.18     1.9616     0.0404     0.8752     0.1414     2.3513     2.0556   226.2400     2.1250     0.3700
  709   14.160   2940.18     1.8692     0.0434     0.8081     0.1416     2.2335     2.2511   226.5600     2.0070     0.3615
  710   14.180   2941.21     1.8334     0.0462     0.9118     0.1418     2.2052     2.5253   226.8800     1.9783     0.3758
  711   14.200   2942.20     1.8527     0.0449     0.9507     0.1420     2.2441     2.4213   227.2000     2.0169     0.3916
  712   14.220   2943.19     1.8430     0.0483     0.9488     0.1422     2.2425     2.6244   227.5200     2.0150     0.4015
  713   14.240   2944.23     1.8461     0.0613     0.9879     0.1424     2.2558     3.3258   227.8400     2.0280     0.4108
  714   14.260   2945.23     1.8548     0.0739     1.0175     0.1426     2.2733     3.9940   228.1600     2.0451     0.4175
  715   14.280   2946.26     1.9588     0.0794     1.0202     0.1428     2.3904     4.1539   228.4800     2.1619     0.4094
  716   14.300   2947.27     2.0883     0.0782     1.0258     0.1430     2.5259     3.8361   228.8000     2.2971     0.3914
  717   14.320   2953.55     2.2324     0.0794     0.8253     0.1432     2.6119     3.5679   229.1200     2.3828     0.3187
  718   14.340   2991.75     2.2913     0.0790     0.5981     0.1434     2.5754     3.5530   229.4400     2.3460     0.2250
  719   14.360   3029.95     2.3502     0.0761     0.3876     0.1436     2.5389     3.3510   229.7600     2.3092     0.1314
  720   14.380   3042.31     2.1785     0.0666     0.5560     0.1438     2.3899     2.9274   230.0800     2.1598     0.1668
  721   14.400   3043.33     2.0231     0.0558     0.6706     0.1440     2.2918     2.6808   230.4000     2.0614     0.2405
  722   14.420   3044.29     1.9565     0.0481     0.7754     0.1442     2.2632     2.4174   230.7200     2.0325     0.2883
  723   14.440   3045.35     1.9799     0.0462     0.8209     0.1444     2.3189     2.3526   231.0400     2.0879     0.3174
  724   14.460   3046.37     2.0600     0.0436     0.8367     0.1446     2.4066     2.1177   231.3600     2.1752     0.3128
  725   14.480   3047.41     1.9561     0.0406     0.8363     0.1448     2.3147     2.0678   231.6800     2.0830     0.3403
  726   14.500   3048.40     1.8444     0.0395     0.8716     0.1450     2.2005     2.1005   232.0000     1.9685     0.3572
  727   14.520   3049.41     1.7849     0.0433     0.8980     0.1452     2.1566     2.4033   232.3200     1.9243     0.3844
  728   14.540   3050.42     1.7445     0.0369     0.9738     0.1454     2.1450     2.0985   232.6400     1.9124     0.4227
  729   14.560   3051.42     1.7751     0.0342     0.9934     0.1456     2.1935     1.9495   232.9600     1.9606     0.4339
  730   14.580   3052.42     1.8577     0.0337     0.9771     0.1458     2.2689     1.8392   233.2800     2.0356     0.4093
  731   14.600   3053.47     1.9055     0.0361     0.9509     0.1460     2.3135     1.9048   233.6000     2.0799     0.3969
  732   14.620   3054.49     1.9313     0.0370     0.9980     0.1462     2.3378     1.9071   233.9200     2.1039     0.3905
  733   14.640   3055.54     1.9591     0.0382     1.0101     0.1464     2.3830     1.9399   234.2400     2.1488     0.4017
  734   14.660   3056.51     2.0022     0.0394     0.9600     0.1466     2.4123     1.9727   234.5600     2.1778     0.3811
  735   14.680   3057.52     2.0435     0.0437     0.9590     0.1468     2.4517     2.1479   234.8800     2.2168     0.3722
  736   14.700   3058.54     2.0339     0.0494     1.0034     0.1470     2.4432     2.4182   235.2000     2.2080     0.3748
  737   14.720   3059.55     2.0725     0.0526     0.9925     0.1472     2.4999     2.5651   235.5200     2.2644     0.3844
  738   14.740   3062.31     2.0694     0.0825     0.9021     0.1474     2.4613     3.9680   235.8400     2.2255     0.3519
  739   14.760   3065.22     2.0595     0.0981     0.8117     0.1476     2.4135     4.7432   236.1600     2.1773     0.3181
  740   14.780   3067.80     2.0210     0.0984     0.8676     0.1478     2.3577     4.7900   236.4800     2.1212     0.3085
  741   14.800   3068.84     1.9229     0.0970     0.9446     0.1480     2.3174     5.0132   236.8000     2.0806     0.3803
  742   14.820   3069.85     1.9222     0.0927     0.9863     0.1482     2.3284     4.8012   237.1200     2.0913     0.3916
  743   14.840   3223.15     1.9437     0.0950     0.5894     0.1484     2.2970     4.9947   237.4400     2.0596     0.3333
  744   14.860   3718.78     2.1577     0.0911     0.3236     0.1486     2.2917     4.4896   237.7600     2.0539     0.0832
  745   14.880   3766.56     2.4192     0.0840     0.3369     0.1488     2.5588     4.0313   238.0800     2.3207     0.0795
  746   14.900   3798.86     2.5013     0.0815     0.3973     0.1490     2.6643     3.1729   238.4000     2.4259     0.0986
  747   14.920   3799.90     2.3288     0.0795     0.4508     0.1492     2.5172     3.3428   238.7200     2.2785     0.1315
  748   14.940   3800.92     2.4522     0.0683     0.5955     0.1494     2.6702     2.7938   239.0400     2.4311     0.1520
  749   14.960   3801.91     2.3145     0.0564     0.5753     0.1496     2.5819     2.4220   239.3600     2.3425     0.2079
  750   14.980   3803.01     2.4469     0.0526     0.5481     0.1498     2.6873     2.1467   239.6800     2.4476     0.1726
  751   15.000   3804.05     2.2378     0.0665     0.6306     0.1500     2.4980     2.8409   240.0000     2.2580     0.2080
  752   15.020   3805.03     2.3457     0.0679     0.7678     0.1502     2.6608     3.0136   240.3200     2.4205     0.2479
  753   15.040   3806.07     2.5914     0.0677     0.6310     0.1504     2.8915     2.7550   240.6400     2.6509     0.2135
  754   15.060   3807.06     2.7188     0.0602     0.4851     0.1506     2.9561     2.2031   240.9600     2.7151     0.1523
  755   15.080   3808.11     2.4105     0.0582     0.5177     0.1508     2.6255     2.2513   241.2800     2.3842     0.1516
  756   15.100   3809.17     2.0747     0.0583     0.6842     0.1510     2.3383     2.6788   241.6000     2.0967     0.2277
  757   15.120   3810.17     2.0146     0.0571     0.6781     0.1512     2.2985     2.8319   241.9200     2.0566     0.2551
  758   15.140   3811.19     1.9382     0.0401     0.7014     0.1514     2.2245     2.0622   242.2400     1.9823     0.2676
  759   15.160   3812.22     1.8634     0.0371     0.8149     0.1516     2.1897     1.9738   242.5600     1.9471     0.3212
  760   15.180   3813.22     1.8504     0.0394     0.8411     0.1518     2.2095     2.1388   242.8800     1.9666     0.3576
  761   15.200   3814.28     1.8994     0.0405     0.7886     0.1520     2.2298     2.1306   243.2000     1.9866     0.3194
  762   15.220   3815.23     1.8453     0.0368     0.7935     0.1522     2.1797     1.9603   243.5200     1.9362     0.3327
  763   15.240   3816.23     1.7971     0.0350     0.8241     0.1524     2.1446     1.9467   243.8400     1.9007     0.3551
  764   15.260   3817.28     1.7418     0.0383     0.8563     0.1526     2.0927     2.1933   244.1600     1.8486     0.3695
  765   15.280   3818.30     1.6562     0.0392     0.9273     0.1528     2.0318     2.3376   244.4800     1.7873     0.4149
  766   15.300   3819.32     1.6888     0.0410     0.9941     0.1530     2.1033     2.4337   244.8000     1.8585     0.4487
  767   15.320   3820.27     1.8081     0.0415     0.9105     0.1532     2.2115     2.3335   245.1200     1.9664     0.4108
  768   15.340   3821.30     1.8458     0.0380     0.8333     0.1534     2.1947     2.0557   245.4400     1.9493     0.3474
  769   15.360   3822.30     1.7940     0.0361     0.8474     0.1536     2.1396     2.0139   245.7600     1.8938     0.3534
  770   15.380   3823.37     1.7492     0.0429     0.9633     0.1538     2.1439     2.4557   246.0800     1.8978     0.4141
  771   15.400   3824.39     1.8398     0.0542     1.0054     0.1540     2.2573     3.0269   246.4000     2.0109     0.4177
  772   15.420   3825.38     2.0194     0.0448     1.0341     0.1542     2.4545     2.3329   246.7200     2.2078     0.3994
  773   15.440   3826.33     2.2097     0.0348     0.9478     0.1544     2.6284     1.6522   247.0400     2.3814     0.3540
  774   15.460   3827.36     2.3593     0.0371     0.7318     0.1546     2.7035     1.5992   247.3600     2.4562     0.2707
  775   15.480   3828.36     2.3689     0.0437     0.6315     0.1548     2.6228     1.8528   247.6800     2.3752     0.1893
  776   15.500   3829.43     2.9080     0.0577     0.8506     0.1550     3.2398     2.2875   248.0000     2.9918     0.2126
  777   15.520   3830.47     4.7676     0.0953     0.7391     0.1552     5.1327     2.5697   248.3200     4.8844     0.1472
  778   15.540   3831.52     7.0354     0.1191     0.2816     0.1554     7.2430     1.6966   248.6400     6.9944     0.0485
  779   15.560   3832.55     6.5470     0.1162     0.0878     0.1556     6.6028     1.7514   248.9600     6.3538    -0.0038
  780   15.580   3833.57     4.9243     0.1140     0.1365     0.1558     4.9762     2.2667   249.2800     4.7269    -0.0067
  781   15.600   3834.57     3.8466     0.1112     0.2602     0.1560     3.9225     2.8588   249.6000     3.6729     0.0074
  782   15.620   3835.57     2.9886     0.0976     0.4186     0.1562     3.1649     2.8780   249.9200     2.9150     0.0906
  783   15.640   3836.54     2.3912     0.0848     0.5993     0.1564     2.5916     3.1728   250.2400     2.3413     0.1382
  784   15.660   3837.56     2.1308     0.0629     0.7977     0.1566     2.4456     2.8623   250.5600     2.1950     0.2702
  785   15.680   3838.62     2.0656     0.0447     0.8777     0.1568     2.4278     2.1579   250.8800     2.1769     0.3241
  786   15.700   3839.63     2.0516     0.0369     0.8767     0.1570     2.4239     1.7974   251.2000     2.1727     0.3357
  787   15.720   3840.69     2.0806     0.0345     0.9023     0.1572     2.4472     1.6629   251.5200     2.1957     0.3259
  788   15.740   3841.68     2.2344     0.0339     0.9179     0.1574     2.6234     1.5241   251.8400     2.3716     0.3244
  789   15.760   3842.70     2.2064     0.0355     0.7299     0.1576     2.5406     1.6015   252.1600     2.2885     0.2781
  790   15.780   3843.70     2.1234     0.0379     0.8343     0.1578     2.4550     1.7758   252.4800     2.2025     0.2867
  791   15.800   3844.70     2.0471     0.0386     0.9033     0.1580     2.4167     1.8794   252.8000     2.1639     0.3339
  792   15.820   3845.76     1.9864     0.0367     0.9159     0.1582     2.3735     1.8442   253.1200     2.1204     0.3601
  793   15.840   3846.73     1.9625     0.0352     0.8772     0.1584     2.3313     1.7836   253.4400     2.0779     0.3463
  794   15.860   3847.74     1.9369     0.0331     0.9186     0.1586     2.3165     1.7089   253.7600     2.0628     0.3612
  795   15.880   3848.73     1.8829     0.0334     0.9980     0.1588     2.2950     1.7622   254.0800     2.0409     0.4030
  796   15.900   3849.76     1.8950     0.0338     0.9991     0.1590     2.3155     1.7872   254.4000     2.0611     0.4086
  797   15.920   3850.82     1.8612     0.0303     1.0245     0.1592     2.2842     1.6232   254.7200     2.0294     0.4178
  798   15.940   3851.78     1.8282     0.0287     1.1117     0.1594     2.2872     1.5712   255.0400     2.0322     0.4593
  799   15.960   3852.82     1.8835     0.0320     1.0319     0.1596     2.3360     1.7142   255.3600     2.0807     0.4412
  800   15.980   3853.84     1.9107     0.0328     0.9851     0.1598     2.3252     1.7186   255.6800     2.0696     0.3997
  801   16.000   3854.83     1.9389     0.0371     0.9602     0.1600     2.3402     1.9240   256.0000     2.0842     0.3817
  802   16.020   3855.84     2.0027     0.0422     0.9908     0.1602     2.4221     2.1440   256.3200     2.1658     0.3871
  803   16.040   3856.85     2.1014     0.0420     0.9350     0.1604     2.5068     2.0233   256.6400     2.2501     0.3577
  804   16.060   3857.86     2.0452     0.0423     0.9316     0.1606     2.4321     2.0287   256.9600     2.1752     0.3497
  805   16.080   3858.96     1.9944     0.0452     0.9523     0.1608     2.4010     2.2619   257.2800     2.1438     0.3766
  806   16.100   3859.91     1.9787     0.0465     1.0050     0.1610     2.3873     2.3578   257.6000     2.1297     0.3811
  807   16.120   3860.93     2.0108     0.0422     1.0261     0.1612     2.4441     2.1025   257.9200     2.1861     0.3982
  808   16.140   3861.97     2.0946     0.0397     0.9509     0.1614     2.5080     1.9081   258.2400     2.2498     0.3658
  809   16.160   3862.97     2.1380     0.0397     0.8685     0.1616     2.5109     1.8549   258.5600     2.2524     0.3225
  810   16.180   3863.97     2.0411     0.0409     0.8535     0.1618     2.4050     1.9993   258.8800     2.1461     0.3283
  811   16.200   3865.00     1.9854     0.0422     0.8725     0.1620     2.3402     2.0826   259.2000     2.0810     0.3282
  812   16.220   3866.00     1.8739     0.0422     0.9344     0.1622     2.2567     2.2257   259.5200     1.9971     0.3752
  813   16.240   3867.00     1.8441     0.0447     0.9682     0.1624     2.2435     2.4046   259.8400     1.9837     0.3975
  814   16.260   3868.01     1.8924     0.0471     1.0235     0.1626     2.3218     2.5542   260.1600     2.0616     0.4170
  815   16.280   3869.01     2.0042     0.0528     0.9778     0.1628     2.4301     2.6874   260.4800     2.1696     0.3925
  816   16.300   3870.08     2.0678     0.0544     0.9799     0.1630     2.4642     2.6273   260.8000     2.2034     0.3543
  817   16.320   3872.99     2.0772     0.0562     0.9195     0.1632     2.5029     2.7359   261.1200     2.2418     0.3805
  818   16.340   3894.72     2.2894     0.0594     0.6464     0.1634     2.6004     2.8850   261.4400     2.3390     0.2540
  819   16.360   3916.44     2.5016     0.0623     0.4090     0.1636     2.6979     3.0262   261.7600     2.4361     0.1274
  820   16.380   3922.77     2.3200     0.0571     0.5730     0.1638     2.5330     2.3015   262.0800     2.2709     0.1521
  821   16.400   3923.77     2.0268     0.0555     0.6883     0.1640     2.3005     2.5996   262.4000     2.0381     0.2394
  822   16.420   3924.85     1.8667     0.0490     0.8325     0.1642     2.2016     2.5816   262.7200     1.9389     0.3267
  823   16.440   3925.84     1.8120     0.0401     0.9156     0.1644     2.1839     2.1875   263.0400     1.9208     0.3754
  824   16.460   3926.83     1.7864     0.0364     0.9860     0.1646     2.1900     2.0224   263.3600     1.9266     0.4134
  825   16.480   3927.89     1.7998     0.0340     1.0237     0.1648     2.2269     1.8930   263.6800     1.9632     0.4340
  826   16.500   3928.89     1.8300     0.0338     1.0289     0.1650     2.2625     1.8517   264.0000     1.9985     0.4327
  827   16.520   3929.93     1.8441     0.0337     1.0434     0.1652     2.2747     1.8422   264.3200     2.0104     0.4279
  828   16.540   3930.95     1.8448     0.0353     1.0667     0.1654     2.2943     1.9119   264.6400     2.0296     0.4458
  829   16.560   3931.93     1.8220     0.0371     1.0641     0.1656     2.2667     2.0194   264.9600     2.0017     0.4462
  830   16.580   3932.95     1.8469     0.0385     1.0668     0.1658     2.2895     2.0958   265.2800     2.0242     0.4387
  831   16.600   3933.96     1.8350     0.0369     1.0571     0.1660     2.2777     2.0081   265.6000     2.0121     0.4413
  832   16.620   3934.99     1.7726     0.0347     1.0507     0.1662     2.2222     1.9535   265.9200     1.9563     0.4622
  833   16.640   3936.01     1.7230     0.0356     1.0770     0.1664     2.1749     2.0622   266.2400     1.9086     0.4765
  834   16.660   3937.04     1.7211     0.0343     1.0987     0.1666     2.1792     1.9946   266.5600     1.9126     0.4832
  835   16.680   3938.05     1.7312     0.0334     1.1309     0.1668     2.2014     1.9315   266.8800     1.9345     0.4925
  836   16.700   3939.06     1.7851     0.0351     1.0976     0.1670     2.2519     1.9825   267.2000     1.9847     0.4759
  837   16.720   3940.05     1.8545     0.0384     1.0440     0.1672     2.3002     2.0927   267.5200     2.0327     0.4399
  838   16.740   3941.05     1.9144     0.0381     1.0476     0.1674     2.3513     2.0241   267.8400     2.0835     0.4190
  839   16.760   3942.09     1.9623     0.0422     0.9894     0.1676     2.3908     2.1566   268.1600     2.1226     0.4017
  840   16.780   3943.07     2.0321     0.0436     0.9472     0.1678     2.4331     2.1448   268.4800     2.1646     0.3635
  841   16.800   3944.10     2.0165     0.0441     0.9458     0.1680     2.4089     2.1834   268.8000     2.1401     0.3580
  842   16.820   3945.13     2.0012     0.0437     0.9189     0.1682     2.3947     2.1889   269.1200     2.1256     0.3617
  843   16.840   3946.12     2.0752     0.0447     0.9213     0.1684     2.4675     2.1628   269.4400     2.1980     0.3483
  844   16.860   3947.16     2.0836     0.0450     0.8920     0.1686     2.4607     2.1556   269.7600     2.1909     0.3328
  845   16.880   3948.13     2.1286     0.0458     0.9543     0.1688     2.5209     2.1925   270.0800     2.2508     0.3400
  846   16.900   3949.13     2.2947     0.0428     0.9333     0.1690     2.6884     1.9416   270.4000     2.4180     0.3179
  847   16.920   3950.18     2.6399     0.0396     0.8010     0.1692     3.0024     1.6168   270.7200     2.7317     0.2546
  848   16.940   3951.19     2.9345     0.0549     0.6888     0.1694     3.2252     1.9594   271.0400     2.9542     0.1771
  849   16.960   3952.23     4.0339     0.0866     0.6850     0.1696     4.3262     2.4896   271.3600     4.0548     0.1321
  850   16.980   3953.24     6.4287     0.1263     0.5625     0.1698     6.6834     2.1896   271.6800     6.4117     0.0694
  851   17.000   3954.29     7.3468     0.1372     0.1511     0.1700     7.4827     1.8527   272.0000     7.2107     0.0206
  852   17.020   3955.29     5.8041     0.1236     0.0179     0.1702     5.8157     1.8706   272.3200     5.5434    -0.0259
  853   17.040   3956.30     4.3527     0.1094     0.0467     0.1704     4.3567     2.2130   272.6400     4.0840    -0.0395
  854   17.060   3957.33     3.5284     0.1063     0.2513     0.1706     3.6102     2.7687   272.9600     3.3373     0.0079
  855   17.080   3958.37     2.8541     0.0905     0.3065     0.1708     2.9844     2.8398   273.2800     2.7111     0.0517
  856   17.100   3959.40     2.3218     0.0696     0.5389     0.1710     2.4793     2.9123   273.6000     2.2057     0.0927
  857   17.120   3960.37     2.1880     0.0478     0.7838     0.1712     2.5029     2.1765   273.9200     2.2290     0.2596
  858   17.140   3961.45     2.1850     0.0325     0.8422     0.1714     2.5242     1.4876   274.2400     2.2500     0.2828
  859   17.160   3962.41     2.1600     0.0308     0.9828     0.1716     2.5579     1.4292   274.5600     2.2834     0.3398
  860   17.180   3963.46     2.2936     0.0325     0.9384     0.1718     2.7067     1.4609   274.8800     2.4318     0.3338
  861   17.200   3964.46     2.4583     0.0329     0.8426     0.1720     2.8165     1.3751   275.2000     2.5413     0.2679
  862   17.220   3965.46     2.4066     0.0350     0.8506     0.1722     2.7589     1.4417   275.5200     2.4834     0.2684
  863   17.240   3966.50     2.4167     0.0394     0.8311     0.1724     2.7620     1.6270   275.8400     2.4861     0.2613
  864   17.260   3967.49     2.3180     0.0458     0.8562     0.1726     2.6808     1.9626   276.1600     2.4046     0.2875
  865   17.280   3968.53     2.3858     0.0573     0.8916     0.1728     2.7527     2.4099   276.4800     2.4762     0.2829
  866   17.300   3969.53     2.7901     0.0615     0.8567     0.1730     3.1630     2.4495   276.8000     2.8862     0.2480
  867   17.320   3970.57     3.0757     0.0625     0.7304     0.1732     3.4010     2.0388   277.1200     3.1238     0.1926
  868   17.340   3971.57     3.1078     0.0656     0.6501     0.1734     3.3922     2.0869   277.4400     3.1147     0.1616
  869   17.360   3972.61     2.7289     0.0678     0.6913     0.1736     2.9978     2.3679   277.7600     2.7201     0.1724
  870   17.380   3973.62     2.3500     0.0669     0.7037     0.1738     2.6367     2.7913   278.0800     2.3586     0.2160
  871   17.400   3974.60     2.1656     0.0602     0.8655     0.1740     2.5165     2.7695   278.4000     2.2381     0.2955
  872   17.420   3975.63     2.0801     0.0485     0.9511     0.1742     2.4647     2.3266   278.7200     2.1860     0.3393
  873   17.440   3976.64     1.9938     0.0369     1.0095     0.1744     2.4078     1.8467   279.0400     2.1287     0.3812
  874   17.460   3977.68     1.9402     0.0343     1.0791     0.1746     2.3834     1.7662   279.3600     2.1041     0.4185
  875   17.480   3978.69     1.9518     0.0395     1.1371     0.1748     2.4212     2.0324   279.6800     2.1415     0.4403
  876   17.500   3979.69     2.1072     0.0410     1.1390     0.1750     2.5888     1.9624   280.0000     2.3088     0.4210
  877   17.520   3980.66     2.2261     0.0426     1.0131     0.1752     2.6800     1.9465   280.3200     2.3997     0.3773
  878   17.540   3981.68     2.3114     0.0429     0.9018     0.1754     2.6974     1.8867   280.6400     2.4168     0.3077
  879   17.560   3982.72     2.2261     0.0405     0.8440     0.1756     2.5830     1.8095   280.9600     2.3021     0.2929
  880   17.580   3983.74     2.0434     0.0406     0.9247     0.1758     2.4192     1.9792   281.2800     2.1379     0.3364
  881   17.600   3984.74     2.0508     0.0457     0.9746     0.1760     2.4525     2.2317   281.6000     2.1709     0.3595
  882   17.620   3985.75     2.0504     0.0422     1.0741     0.1762     2.4870     2.0651   281.9200     2.2051     0.3914
  883   17.640   3986.77     2.1462     0.0394     1.1517     0.1764     2.6231     1.8424   282.2400     2.3409     0.4097
  884   17.660   3987.79     2.3004     0.0431     0.9791     0.1766     2.7457     1.8831   282.5600     2.4631     0.3590
  885   17.680   3988.77     2.2454     0.0454     0.8270     0.1768     2.6119     2.0123   282.8800     2.3290     0.2985
  886   17.700   3989.77     2.0813     0.0457     0.8608     0.1770     2.4257     2.1816   283.2000     2.1425     0.3003
  887   17.720   3990.79     1.9278     0.0489     0.9431     0.1772     2.3194     2.5333   283.5200     2.0359     0.3710
  888   17.740   3991.80     1.9304     0.0429     0.9105     0.1774     2.3186     2.2270   283.8400     2.0347     0.3670
  889   17.760   3992.83     1.9045     0.0385     0.9109     0.1776     2.2760     1.9854   284.1600     1.9919     0.3550
  890   17.780   3993.85     1.8536     0.0414     1.0010     0.1778     2.2635     2.2177   284.4800     1.9791     0.4034
  891   17.800   3994.85     1.9601     0.0408     1.0134     0.1780     2.3905     2.1164   284.8000     2.1057     0.4021
  892   17.820   3995.85     2.0188     0.0365     0.9697     0.1782     2.4286     1.8245   285.1200     2.1435     0.3720
  893   17.840   3996.85     1.9451     0.0359     0.9406     0.1784     2.3453     1.8075   285.4400     2.0598     0.3760
  894   17.860   3997.89     1.8617     0.0373     0.9820     0.1786     2.2501     1.9892   285.7600     1.9643     0.3799
  895   17.880   3998.93     1.8669     0.0389     1.0824     0.1788     2.3124     2.0978   286.0800     2.0263     0.4352
  896   17.900   3999.90     2.0546     0.0372     1.0956     0.1790     2.5170     1.9044   286.4000     2.2306     0.4134
  897   17.920   4000.96     2.3116     0.0347     1.0149     0.1792     2.7552     1.5087   286.7200     2.4685     0.3554
  898   17.940   4001.93     2.2827     0.0329     0.9510     0.1794     2.6849     1.4390   287.0400     2.3979     0.3246
  899   17.960   4002.96     2.2189     0.0313     0.9769     0.1796     2.6225     1.3931   287.3600     2.3352     0.3346
  900   17.980   4003.94     2.1770     0.0325     1.0134     0.1798     2.5985     1.4889   287.6800     2.3108     0.3565
  901   18.000   4004.94     2.0612     0.0319     1.0545     0.1800     2.5016     1.5001   288.0000     2.2136     0.3924
  902   18.020   4005.99     2.0147     0.0326     1.0815     0.1802     2.4676     1.6212   288.3200     2.1793     0.4121
  903   18.040   4006.99     2.1384     0.0349     1.0533     0.1804     2.5897     1.6371   288.6400     2.3010     0.3887
  904   18.060   4008.00     2.2819     0.0340     0.9257     0.1806     2.6814     1.5298   288.9600     2.3924     0.3221
  905   18.080   4009.04     2.2941     0.0350     0.9645     0.1808     2.6988     1.5182   289.2800     2.4095     0.3249
  906   18.100   4010.03     2.3115     0.0357     0.9598     0.1810     2.7150     1.5360   289.6000     2.4254     0.3214
  907   18.120   4011.05     2.1719     0.0357     0.9427     0.1812     2.5651     1.6327   289.9200     2.2752     0.3319
  908   18.140   4012.10     2.0002     0.0385     1.0211     0.1814     2.4168     1.8492   290.2400     2.1266     0.3814
  909   18.160   4013.09     1.9031     0.0369     1.0589     0.1816     2.3364     1.9243   290.5600     2.0459     0.4156
  910   18.180   4014.11     1.9103     0.0338     1.0983     0.1818     2.3694     1.7778   290.8800     2.0786     0.4385
  911   18.200   4015.14     1.9881     0.0293     1.0833     0.1820     2.4482     1.5067   291.2000     2.1570     0.4236
  912   18.220   4016.13     2.1580     0.0451     1.0015     0.1822     2.5806     2.0621   291.5200     2.2891     0.3601
  913   18.240   4017.19     2.4732     0.0634     0.9607     0.1824     2.8886     2.7229   291.8400     2.5968     0.3115
  914   18.260   4018.25     3.3889     0.0940     0.7949     0.1826     3.7493     3.1384   292.1600     3.4571     0.1980
  915   18.280   4019.30     4.8298     0.1222     0.4447     0.1828     5.0686     3.0045   292.4800     4.7762     0.0825
  916   18.300   4020.34     9.4721     0.1068     0.1484     0.1830     9.5987     1.4962   292.8000     9.3059     0.0131
  917   18.320   4031.17    10.8965     0.0975    -0.0356     0.1832    10.8981     0.8918   293.1200    10.6050    -0.0170
  918   18.340   4052.43    10.8108     0.0897    -0.1506     0.1834    10.7642     0.8202   293.4400    10.4707    -0.0282
  919   18.360   4065.86    10.5599     0.1074    -0.0995     0.1836    10.4982     0.9978   293.7600    10.2044    -0.0324
  920   18.380   4066.88     8.9021     0.1147    -0.1403     0.1838     8.8739     1.1598   294.0800     8.5798    -0.0293
  921   18.400   4067.98     7.4624     0.1081    -0.1966     0.1840     7.3854     1.3521   294.4000     7.0910    -0.0518
  922   18.420   4068.98     6.4444     0.1102    -0.1661     0.1842     6.3753     1.5760   294.7200     6.0806    -0.0574
  923   18.440   4069.97     5.6269     0.0917    -0.0930     0.1844     5.5703     1.5429   295.0400     5.2752    -0.0605
  924   18.460   4070.99     5.0839     0.0964     0.0078     0.1846     5.0782     1.8202   295.3600     4.7828    -0.0414
  925   18.480   4072.04     4.8553     0.1107     0.0320     0.1848     4.8563     2.2520   295.6800     4.5606    -0.0400
  926   18.500   4073.10     4.6495     0.1150     0.1022     0.1850     4.6819     2.4099   296.0000     4.3859    -0.0245
  927   18.520   4074.11     4.3257     0.1044     0.0375     0.1852     4.3456     2.3423   296.3200     4.0493    -0.0341
  928   18.540   4075.13     3.9246     0.0906     0.0192     0.1854     3.9225     2.2006   296.6400     3.6259    -0.0524
  929   18.560   4076.18     3.2121     0.0806     0.1436     0.1856     3.2512     2.2778   296.9600     2.9542    -0.0308
  930   18.580   4077.22     2.5774     0.0650     0.2087     0.1858     2.6530     2.2637   297.2800     2.3557    -0.0020
  931   18.600   4078.24     2.1517     0.0496     0.4172     0.1860     2.2918     2.1616   297.6000     1.9942     0.0745
  932   18.620   4079.25     2.1369     0.0400     0.5039     0.1862     2.3376     1.8990   297.9200     2.0396     0.1430
  933   18.640   4080.26     2.2163     0.0354     0.5905     0.1864     2.4541     1.6590   298.2400     2.1559     0.1763
  934   18.660   4081.30     2.7989     0.0470     0.6822     0.1866     3.0786     1.8474   298.5600     2.7800     0.1724
  935   18.680   4082.33     3.7284     0.0530     0.5075     0.1868     3.9718     1.4745   298.8800     3.6729     0.1077
  936   18.700   4083.36     4.2768     0.0662     0.1125     0.1870     4.3729     1.6198   299.2000     4.0737     0.0105
  937   18.720   4084.40     4.5653     0.0811     0.0741     0.1872     4.5938     1.8242   299.5200     4.2942    -0.0278
  938   18.740   4085.37     4.7000     0.0950     0.0964     0.1874     4.7299     2.0468   299.8400     4.4300    -0.0263
  939   18.760   4086.40     4.8487     0.0926     0.1539     0.1876     4.9017     1.9220   300.1600     4.6016    -0.0133
  940   18.780   4087.49     5.2335     0.0839     0.0670     0.1878     5.2719     1.6628   300.4800     4.9714    -0.0193
  941   18.800   4088.51     5.8093     0.0775     0.0935     0.1880     5.8376     1.3987   300.8000     5.5368    -0.0218
  942   18.820   4089.52     6.4599     0.0704     0.0983     0.1882     6.5062     1.1309   301.1200     6.2051    -0.0125
  943   18.840   4090.56     7.4489     0.0719     0.0029     0.1884     7.4690     1.0229   301.4400     7.1676    -0.0195
  944   18.860   4091.64     8.3878     0.0677    -0.0663     0.1886     8.3615     0.8396   301.7600     8.0597    -0.0312
  945   18.880   4092.68     8.9496     0.0672    -0.0625     0.1888     8.9236     0.7714   302.0800     8.6215    -0.0291
  946   18.900   4093.70     9.1566     0.0745    -0.0435     0.1890     9.1351     0.8175   302.4000     8.8327    -0.0272
  947   18.920   4094.75     9.2926     0.0862    -0.0116     0.1892     9.2856     0.9371   302.7200     8.9828    -0.0229
  948   18.940   4095.77     9.2219     0.1151    -0.0362     0.1894     9.2105     1.2462   303.0400     8.9074    -0.0243
  949   18.960   4096.79     8.2353     0.1532    -0.0218     0.1896     8.2198     1.7303   303.3600     7.9165    -0.0286
  950   18.980   4097.79     6.6187     0.1515    -0.0248     0.1898     6.6153     2.0386   303.6800     6.3116    -0.0315
  951   19.000   4098.84     5.1422     0.1357    -0.0235     0.1900     5.1230     2.3489   304.0000     4.8190    -0.0491
  952   19.020   4099.87     4.1516     0.1138     0.1070     0.1902     4.1654     2.4891   304.3200     3.8611    -0.0406
  953   19.040   4100.85     3.2268     0.1060     0.1489     0.1904     3.2991     2.9682   304.6400     2.9945    -0.0060
  954   19.060   4101.90     2.5074     0.0906     0.2565     0.1906     2.5793     3.2104   304.9600     2.2743    -0.0084
  955   19.080   4102.88     2.4296     0.0709     0.4637     0.1908     2.6021     2.9183   305.2800     2.2968     0.0957
  956   19.100   4103.99     2.4152     0.0508     0.5994     0.1910     2.6594     2.1083   305.6000     2.3538     0.1658
  957   19.120   4105.01     2.6384     0.0397     0.6136     0.1912     2.8990     1.5431   305.9200     2.5931     0.1656
  958   19.140   4106.01     2.6704     0.0439     0.6369     0.1914     2.9214     1.6314   306.2400     2.6152     0.1554
  959   19.160   4107.02     2.7882     0.0489     0.7815     0.1916     3.1079     1.8124   306.5600     2.8014     0.2035
  960   19.180   4108.08     3.7919     0.0518     0.8353     0.1918     4.1508     1.5623   306.8800     3.8440     0.1742
  961   19.200   4109.16     6.0491     0.0513     0.6079     0.1920     6.3737     1.0019   307.2000     6.0665     0.0982
  962   19.220   4110.20     8.5806     0.0569     0.1574     0.1922     8.7029     0.7349   307.5200     8.3954     0.0125
  963   19.240   4111.25    10.2997     0.0656     0.0255     0.1924    10.3204     0.6729   307.8400    10.0126    -0.0143
  964   19.260   4112.32    11.4342     0.0715    -0.0219     0.1926    11.4331     0.6498   308.1600    11.1249    -0.0176
  965   19.280   4113.36    12.1133     0.0799    -0.0383     0.1928    12.0968     0.6722   308.4800    11.7883    -0.0197
  966   19.300   4114.38    12.1338     0.1003    -0.0278     0.1930    12.1221     0.8201   308.8000    11.8133    -0.0187
  967   19.320   4115.43    11.3769     0.1265    -0.0369     0.1932    11.3623     1.1059   309.1200    11.0532    -0.0206
  968   19.340   4116.44     9.8378     0.1601    -0.0450     0.1934     9.8197     1.6168   309.4400     9.5103    -0.0249
  969   19.360   4117.47     7.7906     0.1703    -0.0432     0.1936     7.7693     1.9292   309.7600     7.4596    -0.0327
  970   19.380   4118.49     5.7175     0.1556    -0.0385     0.1938     5.7018     2.6834   310.0800     5.3917    -0.0430
  971   19.400   4119.52     4.3873     0.1378    -0.0305     0.1940     4.3706     2.8000   310.4000     4.0602    -0.0576
  972   19.420   4120.52     3.6395     0.1161     0.2018     0.1942     3.6757     2.9122   310.7200     3.3650    -0.0316
  973   19.440   4121.53     2.8026     0.0946     0.3720     0.1944     2.9578     2.9626   311.0400     2.6467     0.0663
  974   19.460   4122.56     2.1805     0.0768     0.5756     0.1946     2.3726     3.2017   311.3600     2.0612     0.1284
  975   19.480   4123.58     1.9841     0.0526     0.8158     0.1948     2.3001     2.6040   311.6800     1.9884     0.2803
  976   19.500   4124.62     1.9834     0.0327     0.9131     0.1950     2.3577     1.6586   312.0000     2.0457     0.3402
  977   19.520   4125.63     2.0879     0.0270     0.9060     0.1952     2.4731     1.3278   312.3200     2.1608     0.3343
  978   19.540   4126.66     2.2127     0.0258     0.8439     0.1954     2.5773     1.1904   312.6400     2.2646     0.2971
  979   19.560   4127.67     2.2286     0.0180     0.8744     0.1956     2.5801     0.8034   312.9600     2.2671     0.2829
  980   19.580   4128.75     2.0566     0.0294     0.9692     0.1958     2.4490     1.3946   313.2800     2.1357     0.3459
  981   19.600   4129.79     2.2000     0.0361     1.0932     0.1960     2.6420     1.7560   313.6000     2.3284     0.3680
  982   19.620   4130.81     3.2637     0.0344     1.0718     0.1962     3.7383     1.2651   313.9200     3.4243     0.2752
  983   19.640   4131.83     5.4307     0.0335     0.7952     0.1964     5.8047     0.7390   314.2400     5.4905     0.1289
  984   19.660   4132.92     7.7882     0.0510     0.1345     0.1966     7.9042     0.7289   314.5600     7.5897     0.0107
  985   19.680   4134.02     8.7879     0.0778     0.0116     0.1968     8.7890     0.9103   314.8800     8.4741    -0.0229
  986   19.700   4135.01     8.8167     0.1048     0.0144     0.1970     8.8242     1.1804   315.2000     8.5090    -0.0211
  987   19.720   4136.01     8.1891     0.1299     0.0246     0.1972     8.1959     1.5372   315.5200     7.8804    -0.0230
  988   19.740   4137.07     6.9939     0.1296     0.0454     0.1974     7.0082     1.7451   315.8400     6.6924    -0.0244
  989   19.760   4138.09     5.6342     0.1256     0.0556     0.1976     5.6529     2.0826   316.1600     5.3368    -0.0287
  990   19.780   4139.13     4.6099     0.1175     0.1794     0.1978     4.6591     2.3737   316.4800     4.3426    -0.0182
  991   19.800   4140.18     3.7224     0.1046     0.4733     0.1980     3.8790     2.6835   316.8000     3.5622     0.0503
  992   19.820   4141.14     2.9754     0.0890     0.4990     0.1982     3.1785     2.6830   317.1200     2.8614     0.1001
  993   19.840   4142.14     2.4990     0.0733     0.7475     0.1984     2.7670     2.7194   317.4400     2.4495     0.1806
  994   19.860   4143.19     2.2638     0.0500     0.9287     0.1986     2.6298     2.1557   317.7600     2.3120     0.2909
  995   19.880   4144.22     2.2336     0.0320     1.0144     0.1988     2.6530     1.4255   318.0800     2.3350     0.3425
  996   19.900   4145.24     2.2724     0.0288     1.0346     0.1990     2.7049     1.2712   318.4000     2.3865     0.3482
  997   19.920   4146.29     2.2684     0.0298     1.0298     0.1992     2.7066     1.3149   318.7200     2.3879     0.3535
  998   19.940   4147.29     2.3083     0.0326     1.0239     0.1994     2.7364     1.4298   319.0400     2.4174     0.3392
  999   19.960   4148.30     2.3088     0.0320     1.0380     0.1996     2.7423     1.3768   319.3600     2.4230     0.3436
 1000   19.980   4149.31     2.3025     0.0317     1.0282     0.1998     2.7396     1.3803   319.6800     2.4199     0.3475
 1001   20.000   4150.29     2.2144     0.0314     1.0384     0.2000     2.6433     1.3724   320.0000     2.3233     0.3536
 1002   20.020   4151.32     2.0427     0.0292     1.0916     0.2002     2.5024     1.3927   320.3200     2.1821     0.4099
 1003   20.040   4152.40     1.9731     0.0297     1.1397     0.2004     2.4437     1.4756   320.6400     2.1231     0.4334
 1004   20.060   4153.42     1.9485     0.0287     1.1314     0.2006     2.4237     1.4649   320.9600     2.1027     0.4426
 1005   20.080   4154.40     1.9187     0.0278     1.1177     0.2008     2.3877     1.4413   321.2800     2.0664     0.4432
 1006   20.100   4155.46     1.8619     0.0263     1.1248     0.2010     2.3352     1.3875   321.6000     2.0136     0.4599
 1007   20.120   4156.45     1.8203     0.0247     1.1745     0.2012     2.3026     1.3388   321.9200     1.9806     0.4781
 1008   20.140   4157.51     1.7762     0.0254     1.2269     0.2014     2.2850     1.4156   322.2400     1.9628     0.5147
 1009   20.160   4158.53     1.7747     0.0261     1.2533     0.2016     2.2962     1.4774   322.5600     1.9737     0.5271
 1010   20.180   4159.57     1.8121     0.0243     1.2491     0.2018     2.3425     1.3528   322.8800     2.0196     0.5254
 1011   20.200   4160.57     1.8921     0.0241     1.2416     0.2020     2.4123     1.2909   323.2000     2.0891     0.4962
 1012   20.220   4161.58     2.0074     0.0283     1.2057     0.2022     2.5224     1.3922   323.5200     2.1989     0.4658
 1013   20.240   4162.63     2.2056     0.0325     1.1655     0.2024     2.6976     1.4935   323.8400     2.3737     0.4083
 1014   20.260   4163.66     2.2903     0.0354     1.1811     0.2026     2.7780     1.5608   324.1600     2.4538     0.3906
 1015   20.280   4164.69     2.3672     0.0403     1.1487     0.2028     2.8581     1.7127   324.4800     2.5336     0.3813
 1016   20.300   4165.67     2.5162     0.0477     1.0434     0.2030     2.9627     1.9226   324.8000     2.6379     0.3263
 1017   20.320   4180.61     2.6868     0.0499     1.0323     0.2032     3.1220     1.9378   325.1200     2.7968     0.2992
 1018   20.340   4199.92     2.8349     0.0500     1.0212     0.2034     3.2654     1.9434   325.4400     2.9399     0.2809
 1019   20.360   4218.01     2.9723     0.0535     1.1528     0.2036     3.4078     2.0007   325.7600     3.0821     0.2703
 1020   20.380   4219.09     2.9617     0.0580     1.3780     0.2038     3.5109     1.9590   326.0800     3.1848     0.3465
 1021   20.400   4220.14     3.1182     0.0635     1.5423     0.2040     3.7635     2.0925   326.4000     3.4371     0.3877
 1022   20.420   4221.19     3.2114     0.0671     1.5693     0.2042     3.8783     2.0974   326.7200     3.5516     0.3897
 1023   20.440   4222.20     3.2718     0.0671     1.6124     0.2044     3.9369     2.0608   327.0400     3.6099     0.3820
 1024   20.460   4223.18     3.2728     0.0683     1.6881     0.2046     3.9716     2.0876   327.3600     3.6442     0.4004
 1025   20.480   4224.22     3.2444     0.0672     1.7047     0.2048     3.9583     2.0553   327.6800     3.6306     0.4118
 1026   20.500   4225.25     3.1413     0.0667     1.7384     0.2050     3.8668     2.0869   328.0000     3.5388     0.4302
 1027   20.520   4226.27     3.0357     0.0645     1.7679     0.2052     3.7732     2.0935   328.3200     3.4449     0.4501
 1028   20.540   4227.34     2.9618     0.0621     1.8436     0.2054     3.7248     2.0768   328.6400     3.3961     0.4744
 1029   20.560   4228.33     2.8830     0.0587     1.8460     0.2056     3.6677     2.0085   328.9600     3.3387     0.4980
 1030   20.580   4229.39     2.8903     0.0571     1.7797     0.2058     3.6408     1.9889   329.2800     3.3115     0.4775
 1031   20.600   4230.40     2.8375     0.0550     1.7636     0.2060     3.5767     1.9247   329.6000     3.2471     0.4786
 1032   20.620   4231.42     2.8062     0.0529     1.7195     0.2062     3.5333     1.8750   329.9200     3.2033     0.4761
 1033   20.640   4232.41     2.7440     0.0514     1.6735     0.2064     3.4536     1.8463   330.2400     3.1233     0.4748
 1034   20.660   4233.47     2.6996     0.0496     1.6846     0.2066     3.3881     1.8293   330.5600     3.0575     0.4686
 1035   20.680   4234.50     2.6359     0.0486     1.7828     0.2068     3.3760     1.8227   330.8800     3.0451     0.5107
 1036   20.700   4235.54     2.6505     0.0478     1.7717     0.2070     3.3977     1.8065   331.2000     3.0665     0.5126
 1037   20.720   4236.54     2.6890     0.0461     1.7375     0.2072     3.4286     1.7167   331.5200     3.0970     0.5017
 1038   20.740   4237.58     2.7002     0.0453     1.7573     0.2074     3.4314     1.6791   331.8400     3.0996     0.4948
 1039   20.760   4238.58     2.6822     0.0451     1.8155     0.2076     3.4348     1.6777   332.1600     3.1026     0.5106
 1040   20.780   4239.57     2.7036     0.0476     1.8464     0.2078     3.4783     1.7726   332.4800     3.1459     0.5203
 1041   20.800   4240.58     2.7801     0.0491     1.8437     0.2080     3.5544     1.7721   332.8000     3.2216     0.5077
 1042   20.820   4241.64     2.8378     0.0491     1.7907     0.2082     3.6009     1.7470   333.1200     3.2678     0.4923
 1043   20.840   4242.68     2.8838     0.0464     1.7381     0.2084     3.6211     1.6167   333.4400     3.2877     0.4706
 1044   20.860   4243.66     2.9466     0.0481     1.7622     0.2086     3.6863     1.6503   333.7600     3.3525     0.4631
 1045   20.880   4244.69     3.0705     0.0546     1.7006     0.2088     3.7912     1.7950   334.0800     3.4572     0.4361
 1046   20.900   4245.71     3.2231     0.0585     1.7056     0.2090     3.9396     1.8253   334.4000     3.6052     0.4152
 1047   20.920   4246.73     3.3506     0.0616     1.6105     0.2092     4.0431     1.8615   334.7200     3.7084     0.3882
 1048   20.940   4247.76     3.2812     0.0640     1.5688     0.2094     3.9366     1.9136   335.0400     3.6016     0.3752
 1049   20.960   4248.81     3.1648     0.0604     1.6772     0.2096     3.8550     1.8850   335.3600     3.5196     0.4074
 1050   20.980   4249.79     3.1038     0.0629     1.7002     0.2098     3.8148     2.0094   335.6800     3.4791     0.4263
 1051   21.000   4250.81     3.0613     0.0642     1.7008     0.2100     3.7783     2.0932   336.0000     3.4423     0.4349
 1052   21.020   4251.83     3.0369     0.0621     1.7235     0.2102     3.7553     2.0269   336.3200     3.4190     0.4388
 1053   21.040   4252.83     2.9584     0.0593     1.7200     0.2104     3.6881     1.9787   336.6400     3.3514     0.4556
 1054   21.060   4253.94     2.9055     0.0556     1.6402     0.2106     3.6001     1.9100   336.9600     3.2631     0.4423
 1055   21.080   4254.97     2.8438     0.0534     1.6717     0.2108     3.5365     1.8552   337.2800     3.1992     0.4496
 1056   21.100   4255.98     2.7456     0.0548     1.7307     0.2110     3.4646     1.9608   337.6000     3.1270     0.4800
 1057   21.120   4256.98     2.7032     0.0557     1.7481     0.2112     3.4452     2.0523   337.9200     3.1073     0.5005
 1058   21.140   4258.00     2.6843     0.0526     1.7575     0.2114     3.4247     1.9518   338.2400     3.0865     0.5027
 1059   21.160   4259.05     2.6865     0.0499     1.7096     0.2116     3.4123     1.8621   338.5600     3.0738     0.4934
 1060   21.180   4260.08     2.6673     0.0486     1.6714     0.2118     3.3653     1.8193   338.8800     3.0264     0.4791
 1061   21.200   4261.10     2.5929     0.0471     1.6572     0.2120     3.2930     1.8067   339.2000     2.9538     0.4926
 1062   21.220   4262.11     2.5012     0.0466     1.6811     0.2122     3.2012     1.8523   339.5200     2.8617     0.5083
 1063   21.240   4263.14     2.4288     0.0443     1.7186     0.2124     3.1452     1.8103   339.8400     2.8053     0.5323
 1064   21.260   4264.18     2.3859     0.0424     1.7179     0.2126     3.1108     1.7704   340.1600     2.7706     0.5462
 1065   21.280   4265.19     2.3582     0.0419     1.7483     0.2128     3.0889     1.7685   340.4800     2.7484     0.5555
 1066   21.300   4266.17     2.3506     0.0416     1.7583     0.2130     3.0888     1.7709   340.8000     2.7480     0.5621
 1067   21.320   4267.20     2.3491     0.0404     1.7538     0.2132     3.0863     1.7187   341.1200     2.7452     0.5617
 1068   21.340   4268.24     2.3486     0.0408     1.7475     0.2134     3.0842     1.7371   341.4400     2.7428     0.5608
 1069   21.360   4269.26     2.3704     0.0406     1.7319     0.2136     3.1000     1.7189   341.7600     2.7583     0.5524
 1070   21.380   4270.28     2.3978     0.0374     1.7119     0.2138     3.1196     1.5668   342.0800     2.7775     0.5417
 1071   21.400   4271.33     2.4457     0.0326     1.6759     0.2140     3.1544     1.3465   342.4000     2.8120     0.5240
 1072   21.420   4272.36     2.4888     0.0404     1.6463     0.2142     3.1880     1.6312   342.7200     2.8452     0.5098
 1073   21.440   4273.42     2.5201     0.0465     1.6459     0.2144     3.2112     1.8476   343.0400     2.8681     0.4989
 1074   21.460   4274.42     2.5651     0.0564     1.6477     0.2146     3.2520     2.2201   343.3600     2.9086     0.4885
 1075   21.480   4275.41     2.6447     0.0598     1.6967     0.2148     3.3540     2.2973   343.6800     3.0103     0.4897
 1076   21.500   4276.48     3.4813     0.0573     0.3294     0.2150     3.7288     1.9486   344.0000     3.3848     0.1105
 1077   21.520   4277.50     3.4625     0.0556     0.0675     0.2152     3.4871     1.5926   344.3200     3.1428    -0.0498
 1078   21.540   4278.54     3.1289     0.0559     0.1038     0.2154     3.1782     1.7032   344.6400     2.8336    -0.0348
 1079   21.560   4279.58     2.5916     0.0547     0.4847     0.2156     2.7508     1.9735   344.9600     2.4059     0.0684
 1080   21.580   4280.58     2.3607     0.0530     0.6919     0.2158     2.6270     2.1863   345.2800     2.2817     0.1833
 1081   21.600   4281.64     2.3191     0.0463     0.8084     0.2160     2.6419     1.9866   345.6000     2.2963     0.2407
 1082   21.620   4282.65     2.2889     0.0390     0.9032     0.2162     2.6551     1.6947   345.9200     2.3092     0.2839
 1083   21.640   4283.68     2.2734     0.0375     0.9621     0.2164     2.6711     1.6462   346.2400     2.3248     0.3142
 1084   21.660   4284.72     2.2571     0.0384     1.0189     0.2166     2.6761     1.6942   346.5600     2.3296     0.3353
 1085   21.680   4285.75     2.2198     0.0397     1.0948     0.2168     2.6695     1.7720   346.8800     2.3226     0.3676
 1086   21.700   4286.75     2.1962     0.0381     1.1300     0.2170     2.6663     1.7349   347.2000     2.3191     0.3891
 1087   21.720   4287.81     2.2147     0.0390     1.1612     0.2172     2.6992     1.7725   347.5200     2.3516     0.3981
 1088   21.740   4288.85     2.2557     0.0386     1.1716     0.2174     2.7480     1.7251   347.8400     2.4002     0.3978
 1089   21.760   4289.88     2.2313     0.0382     1.1801     0.2176     2.7246     1.7099   348.1600     2.3764     0.4027
 1090   21.780   4290.91     2.2642     0.0357     1.1823     0.2178     2.7566     1.5967   348.4800     2.4082     0.3964
 1091   21.800   4291.93     2.1989     0.0327     1.2056     0.2180     2.7017     1.4866   348.8000     2.3529     0.4161
 1092   21.820   4292.94     2.1806     0.0314     1.2533     0.2182     2.6998     1.4290   349.1200     2.3507     0.4331
 1093   21.840   4293.94     2.1476     0.0334     1.2968     0.2184     2.6829     1.5519   349.4400     2.3335     0.4526
 1094   21.860   4294.97     2.1389     0.0358     1.3485     0.2186     2.6975     1.6789   349.7600     2.3478     0.4734
 1095   21.880   4296.03     2.2089     0.0359     1.3890     0.2188     2.7877     1.6469   350.0800     2.4377     0.4756
 1096   21.900   4297.06     2.2677     0.0344     1.3591     0.2190     2.8506     1.5312   350.4000     2.5002     0.4676
 1097   21.920   4298.06     2.2252     0.0346     1.3587     0.2192     2.7927     1.5373   350.7200     2.4420     0.4635
 1098   21.940   4299.11     2.1866     0.0314     1.3980     0.2194     2.7680     1.4281   351.0400     2.4169     0.4819
 1099   21.960   4300.14     2.1714     0.0307     1.4241     0.2196     2.7653     1.4144   351.3600     2.4139     0.4948
 1100   21.980   4301.20     2.1850     0.0309     1.4644     0.2198     2.7944     1.4209   351.6800     2.4427     0.5040
 1101   22.000   4302.19     2.2861     0.0371     1.5123     0.2200     2.9127     1.6626   352.0000     2.5607     0.4967
 1102   22.020   4303.25     2.5894     0.0488     1.5682     0.2202     3.2441     1.9865   352.3200     2.8918     0.4634
 1103   22.040   4304.30     3.0559     0.0582     1.4817     0.2204     3.6999     2.0119   352.6400     3.3473     0.3927
 1104   22.060   4305.34     3.1969     0.0625     1.3196     0.2206     3.7755     1.9550   352.9600     3.4225     0.3381
 1105   22.080   4306.42     3.0004     0.0553     1.0354     0.2208     3.4651     1.7867   353.2800     3.1118     0.2845
 1106   22.100   4307.40     2.7519     0.0478     1.0643     0.2210     3.1900     1.6701   353.6000     2.8364     0.2900
 1107   22.120   4308.45     2.4635     0.0469     1.1908     0.2212     2.9481     1.8310   353.9200     2.5941     0.3595
 1108   22.140   4309.51     2.2826     0.0429     1.3156     0.2214     2.8164     1.8340   354.2400     2.4622     0.4264
 1109   22.160   4310.53     2.1708     0.0366     1.3858     0.2216     2.7454     1.6589   354.5600     2.3909     0.4795
 1110   22.180   4311.58     2.1174     0.0338     1.3969     0.2218     2.7045     1.5821   354.8800     2.3497     0.5006
 1111   22.200   4312.61     2.1099     0.0321     1.3997     0.2220     2.6965     1.5179   355.2000     2.3413     0.5017
 1112   22.220   4313.69     2.1211     0.0317     1.4101     0.2222     2.7125     1.4898   355.5200     2.3569     0.5031
 1113   22.240   4314.71     2.1419     0.0313     1.4220     0.2224     2.7372     1.4618   355.8400     2.3814     0.5019
 1114   22.260   4315.72     2.1638     0.0344     1.4281     0.2226     2.7633     1.5954   356.1600     2.4072     0.5006
 1115   22.280   4316.74     2.1693     0.0384     1.4099     0.2228     2.7641     1.7660   356.4800     2.4076     0.4957
 1116   22.300   4317.74     2.1502     0.0430     1.3883     0.2230     2.7402     1.9914   356.8000     2.3834     0.4959
 1117   22.320   4356.20     2.2221     0.0411     1.2846     0.2232     2.7766     1.9151   357.1200     2.4195     0.4549
 1118   22.340   4403.52     2.3153     0.0397     1.1809     0.2234     2.8263     1.8517   357.4400     2.4689     0.4036
 1119   22.360   4436.25     2.3466     0.0406     1.1679     0.2236     2.8294     1.7360   357.7600     2.4716     0.3747
 1120   22.380   4437.34     2.2380     0.0425     1.2489     0.2238     2.7521     1.8680   358.0800     2.3941     0.4179
 1121   22.400   4438.39     2.1876     0.0418     1.3059     0.2240     2.7271     1.9030   358.4000     2.3687     0.4477
 1122   22.420   4439.41     2.2292     0.0404     1.3407     0.2242     2.7923     1.8386   358.7200     2.4336     0.4588
 1123   22.440   4440.49     2.2901     0.0382     1.2972     0.2244     2.8404     1.6821   359.0400     2.4814     0.4376
 1124   22.460   4441.47     2.2924     0.0357     1.2601     0.2246     2.8242     1.5501   359.3600     2.4648     0.4226
 1125   22.480   4442.50     2.2216     0.0349     1.2575     0.2248     2.7472     1.5486   359.6800     2.3875     0.4300
 1126   22.500   4443.57     2.1278     0.0354     1.3071     0.2250     2.6686     1.6431   360.0000     2.3086     0.4603
 1127   22.520   4444.59     2.0802     0.0340     1.3491     0.2252     2.6422     1.6194   360.3200     2.2819     0.4877
 1128   22.540   4445.67     2.0834     0.0351     1.3786     0.2254     2.6581     1.6911   360.6400     2.2975     0.4974
 1129   22.560   4446.71     2.1194     0.0347     1.3851     0.2256     2.7016     1.6533   360.9600     2.3407     0.4959
 1130   22.580   4447.71     2.1823     0.0327     1.3907     0.2258     2.7637     1.5170   361.2800     2.4024     0.4822
 1131   22.600   4448.77     2.2349     0.0319     1.3755     0.2260     2.8193     1.4386   361.6000     2.4577     0.4742
 1132   22.620   4449.77     2.2831     0.0323     1.3312     0.2262     2.8439     1.4267   361.9200     2.4820     0.4468
 1133   22.640   4450.83     2.2816     0.0378     1.4277     0.2264     2.8655     1.6442   362.2400     2.5033     0.4649
 1134   22.660   4451.89     2.3313     0.0413     1.5064     0.2266     2.9595     1.7837   362.5600     2.5969     0.4887
 1135   22.680   4452.92     2.5838     0.0473     1.5353     0.2268     3.2263     1.9107   362.8800     2.8634     0.4551
 1136   22.700   4453.93     3.1596     0.0532     1.5397     0.2270     3.8149     1.8180   363.2000     3.4517     0.3866
 1137   22.720   4454.98     4.1595     0.0638     1.3591     0.2272     4.7585     1.6543   363.5200     4.3949     0.2729
 1138   22.740   4456.04     4.9260     0.0698     1.1846     0.2274     5.4398     1.4687   363.8400     5.0759     0.1963
 1139   22.760   4457.11     5.3968     0.0742     1.2017     0.2276     5.8934     1.4021   364.1600     5.5292     0.1727
 1140   22.780   4458.14     5.8966     0.0913     1.2189     0.2278     6.4036     1.6039   364.4800     6.0391     0.1623
 1141   22.800   4459.19     7.1082     0.1466     1.1970     0.2280     7.6213     2.1431   364.8000     7.2565     0.1373
 1142   22.820   4460.25     8.6459     0.1708     0.9902     0.2282     9.0942     2.0516   365.1200     8.7290     0.0964
 1143   22.840   4461.33     9.6301     0.1348     0.8623     0.2284    10.0005     1.4266   365.4400     9.6350     0.0679
 1144   22.860   4462.41    10.4956     0.1029     0.8286     0.2286    10.8451     1.0049   365.7600    10.4793     0.0576
 1145   22.880   4463.45    12.3751     0.0890     0.8950     0.2288    12.7502     0.7716   366.0800    12.3841     0.0536
 1146   22.900   4464.57    17.2705     0.0750     0.5739     0.2290    17.5768     0.5384   366.4000    17.2104     0.0294
 1147   22.920   4465.67    22.7680     0.0611    -0.1097     0.2292    22.8352     0.3051   366.7200    22.4685    -0.0027
 1148   22.940   4466.69    26.0014     0.0636    -0.1957     0.2294    25.9220     0.2609   367.0400    25.5549    -0.0164
 1149   22.960   4467.74    28.3958     0.0581    -0.1966     0.2296    28.3066     0.2226   367.3600    27.9392    -0.0158
 1150   22.980   4472.69    29.0421     0.0525    -0.0891     0.2298    28.9891     0.1843   367.6800    28.6214    -0.0125
 1151   23.000   4478.67    29.3262     0.0715     0.0184     0.2300    29.3183     0.2482   368.0000    28.9503    -0.0087
 1152   23.020   4484.66    29.6102     0.0882     0.1259     0.2302    29.6475     0.3061   368.3200    29.2792    -0.0049
 1153   23.040   4489.93    29.5340     0.0884     0.0654     0.2304    29.6256     0.2931   368.6400    29.2569    -0.0004
 1154   23.060   4498.58    38.4977     0.0803    -0.0087     0.2306    38.5048     0.2193   368.9600    38.1358    -0.0055
 1155   23.080   4505.83    40.7106     0.0753    -0.0828     0.2308    40.6866     0.2056   369.2800    40.3173    -0.0071
 1156   23.100   4509.97    42.5653     0.0725    -0.1633     0.2310    42.5082     0.1722   369.6000    42.1386    -0.0087
 1157   23.120   4511.03    44.2339     0.0692    -0.2225     0.2312    44.1455     0.1584   369.9200    43.7756    -0.0101
 1158   23.140   4512.06    45.8845               -0.2199     0.2314    45.7928              370.2400    45.4226    -0.0099
 1159   23.160   4513.15    46.8016               -0.2156     0.2316    46.7105              370.5600    46.3400    -0.0097
 1160   23.180   4514.19    47.6230               -0.2136     0.2318    47.5324              370.8800    47.1615    -0.0095
 1161   23.200   4515.23    48.6553               -0.2069     0.2320    48.5665              371.2000    48.1953    -0.0092
 1162   23.220   4516.27    49.7327               -0.1927     0.2322    49.6502              371.5200    49.2786    -0.0087
 1163   23.240   4517.34    51.1481                           0.2324    51.0751              371.8400    50.7032    -0.0080
 
 
