

 Program UNIPLOT                         version 05.36.02
 _______________
 (c) Fugro Netherlands Marine, Nootdorp, The Netherlands


 ASCII representation of data plotted on a graph.

 This ASCII file presents data interpolated to values per fixed depth interval.
 The data are corrected for the depth-offset differences between the various 
 transducers in the penetrometer.

 The records at the start of penetration may include no values or anomalous
 values where a depth offset implies incomplete penetration of a particular
 sensor into the ground.

 The records at the end of penetration may include no values for data channels
 where the transducer did not reach this depth.

 The reference level for test values is (1) the ground surface for onshore tests and (2) the seafloor for nearshore and offshore tests.

 UNICAS data file          : CPT-1003.000                            
 Output using command file : PlotASCII.cmd

 ASCII file created at : date          :05-Jul-2022
                         time          :21:33:43
 Project number                        :20024805                                                                                            
 Date of testing                       :26-Jun-2022                                                                                         
 Location                              :Hong Kong Offshore Wind Farm Project                                                                
 Test name                             :CPT-1003
 Penetrometer                          :F7.5CKE2HAW2/B/3285
 Serial no                             :1701-3285

 Table description:
 Column ID                             :Parameter name
 ___________________________________________________________________________________
 Rec                                   :Record ID, Record ID [-]
 Depth                                 :Depth, Depth [m]
 Time                                  :Time, Time [s]
 Cone                                  :Cone Resistance, Cone Resistance [MPa]
 Friction                              :Sleeve Friction, Sleeve Friction [MPa]
 Pore 2                                :Porewater Pressure, Porewater Pressure at Shoulder [MPa]
 HydroPress                            :Hydrostatic Pressure, Hydrostatic Pressure [MPa]
 qt                                    :Total Cone Resistance, Total Cone Resistance [MPa]
 Fric_ratio                            :Friction Ratio, Friction Ratio [%]
 SigmaVert                             :Vertical stress, Vertical stress [kPa] as specified in ground model
 Qnet                                  :Net Cone Resistance, Net Cone Resistance [MPa], unit weight as specified in ground model
 Bq                                    :Porewater Pressure Ratio, Porewater Pressure Ratio [-], unit weight as specified in ground model


 Data table:
  Rec    Depth      Time       Cone   Friction     Pore 2 HydroPress         qt Fric_ratio  SigmaVert       Qnet         Bq
   No        m         s        MPa        MPa        MPa        MPa        MPa          %        kPa        MPa          -
    1    0.000   1869.78     0.0000                           0.0000     0.0000                0.0000     0.0000           
    2    0.020   1870.70     0.0027                0.0003     0.0002     0.0027                0.3200     0.0024    -0.0306
    3    0.040   1871.66     0.0026                0.0004     0.0004     0.0028                0.6400     0.0022     0.0304
    4    0.060   1872.60     0.0033                0.0008     0.0006     0.0036                0.9600     0.0027     0.0497
    5    0.080   1873.55     0.0012     0.0001     0.0010     0.0008     0.0016     5.0133     1.2800     0.0003     0.3906
    6    0.100   1874.48     0.0030     0.0002     0.0011     0.0010     0.0034    10.6130     1.6000     0.0018     0.1074
    7    0.120   1875.43     0.0021     0.0004     0.0013     0.0012     0.0026    16.2127     1.9200     0.0007     0.0061
    8    0.140   1876.33     0.0065     0.0003     0.0015     0.0014     0.0072    13.0813     2.2400     0.0049     0.0248
    9    0.160   1877.30     0.0079     0.0006     0.0017     0.0016     0.0086     9.9275     2.5600     0.0061     0.0278
   10    0.180   1882.00     0.0115     0.0005     0.0015     0.0018     0.0121     4.9646     2.8800     0.0093    -0.0192
   11    0.200   1890.40     0.0128     0.0007     0.0012     0.0020     0.0134     6.3115     3.2000     0.0102    -0.0609
   12    0.220   1898.80     0.0142     0.0007     0.0009     0.0022     0.0146     6.5919     3.5200     0.0111    -0.1027
   13    0.240   1904.15     0.0152     0.0005     0.0006     0.0024     0.0154     4.1208     3.8400     0.0116    -0.1562
   14    0.260   1905.09     0.0150     0.0008     0.0011     0.0026     0.0154     5.4847     4.1600     0.0113    -0.1465
   15    0.280   1906.02     0.0147     0.0009     0.0017     0.0028     0.0154     6.3800     4.4800     0.0109    -0.1223
   16    0.300   1906.94     0.0171     0.0009     0.0014     0.0030     0.0177     5.9478     4.8000     0.0129    -0.1375
   17    0.320   1907.88     0.0192     0.0011     0.0014     0.0032     0.0196     5.4722     5.1200     0.0145    -0.1518
   18    0.340   1908.79     0.0160     0.0012     0.0019     0.0034     0.0167     7.5638     5.4400     0.0113    -0.1425
   19    0.360   1909.70     0.0161     0.0008     0.0025     0.0036     0.0171     4.1833     5.7600     0.0114    -0.1089
   20    0.380   1910.64     0.0150     0.0010     0.0037     0.0038     0.0163     6.8096     6.0800     0.0103    -0.0524
   21    0.400   1911.57     0.0143     0.0009     0.0047     0.0040     0.0161     5.9718     6.4000     0.0097     0.0331
   22    0.420   1912.44     0.0144     0.0010     0.0059     0.0042     0.0166     7.1364     6.7200     0.0099     0.1162
   23    0.440   1913.39     0.0149     0.0010     0.0069     0.0044     0.0177     6.5646     7.0400     0.0106     0.2041
   24    0.460   1914.26     0.0149     0.0008     0.0072     0.0046     0.0179     5.8361     7.3600     0.0105     0.2373
   25    0.480   1915.21     0.0164     0.0010     0.0075     0.0048     0.0195     5.7501     7.6800     0.0118     0.2259
   26    0.500   1917.38     0.0209     0.0011     0.0085     0.0050     0.0244     5.5557     8.0000     0.0164     0.2077
   27    0.520   1918.86     0.0259     0.0013     0.0059     0.0052     0.0289     5.2657     8.3200     0.0206     0.1008
   28    0.540   1919.80     0.0295     0.0011     0.0048     0.0054     0.0317     3.7065     8.6400     0.0231    -0.0131
   29    0.560   1920.72     0.0263     0.0012     0.0041     0.0056     0.0282     4.5502     8.9600     0.0193    -0.0521
   30    0.580   1921.65     0.0287     0.0013     0.0030     0.0058     0.0300     4.6415     9.2800     0.0207    -0.1244
   31    0.600   1922.63     0.0274     0.0015     0.0044     0.0060     0.0289     5.3958     9.6000     0.0193    -0.1217
   32    0.620   1923.49     0.0268     0.0016     0.0039     0.0062     0.0287     5.8504     9.9200     0.0188    -0.0799
   33    0.640   1924.39     0.0267     0.0017     0.0054     0.0064     0.0289     6.6358    10.2400     0.0187    -0.0593
   34    0.660   1925.32     0.0270     0.0015     0.0071     0.0066     0.0297     5.6255    10.5600     0.0192     0.0005
   35    0.680   1926.26     0.0274     0.0015     0.0035     0.0068     0.0293     5.5288    10.8800     0.0184    -0.1298
   36    0.700   1927.17     0.0257     0.0016     0.0060     0.0070     0.0278     6.2238    11.2000     0.0166    -0.1207
   37    0.720   1928.07     0.0253     0.0017     0.0083     0.0072     0.0285     6.7806    11.5200     0.0170     0.0290
   38    0.740   1928.99     0.0223     0.0016     0.0090     0.0074     0.0260     6.8133    11.8400     0.0142     0.1007
   39    0.760   1929.89     0.0234     0.0015     0.0099     0.0076     0.0274     6.1337    12.1600     0.0152     0.1270
   40    0.780   1931.31     0.0233     0.0014     0.0099     0.0078     0.0275     6.1006    12.4800     0.0150     0.1484
   41    0.800   1954.48     0.0239     0.0013     0.0093     0.0080     0.0279     5.5030    12.8000     0.0151     0.0998
   42    0.820   1971.57     0.0233     0.0012     0.0093     0.0082     0.0271     4.9503    13.1200     0.0140     0.0717
   43    0.840   1972.49     0.0212     0.0011     0.0088     0.0084     0.0251     5.3940    13.4400     0.0116     0.0770
   44    0.860   1973.41     0.0239     0.0014     0.0094     0.0086     0.0277     5.7974    13.7600     0.0140     0.0395
   45    0.880   1974.34     0.0199     0.0011     0.0113     0.0088     0.0246     4.7406    14.0800     0.0105     0.2294
   46    0.900   1975.23     0.0231     0.0016     0.0110     0.0090     0.0279     6.9193    14.4000     0.0135     0.1865
   47    0.920   1976.13     0.0252     0.0013     0.0119     0.0092     0.0299     5.1501    14.7200     0.0152     0.1474
   48    0.940   1977.05     0.0269     0.0012     0.0120     0.0094     0.0320     4.7846    15.0400     0.0170     0.1629
   49    0.960   1977.97     0.0253     0.0012     0.0117     0.0096     0.0301     4.5935    15.3600     0.0147     0.1201
   50    0.980   1978.90     0.0250     0.0011     0.0123     0.0098     0.0299     4.5856    15.6800     0.0142     0.1201
   51    1.000   1979.83     0.0281     0.0010     0.0142     0.0100     0.0337     3.7247    16.0000     0.0177     0.1819
   52    1.020   1980.76     0.0284     0.0014     0.0160     0.0102     0.0349     4.9368    16.3200     0.0185     0.2801
   53    1.040   1981.71     0.0323     0.0017     0.0163     0.0104     0.0392     5.2765    16.6400     0.0226     0.2686
   54    1.060   1982.63     0.0433     0.0017     0.0164     0.0106     0.0502     4.4093    16.9600     0.0333     0.1747
   55    1.080   1983.71     0.0453     0.0020     0.0172     0.0108     0.0527     4.6781    17.2800     0.0354     0.1955
   56    1.100   1984.74     0.0468     0.0022     0.0127     0.0110     0.0525     4.6736    17.6000     0.0349     0.0736
   57    1.120   1985.77     0.0584     0.0023     0.0106     0.0112     0.0629     4.1068    17.9200     0.0449    -0.0140
   58    1.140   1986.78     0.0625     0.0029     0.0098     0.0114     0.0662     4.7406    18.2400     0.0479    -0.0556
   59    1.160   1987.77     0.0636     0.0028     0.0091     0.0116     0.0684     4.4556    18.5600     0.0498    -0.0056
   60    1.180   1988.79     0.0603     0.0032     0.0084     0.0118     0.0640     5.3158    18.8800     0.0451    -0.0667
   61    1.200   1989.79     0.0572     0.0028     0.0081     0.0120     0.0606     4.8420    19.2000     0.0414    -0.0963
   62    1.220   1990.79     0.0531     0.0029     0.0093     0.0122     0.0570     5.4374    19.5200     0.0375    -0.0782
   63    1.240   1991.77     0.0509     0.0033     0.0126     0.0124     0.0555     6.3732    19.8400     0.0356    -0.0386
   64    1.260   1992.79     0.0496     0.0031     0.0152     0.0126     0.0557     6.2845    20.1600     0.0355     0.0528
   65    1.280   1993.77     0.0525     0.0029     0.0179     0.0128     0.0596     5.4482    20.4800     0.0391     0.1056
   66    1.300   1994.74     0.0490     0.0028     0.0205     0.0130     0.0572     5.7360    20.8000     0.0364     0.1759
   67    1.320   1995.72     0.0555     0.0030     0.0221     0.0132     0.0647     5.4726    21.1200     0.0436     0.2020
   68    1.340   1996.74     0.0519     0.0030     0.0234     0.0134     0.0614     5.8138    21.4400     0.0400     0.2317
   69    1.360   1997.73     0.0521     0.0028     0.0213     0.0136     0.0617     5.4936    21.7600     0.0399     0.2294
   70    1.380   1998.75     0.0576     0.0029     0.0195     0.0138     0.0658     5.0627    22.0800     0.0437     0.1260
   71    1.400   1999.74     0.0591     0.0028     0.0224     0.0140     0.0683     4.7301    22.4000     0.0459     0.1715
   72    1.420   2000.74     0.0586     0.0028     0.0245     0.0142     0.0685     4.8088    22.7200     0.0457     0.2053
   73    1.440   2001.73     0.0625     0.0029     0.0238     0.0144     0.0726     4.6774    23.0400     0.0495     0.1955
   74    1.460   2002.75     0.0643     0.0027     0.0206     0.0146     0.0731     4.2642    23.3600     0.0498     0.1285
   75    1.480   2003.73     0.0633     0.0026     0.0232     0.0148     0.0723     4.1668    23.6800     0.0486     0.1354
   76    1.500   2004.73     0.0638     0.0027     0.0264     0.0150     0.0745     4.1495    24.0000     0.0505     0.2049
   77    1.520   2005.75     0.0668     0.0027     0.0273     0.0152     0.0783     4.0580    24.3200     0.0540     0.2232
   78    1.540   2006.75     0.0700     0.0027     0.0260     0.0154     0.0812     3.8123    24.6400     0.0566     0.1985
   79    1.560   2007.75     0.0702     0.0031     0.0203     0.0156     0.0797     4.3968    24.9600     0.0548     0.1295
   80    1.580   2008.73     0.0673     0.0031     0.0230     0.0158     0.0765     4.5619    25.2800     0.0512     0.1189
   81    1.600   2009.78     0.0641     0.0031     0.0233     0.0160     0.0738     4.7838    25.6000     0.0482     0.1483
   82    1.620   2010.78     0.0648     0.0028     0.0243     0.0162     0.0749     4.3667    25.9200     0.0490     0.1606
   83    1.640   2011.80     0.0621     0.0029     0.0277     0.0164     0.0731     4.6495    26.2400     0.0468     0.2058
   84    1.660   2012.78     0.0639     0.0032     0.0303     0.0166     0.0763     5.0715    26.5600     0.0498     0.2629
   85    1.680   2013.80     0.0686     0.0033     0.0333     0.0168     0.0822     4.9352    26.8800     0.0553     0.2792
   86    1.700   2014.78     0.0693     0.0032     0.0338     0.0170     0.0833     4.6771    27.2000     0.0561     0.2904
   87    1.720   2015.80     0.0764     0.0035     0.0365     0.0172     0.0912     4.6026    27.5200     0.0637     0.2867
   88    1.740   2016.80     0.0761     0.0034     0.0382     0.0174     0.0924     4.4564    27.8400     0.0645     0.3308
   89    1.760   2017.76     0.0806     0.0035     0.0384     0.0176     0.0963     4.4031    28.1600     0.0681     0.2900
   90    1.780   2018.74     0.0869     0.0037     0.0412     0.0178     0.1039     4.3106    28.4800     0.0755     0.3017
   91    1.800   2019.76     0.0872     0.0038     0.0432     0.0180     0.1052     4.3892    28.8000     0.0764     0.3249
   92    1.820   2020.76     0.0908     0.0040     0.0414     0.0182     0.1089     4.3906    29.1200     0.0797     0.3109
   93    1.840   2021.71     0.0921     0.0037     0.0392     0.0184     0.1087     4.0406    29.4400     0.0792     0.2660
   94    1.860   2022.76     0.0957     0.0037     0.0419     0.0186     0.1128     3.8759    29.7600     0.0830     0.2658
   95    1.880   2023.74     0.0912     0.0037     0.0433     0.0188     0.1092     4.0255    30.0800     0.0791     0.3053
   96    1.900   2024.76     0.0927     0.0038     0.0447     0.0190     0.1111     4.0552    30.4000     0.0807     0.3057
   97    1.920   2025.76     0.0938     0.0040     0.0452     0.0192     0.1132     4.3371    30.7200     0.0824     0.3267
   98    1.940   2026.71     0.0967     0.0036     0.0457     0.0194     0.1158     3.7596    31.0400     0.0847     0.3080
   99    1.960   2027.74     0.0978     0.0038     0.0449     0.0196     0.1167     3.9170    31.3600     0.0853     0.2988
  100    1.980   2028.74     0.1028     0.0036     0.0429     0.0198     0.1215     3.5581    31.6800     0.0898     0.2752
  101    2.000   2029.74     0.1009     0.0043     0.0412     0.0200     0.1183     4.2877    32.0000     0.0863     0.2479
  102    2.020   2030.74     0.0991     0.0042     0.0383     0.0202     0.1157     4.2216    32.3200     0.0834     0.2322
  103    2.040   2031.75     0.0996     0.0043     0.0380     0.0204     0.1155     4.3457    32.6400     0.0828     0.2099
  104    2.060   2032.76     0.1001     0.0042     0.0400     0.0206     0.1168     4.1905    32.9600     0.0839     0.2294
  105    2.080   2033.75     0.0995     0.0042     0.0398     0.0208     0.1163     4.2009    33.2800     0.0830     0.2297
  106    2.100   2034.74     0.0969     0.0041     0.0411     0.0210     0.1134     4.1707    33.6000     0.0798     0.2301
  107    2.120   2035.75     0.0951     0.0039     0.0441     0.0212     0.1135     4.1175    33.9200     0.0796     0.2836
  108    2.140   2036.77     0.0958     0.0041     0.0429     0.0214     0.1141     4.3281    34.2400     0.0798     0.2755
  109    2.160   2037.74     0.0954     0.0040     0.0429     0.0216     0.1130     4.2914    34.5600     0.0784     0.2576
  110    2.180   2038.77     0.0894     0.0038     0.0458     0.0218     0.1082     4.2493    34.8800     0.0733     0.3119
  111    2.200   2039.74     0.0924     0.0040     0.0456     0.0220     0.1117     4.3398    35.2000     0.0765     0.3131
  112    2.220   2040.75     0.0908     0.0039     0.0473     0.0222     0.1100     4.2663    35.5200     0.0745     0.3158
  113    2.240   2041.77     0.0866     0.0039     0.0477     0.0224     0.1071     4.4358    35.8400     0.0712     0.3684
  114    2.260   2042.75     0.0813     0.0042     0.0399     0.0226     0.0986     5.1378    36.1600     0.0625     0.2984
  115    2.280   2043.75     0.0845     0.0039     0.0373     0.0228     0.1006     4.6986    36.4800     0.0641     0.2430
  116    2.300   2044.75     0.0845     0.0035     0.0394     0.0230     0.0998     4.1023    36.8000     0.0630     0.2135
  117    2.320   2045.75     0.0849     0.0037     0.0409     0.0232     0.1019     4.3250    37.1200     0.0648     0.2660
  118    2.340   2046.73     0.0817     0.0035     0.0432     0.0234     0.0996     4.2509    37.4400     0.0621     0.3085
  119    2.360   2047.72     0.0757     0.0034     0.0436     0.0236     0.0944     4.3696    37.7600     0.0566     0.3707
  120    2.380   2048.71     0.0720     0.0036     0.0444     0.0238     0.0901     4.9238    38.0800     0.0521     0.3734
  121    2.400   2049.75     0.0689     0.0033     0.0407     0.0240     0.0872     4.7825    38.4000     0.0488     0.3998
  122    2.420   2050.73     0.0667     0.0033     0.0357     0.0242     0.0824     4.8362    38.7200     0.0437     0.3001
  123    2.440   2051.73     0.0662     0.0032     0.0361     0.0244     0.0812     4.8002    39.0400     0.0421     0.2699
  124    2.460   2052.71     0.0647     0.0030     0.0387     0.0246     0.0802     4.5887    39.3600     0.0408     0.3010
  125    2.480   2053.76     0.0666     0.0029     0.0430     0.0248     0.0841     4.3347    39.6800     0.0444     0.3777
  126    2.500   2054.73     0.0686     0.0027     0.0424     0.0250     0.0872     4.0188    40.0000     0.0472     0.4054
  127    2.520   2055.71     0.0611     0.0024     0.0432     0.0252     0.0789     3.9313    40.3200     0.0386     0.4485
  128    2.540   2056.73     0.0595     0.0025     0.0341     0.0254     0.0753     4.4505    40.6400     0.0347     0.3509
  129    2.560   2057.78     0.0539     0.0026     0.0374     0.0256     0.0695     4.8459    40.9600     0.0286     0.4085
  130    2.580   2058.76     0.0498     0.0027     0.0400     0.0258     0.0656     5.3924    41.2800     0.0243     0.4871
  131    2.600   2059.78     0.0619     0.0030     0.0443     0.0260     0.0803     5.6631    41.6000     0.0387     0.4637
  132    2.620   2060.76     0.0906     0.0032     0.0470     0.0262     0.1096     4.0125    41.9200     0.0677     0.2814
  133    2.640   2067.63     0.0848     0.0034     0.0432     0.0264     0.1038     3.8955    42.2400     0.0616     0.2943
  134    2.660   2080.78     0.0780     0.0038     0.0375     0.0266     0.0946     4.3218    42.5600     0.0521     0.2245
  135    2.680   2093.92     0.0713     0.0038     0.0326     0.0268     0.0854     4.7298    42.8800     0.0426     0.1547
  136    2.700   2097.52     0.0725     0.0041     0.0388     0.0270     0.0874     5.6973    43.2000     0.0442     0.1900
  137    2.720   2098.53     0.0711     0.0043     0.0437     0.0272     0.0890     6.0487    43.5200     0.0455     0.3430
  138    2.740   2099.49     0.0715     0.0041     0.0446     0.0274     0.0902     5.7924    43.8400     0.0464     0.3682
  139    2.760   2100.52     0.0701     0.0042     0.0478     0.0276     0.0897     6.0595    44.1600     0.0456     0.4217
  140    2.780   2101.51     0.0806     0.0040     0.0503     0.0278     0.1012     5.1098    44.4800     0.0568     0.3758
  141    2.800   2102.54     0.0884     0.0041     0.0520     0.0280     0.1103     4.5911    44.8000     0.0655     0.3682
  142    2.820   2103.50     0.0936     0.0040     0.0554     0.0282     0.1155     4.2798    45.1200     0.0704     0.3416
  143    2.840   2104.49     0.0972     0.0039     0.0635     0.0284     0.1227     4.0207    45.4400     0.0772     0.4179
  144    2.860   2105.49     0.1015     0.0039     0.0704     0.0286     0.1301     3.8219    45.7600     0.0844     0.4700
  145    2.880   2106.49     0.1035     0.0037     0.0737     0.0288     0.1342     3.6092    46.0800     0.0881     0.5038
  146    2.900   2107.52     0.1013     0.0036     0.0738     0.0290     0.1324     3.5623    46.4000     0.0860     0.5230
  147    2.920   2108.53     0.1000     0.0036     0.0774     0.0292     0.1323     3.6187    46.7200     0.0856     0.5569
  148    2.940   2109.48     0.1008     0.0040     0.0798     0.0294     0.1340     3.9897    47.0400     0.0870     0.5711
  149    2.960   2110.49     0.1034     0.0040     0.0793     0.0296     0.1371     3.8339    47.3600     0.0897     0.5625
  150    2.980   2111.49     0.1090     0.0044     0.0767     0.0298     0.1416     4.0188    47.6800     0.0939     0.5088
  151    3.000   2112.50     0.1071     0.0046     0.0742     0.0300     0.1389     4.2920    48.0000     0.0909     0.5032
  152    3.020   2113.47     0.1017     0.0044     0.0717     0.0302     0.1319     4.2872    48.3200     0.0836     0.4991
  153    3.040   2114.50     0.0983     0.0047     0.0718     0.0304     0.1284     4.6716    48.6400     0.0797     0.5168
  154    3.060   2115.50     0.0955     0.0043     0.0724     0.0306     0.1258     4.4522    48.9600     0.0768     0.5406
  155    3.080   2116.50     0.0973     0.0042     0.0760     0.0308     0.1287     4.3951    49.2800     0.0794     0.5546
  156    3.100   2117.50     0.0996     0.0041     0.0778     0.0310     0.1322     4.0715    49.6000     0.0826     0.5638
  157    3.120   2118.49     0.0986     0.0040     0.0748     0.0312     0.1306     4.0925    49.9200     0.0807     0.5585
  158    3.140   2119.48     0.1020     0.0041     0.0750     0.0314     0.1338     3.9967    50.2400     0.0835     0.5285
  159    3.160   2120.48     0.1036     0.0041     0.0735     0.0316     0.1348     3.9800    50.5600     0.0842     0.5062
  160    3.180   2121.47     0.1092     0.0042     0.0700     0.0318     0.1391     3.8803    50.8800     0.0882     0.4460
  161    3.200   2122.45     0.1111     0.0042     0.0661     0.0320     0.1395     3.7917    51.2000     0.0883     0.4038
  162    3.220   2123.43     0.1131     0.0045     0.0621     0.0322     0.1398     4.0302    51.5200     0.0883     0.3557
  163    3.240   2124.43     0.1152     0.0050     0.0592     0.0324     0.1409     4.3584    51.8400     0.0890     0.3240
  164    3.260   2125.46     0.1174     0.0050     0.0577     0.0326     0.1420     4.2718    52.1600     0.0899     0.2890
  165    3.280   2126.45     0.1194     0.0054     0.0555     0.0328     0.1425     4.5655    52.4800     0.0901     0.2470
  166    3.300   2127.42     0.1179     0.0056     0.0537     0.0330     0.1407     4.7432    52.8000     0.0879     0.2425
  167    3.320   2128.41     0.1170     0.0053     0.0520     0.0332     0.1388     4.5033    53.1200     0.0857     0.2168
  168    3.340   2129.44     0.1123     0.0052     0.0561     0.0334     0.1353     4.5979    53.4400     0.0819     0.2619
  169    3.360   2130.44     0.1093     0.0054     0.0635     0.0336     0.1348     4.9509    53.7600     0.0810     0.3327
  170    3.380   2131.41     0.1135     0.0047     0.0680     0.0338     0.1412     4.1090    54.0800     0.0871     0.3690
  171    3.400   2132.38     0.1150     0.0051     0.0733     0.0340     0.1449     4.4165    54.4000     0.0905     0.4110
  172    3.420   2133.39     0.1153     0.0051     0.0756     0.0342     0.1470     4.4443    54.7200     0.0923     0.4476
  173    3.440   2134.39     0.1114     0.0053     0.0721     0.0344     0.1425     4.7255    55.0400     0.0874     0.4519
  174    3.460   2135.38     0.1057     0.0047     0.0711     0.0346     0.1358     4.3586    55.3600     0.0805     0.4634
  175    3.480   2136.35     0.0977     0.0046     0.0731     0.0348     0.1279     4.6761    55.6800     0.0723     0.5150
  176    3.500   2137.36     0.0851     0.0043     0.0764     0.0350     0.1166     5.1141    56.0000     0.0606     0.6593
  177    3.520   2138.36     0.1009     0.0047     0.0766     0.0352     0.1332     4.8396    56.3200     0.0769     0.5492
  178    3.540   2139.34     0.1298     0.0048     0.0795     0.0354     0.1619     3.6725    56.6400     0.1053     0.3900
  179    3.560   2140.39     0.1295     0.0051     0.0806     0.0356     0.1632     3.9447    56.9600     0.1062     0.4198
  180    3.580   2141.36     0.1233     0.0050     0.0700     0.0358     0.1536     4.0383    57.2800     0.0963     0.3780
  181    3.600   2142.36     0.1212     0.0049     0.0682     0.0360     0.1498     3.9825    57.6000     0.0922     0.3475
  182    3.620   2143.37     0.1166     0.0055     0.0713     0.0362     0.1460     4.6962    57.9200     0.0881     0.3838
  183    3.640   2144.37     0.1154     0.0055     0.0795     0.0364     0.1480     4.7476    58.2400     0.0897     0.4586
  184    3.660   2145.38     0.1099     0.0054     0.0790     0.0366     0.1425     4.8640    58.5600     0.0839     0.4879
  185    3.680   2146.34     0.1099     0.0051     0.0801     0.0368     0.1434     4.5715    58.8800     0.0846     0.5097
  186    3.700   2147.38     0.1041     0.0046     0.0788     0.0370     0.1374     4.4412    59.2000     0.0782     0.5412
  187    3.720   2148.35     0.1044     0.0046     0.0842     0.0372     0.1390     4.3793    59.5200     0.0795     0.5680
  188    3.740   2149.32     0.1021     0.0043     0.0851     0.0374     0.1371     4.2431    59.8400     0.0773     0.5930
  189    3.760   2150.33     0.1079     0.0043     0.0888     0.0376     0.1444     4.0490    60.1600     0.0842     0.5850
  190    3.780   2151.33     0.1158     0.0044     0.0905     0.0378     0.1535     3.8624    60.4800     0.0930     0.5581
  191    3.800   2152.33     0.1259     0.0045     0.0916     0.0380     0.1645     3.6443    60.8000     0.1037     0.5183
  192    3.820   2153.33     0.1410     0.0052     0.0861     0.0382     0.1774     3.7572    61.1200     0.1163     0.4169
  193    3.840   2154.26     0.1488     0.0050     0.0835     0.0384     0.1842     3.3832    61.4400     0.1228     0.3745
  194    3.860   2155.25     0.1532     0.0057     0.0819     0.0386     0.1880     3.7242    61.7600     0.1263     0.3518
  195    3.880   2156.27     0.1472     0.0056     0.0828     0.0388     0.1814     3.7753    62.0800     0.1193     0.3578
  196    3.900   2157.26     0.1421     0.0054     0.0794     0.0390     0.1767     3.8085    62.4000     0.1143     0.3806
  197    3.920   2158.23     0.1366     0.0053     0.0865     0.0392     0.1714     3.8790    62.7200     0.1087     0.4014
  198    3.940   2159.26     0.1417     0.0054     0.0929     0.0394     0.1798     3.8380    63.0400     0.1168     0.4407
  199    3.960   2160.26     0.1497     0.0057     0.0967     0.0396     0.1901     3.8517    63.3600     0.1267     0.4469
  200    3.980   2161.25     0.1656     0.0059     0.0967     0.0398     0.2062     3.5709    63.6800     0.1425     0.3991
  201    4.000   2162.23     0.1713     0.0065     0.0804     0.0400     0.2083     3.8492    64.0000     0.1443     0.3330
  202    4.020   2163.26     0.1708     0.0065     0.0629     0.0402     0.1989     3.8264    64.3200     0.1346     0.1982
  203    4.040   2164.26     0.1559     0.0067     0.0626     0.0404     0.1802     4.2549    64.6400     0.1156     0.1522
  204    4.060   2165.23     0.1404     0.0071     0.0744     0.0406     0.1706     5.0271    64.9600     0.1056     0.2960
  205    4.080   2166.29     0.1412     0.0070     0.0795     0.0408     0.1739     4.9849    65.2800     0.1086     0.3411
  206    4.100   2167.26     0.1403     0.0060     0.0851     0.0410     0.1751     4.2990    65.6000     0.1095     0.3822
  207    4.120   2168.26     0.1405     0.0056     0.0910     0.0412     0.1780     4.0069    65.9200     0.1121     0.4282
  208    4.140   2169.26     0.1380     0.0057     0.0945     0.0414     0.1771     4.1202    66.2400     0.1109     0.4669
  209    4.160   2170.23     0.1376     0.0053     0.0971     0.0416     0.1780     3.8774    66.5600     0.1114     0.4882
  210    4.180   2171.28     0.1367     0.0053     0.0992     0.0418     0.1782     3.9021    66.8800     0.1113     0.5118
  211    4.200   2172.26     0.1393     0.0054     0.0985     0.0420     0.1808     3.8624    67.2000     0.1136     0.5001
  212    4.220   2173.31     0.1332     0.0054     0.0985     0.0422     0.1743     4.0808    67.5200     0.1067     0.5209
  213    4.240   2174.28     0.1345     0.0057     0.0981     0.0424     0.1763     4.1859    67.8400     0.1084     0.5265
  214    4.260   2175.28     0.1369     0.0055     0.0967     0.0426     0.1777     3.9941    68.1600     0.1095     0.4966
  215    4.280   2176.24     0.1340     0.0053     0.0996     0.0428     0.1755     3.9059    68.4800     0.1070     0.5241
  216    4.300   2177.24     0.1304     0.0052     0.0968     0.0430     0.1705     3.9688    68.8000     0.1017     0.5173
  217    4.320   2178.22     0.1262     0.0052     0.0968     0.0432     0.1679     4.0770    69.1200     0.0988     0.5698
  218    4.340   2179.25     0.1154     0.0051     0.1001     0.0434     0.1568     4.3389    69.4400     0.0873     0.6323
  219    4.360   2180.22     0.1129     0.0046     0.1033     0.0436     0.1557     4.1195    69.7600     0.0860     0.6791
  220    4.380   2181.23     0.1104     0.0044     0.1063     0.0438     0.1546     3.9482    70.0800     0.0845     0.7262
  221    4.400   2182.19     0.1202     0.0043     0.1077     0.0440     0.1654     3.6238    70.4000     0.0950     0.6691
  222    4.420   2183.19     0.1256     0.0046     0.1062     0.0442     0.1706     3.6584    70.7200     0.0999     0.6309
  223    4.440   2184.22     0.1353     0.0049     0.0967     0.0444     0.1778     3.6415    71.0400     0.1067     0.5305
  224    4.460   2185.22     0.1408     0.0047     0.0899     0.0446     0.1792     3.3322    71.3600     0.1078     0.4327
  225    4.480   2186.22     0.1429     0.0049     0.0860     0.0448     0.1798     3.4028    71.6800     0.1081     0.3973
  226    4.500   2187.19     0.1427     0.0048     0.0832     0.0450     0.1773     3.4410    72.0000     0.1053     0.3555
  227    4.520   2188.19     0.1384     0.0051     0.0878     0.0452     0.1746     3.7678    72.3200     0.1023     0.4007
  228    4.540   2189.19     0.1295     0.0053     0.0913     0.0454     0.1675     4.0946    72.6400     0.0949     0.4763
  229    4.560   2190.19     0.1279     0.0055     0.0946     0.0456     0.1671     4.3255    72.9600     0.0941     0.5069
  230    4.580   2191.19     0.1283     0.0056     0.0972     0.0458     0.1690     4.3551    73.2800     0.0957     0.5336
  231    4.600   2192.24     0.1310     0.0054     0.0962     0.0460     0.1715     4.1482    73.6000     0.0979     0.5145
  232    4.620   2208.40     0.1348     0.0050     0.0959     0.0462     0.1751     3.8495    73.9200     0.1012     0.4937
  233    4.640   2224.65     0.1385     0.0046     0.0956     0.0464     0.1787     3.5196    74.2400     0.1045     0.4731
  234    4.660   2235.61     0.1433     0.0046     0.0985     0.0466     0.1843     3.2473    74.5600     0.1097     0.4644
  235    4.680   2236.63     0.1480     0.0044     0.1001     0.0468     0.1896     2.9647    74.8800     0.1147     0.4557
  236    4.700   2237.61     0.1499     0.0044     0.0960     0.0470     0.1918     2.9060    75.2000     0.1166     0.4524
  237    4.720   2238.60     0.1482     0.0044     0.0920     0.0472     0.1869     2.9048    75.5200     0.1113     0.4040
  238    4.740   2239.60     0.1439     0.0042     0.0912     0.0474     0.1821     2.9137    75.8400     0.1063     0.4100
  239    4.760   2240.58     0.1412     0.0044     0.0915     0.0476     0.1798     3.0859    76.1600     0.1036     0.4278
  240    4.780   2241.58     0.1410     0.0042     0.0903     0.0478     0.1786     3.0026    76.4800     0.1021     0.4096
  241    4.800   2242.55     0.1392     0.0045     0.0925     0.0480     0.1783     3.2260    76.8000     0.1015     0.4450
  242    4.820   2243.53     0.1373     0.0046     0.0930     0.0482     0.1757     3.3274    77.1200     0.0985     0.4382
  243    4.840   2244.53     0.1402     0.0043     0.0968     0.0484     0.1802     3.0706    77.4400     0.1028     0.4556
  244    4.860   2245.52     0.1416     0.0047     0.0930     0.0486     0.1813     3.3295    77.7600     0.1036     0.4439
  245    4.880   2246.52     0.1409     0.0046     0.0897     0.0488     0.1788     3.2988    78.0800     0.1007     0.4116
  246    4.900   2247.52     0.1356     0.0045     0.0922     0.0490     0.1740     3.3279    78.4000     0.0956     0.4421
  247    4.920   2248.51     0.1331     0.0049     0.0922     0.0492     0.1718     3.7159    78.7200     0.0931     0.4629
  248    4.940   2249.49     0.1314     0.0043     0.0944     0.0494     0.1708     3.2475    79.0400     0.0918     0.4838
  249    4.960   2250.47     0.1308     0.0046     0.0995     0.0496     0.1720     3.5026    79.3600     0.0927     0.5231
  250    4.980   2251.47     0.1326     0.0045     0.1006     0.0498     0.1748     3.4142    79.6800     0.0951     0.5336
  251    5.000   2252.45     0.1366     0.0041     0.1059     0.0500     0.1804     2.9766    80.0000     0.1004     0.5420
  252    5.020   2253.47     0.1345     0.0041     0.1092     0.0502     0.1801     3.0357    80.3200     0.0997     0.5857
  253    5.040   2254.46     0.1394     0.0043     0.1094     0.0504     0.1851     3.1416    80.6400     0.1045     0.5605
  254    5.060   2255.49     0.1583     0.0041     0.1066     0.0506     0.2039     2.6099    80.9600     0.1229     0.4710
  255    5.080   2256.47     0.1658     0.0044     0.1054     0.0508     0.2103     2.6623    81.2800     0.1290     0.4270
  256    5.100   2257.49     0.1776     0.0047     0.0874     0.0510     0.2181     2.6539    81.6000     0.1365     0.3323
  257    5.120   2258.47     0.1759     0.0045     0.0831     0.0512     0.2105     2.5731    81.9200     0.1286     0.2433
  258    5.140   2259.46     0.1729     0.0051     0.0902     0.0514     0.2100     2.9674    82.2400     0.1277     0.2880
  259    5.160   2260.46     0.1676     0.0052     0.0896     0.0516     0.2061     3.0682    82.5600     0.1235     0.3246
  260    5.180   2261.48     0.1608     0.0053     0.0861     0.0518     0.1970     3.2453    82.8800     0.1141     0.3017
  261    5.200   2262.46     0.1492     0.0053     0.0892     0.0520     0.1863     3.5111    83.2000     0.1031     0.3509
  262    5.220   2263.47     0.1427     0.0052     0.0934     0.0522     0.1813     3.6459    83.5200     0.0978     0.4074
  263    5.240   2264.44     0.1350     0.0053     0.0987     0.0524     0.1757     3.8889    83.8400     0.0919     0.4843
  264    5.260   2265.43     0.1306     0.0047     0.1060     0.0526     0.1738     3.6499    84.1600     0.0897     0.5622
  265    5.280   2266.44     0.1351     0.0046     0.1084     0.0528     0.1802     3.4417    84.4800     0.0957     0.5709
  266    5.300   2267.44     0.1360     0.0044     0.1112     0.0530     0.1827     3.2468    84.8000     0.0979     0.5929
  267    5.320   2268.41     0.1396     0.0038     0.1131     0.0532     0.1867     2.7680    85.1200     0.1015     0.5797
  268    5.340   2269.40     0.1427     0.0040     0.1171     0.0534     0.1916     2.8062    85.4400     0.1062     0.5943
  269    5.360   2270.38     0.1543     0.0042     0.1191     0.0536     0.2035     2.8180    85.7600     0.1177     0.5405
  270    5.380   2271.40     0.1643     0.0050     0.1192     0.0538     0.2145     3.0762    86.0800     0.1285     0.5128
  271    5.400   2272.39     0.1749     0.0057     0.1148     0.0540     0.2236     3.2932    86.4000     0.1372     0.4515
  272    5.420   2273.39     0.1781     0.0058     0.1078     0.0542     0.2246     3.2984    86.7200     0.1379     0.4102
  273    5.440   2274.30     0.1812     0.0058     0.0994     0.0544     0.2233     3.2180    87.0400     0.1363     0.3367
  274    5.460   2275.25     0.1768     0.0059     0.1021     0.0546     0.2194     3.3331    87.3600     0.1321     0.3540
  275    5.480   2276.22     0.1712     0.0058     0.1117     0.0548     0.2170     3.3292    87.6800     0.1293     0.4186
  276    5.500   2277.32     0.1765     0.0064     0.1174     0.0550     0.2250     3.6263    88.0000     0.1370     0.4418
  277    5.520   2278.30     0.1767     0.0058     0.1217     0.0552     0.2271     3.2680    88.3200     0.1388     0.4676
  278    5.540   2279.28     0.1802     0.0054     0.1243     0.0554     0.2318     2.9858    88.6400     0.1432     0.4715
  279    5.560   2280.25     0.1734     0.0050     0.1247     0.0556     0.2265     2.8184    88.9600     0.1375     0.5147
  280    5.580   2281.33     0.1716     0.0048     0.1211     0.0558     0.2218     2.7629    89.2800     0.1325     0.4801
  281    5.600   2282.30     0.1612     0.0044     0.1279     0.0560     0.2140     2.6525    89.6000     0.1244     0.5602
  282    5.620   2283.30     0.1599     0.0045     0.1351     0.0562     0.2153     2.7959    89.9200     0.1254     0.6031
  283    5.640   2284.30     0.1632     0.0048     0.1373     0.0564     0.2214     2.9165    90.2400     0.1312     0.6262
  284    5.660   2285.28     0.1707     0.0049     0.1380     0.0566     0.2283     2.9163    90.5600     0.1377     0.5856
  285    5.680   2286.26     0.1902     0.0047     0.1363     0.0568     0.2489     2.4696    90.8800     0.1581     0.5257
  286    5.700   2287.17     0.2061     0.0049     0.1294     0.0570     0.2610     2.4758    91.2000     0.1698     0.4348
  287    5.720   2288.00     0.2071     0.0050     0.1274     0.0572     0.2609     2.4026    91.5200     0.1693     0.4184
  288    5.740   2288.78     0.2004     0.0055     0.1331     0.0574     0.2552     2.7274    91.8400     0.1633     0.4473
  289    5.760   2289.79     0.1930     0.0055     0.1389     0.0576     0.2507     2.8433    92.1600     0.1585     0.5026
  290    5.780   2290.81     0.1912     0.0053     0.1324     0.0578     0.2481     2.7985    92.4800     0.1556     0.4983
  291    5.800   2291.78     0.1835     0.0056     0.1326     0.0580     0.2391     3.0266    92.8000     0.1463     0.5077
  292    5.820   2292.81     0.1794     0.0055     0.1293     0.0582     0.2356     3.0576    93.1200     0.1425     0.5303
  293    5.840   2293.76     0.1805     0.0056     0.1349     0.0584     0.2360     3.1265    93.4400     0.1426     0.5177
  294    5.860   2294.76     0.1786     0.0055     0.1394     0.0586     0.2365     3.0910    93.7600     0.1427     0.5549
  295    5.880   2295.73     0.1776     0.0054     0.1372     0.0588     0.2353     3.0394    94.0800     0.1412     0.5557
  296    5.900   2296.76     0.1815     0.0053     0.1376     0.0590     0.2392     2.9305    94.4000     0.1448     0.5403
  297    5.920   2297.79     0.1804     0.0054     0.1406     0.0592     0.2390     3.0142    94.7200     0.1442     0.5561
  298    5.940   2298.72     0.1801     0.0054     0.1386     0.0594     0.2390     3.0291    95.0400     0.1440     0.5616
  299    5.960   2299.67     0.1801     0.0055     0.1376     0.0596     0.2379     3.0406    95.3600     0.1426     0.5477
  300    5.980   2300.68     0.1802     0.0054     0.1369     0.0598     0.2379     2.9714    95.6800     0.1422     0.5455
  301    6.000   2301.73     0.1769     0.0055     0.1376     0.0600     0.2344     3.1092    96.0000     0.1384     0.5568
  302    6.020   2302.68     0.1780     0.0049     0.1389     0.0602     0.2362     2.7803    96.3200     0.1398     0.5605
  303    6.040   2303.71     0.1839     0.0049     0.1389     0.0604     0.2422     2.6936    96.6400     0.1456     0.5398
  304    6.060   2304.64     0.1895     0.0048     0.1399     0.0606     0.2477     2.5291    96.9600     0.1507     0.5167
  305    6.080   2305.67     0.1909     0.0052     0.1415     0.0608     0.2500     2.7075    97.2800     0.1528     0.5243
  306    6.100   2306.68     0.1887     0.0048     0.1436     0.0610     0.2489     2.5317    97.6000     0.1513     0.5441
  307    6.120   2307.62     0.1890     0.0050     0.1424     0.0612     0.2494     2.6488    97.9200     0.1515     0.5454
  308    6.140   2308.59     0.1923     0.0049     0.1394     0.0614     0.2510     2.5582    98.2400     0.1527     0.5134
  309    6.160   2309.59     0.1879     0.0048     0.1416     0.0616     0.2467     2.5541    98.5600     0.1481     0.5296
  310    6.180   2310.59     0.1886     0.0045     0.1442     0.0618     0.2490     2.3906    98.8800     0.1501     0.5463
  311    6.200   2311.60     0.1886     0.0051     0.1467     0.0620     0.2498     2.7460    99.2000     0.1506     0.5557
  312    6.220   2312.57     0.1983     0.0049     0.1460     0.0622     0.2598     2.4626    99.5200     0.1602     0.5245
  313    6.240   2313.50     0.2009     0.0052     0.1461     0.0624     0.2625     2.6056    99.8400     0.1626     0.5181
  314    6.260   2314.44     0.2057     0.0052     0.1410     0.0626     0.2655     2.5379   100.1600     0.1654     0.4826
  315    6.280   2315.47     0.2100     0.0056     0.1356     0.0628     0.2681     2.6772   100.4800     0.1676     0.4508
  316    6.300   2316.48     0.2097     0.0058     0.1372     0.0630     0.2668     2.7617   100.8000     0.1660     0.4397
  317    6.320   2317.47     0.2100     0.0060     0.1372     0.0632     0.2671     2.8414   101.1200     0.1660     0.4390
  318    6.340   2318.43     0.2067     0.0062     0.1410     0.0634     0.2653     2.9785   101.4400     0.1638     0.4650
  319    6.360   2319.43     0.2057     0.0060     0.1390     0.0636     0.2649     2.9165   101.7600     0.1631     0.4740
  320    6.380   2320.41     0.2052     0.0058     0.1419     0.0638     0.2649     2.8042   102.0800     0.1628     0.4814
  321    6.400   2321.41     0.2048     0.0052     0.1471     0.0640     0.2657     2.5573   102.4000     0.1633     0.4959
  322    6.420   2322.40     0.1987     0.0055     0.1528     0.0642     0.2622     2.7680   102.7200     0.1594     0.5446
  323    6.440   2323.40     0.2008     0.0055     0.1580     0.0644     0.2666     2.7832   103.0400     0.1636     0.5639
  324    6.460   2324.38     0.2026     0.0055     0.1599     0.0646     0.2694     2.6980   103.3600     0.1661     0.5696
  325    6.480   2325.38     0.2065     0.0053     0.1589     0.0648     0.2731     2.5482   103.6800     0.1694     0.5538
  326    6.500   2326.37     0.2066     0.0059     0.1602     0.0650     0.2735     2.8714   104.0000     0.1695     0.5559
  327    6.520   2327.35     0.2111     0.0060     0.1607     0.0652     0.2792     2.9047   104.3200     0.1749     0.5544
  328    6.540   2328.36     0.2141     0.0062     0.1549     0.0654     0.2796     2.9356   104.6400     0.1750     0.5175
  329    6.560   2329.38     0.2124     0.0063     0.1573     0.0656     0.2786     2.9664   104.9600     0.1736     0.5305
  330    6.580   2330.35     0.2109     0.0067     0.1592     0.0658     0.2770     3.1839   105.2800     0.1717     0.5334
  331    6.600   2331.34     0.2043     0.0069     0.1668     0.0660     0.2735     3.3464   105.6000     0.1679     0.5881
  332    6.620   2346.76     0.2076     0.0069     0.1629     0.0662     0.2767     3.3634   105.9200     0.1708     0.5758
  333    6.640   2371.77     0.2116     0.0065     0.1584     0.0664     0.2788     3.1821   106.2400     0.1726     0.5431
  334    6.660   2396.78     0.2156     0.0065     0.1540     0.0666     0.2809     3.1772   106.5600     0.1744     0.5104
  335    6.680   2412.05     0.2152     0.0062     0.1518     0.0668     0.2792     2.8473   106.8800     0.1723     0.4961
  336    6.700   2412.66     0.2100     0.0061     0.1598     0.0670     0.2761     2.8717   107.2000     0.1689     0.5356
  337    6.720   2413.31     0.2074     0.0059     0.1643     0.0672     0.2759     2.8211   107.5200     0.1684     0.5697
  338    6.740   2413.94     0.2106     0.0058     0.1684     0.0674     0.2807     2.7702   107.8400     0.1728     0.5752
  339    6.760   2414.56     0.2135     0.0055     0.1734     0.0676     0.2856     2.5993   108.1600     0.1775     0.5863
  340    6.780   2415.16     0.2186     0.0053     0.1713     0.0678     0.2908     2.4356   108.4800     0.1823     0.5712
  341    6.800   2415.82     0.2231     0.0056     0.1720     0.0680     0.2948     2.5161   108.8000     0.1860     0.5525
  342    6.820   2416.44     0.2273     0.0058     0.1696     0.0682     0.2995     2.5601   109.1200     0.1904     0.5443
  343    6.840   2417.07     0.2322     0.0062     0.1620     0.0684     0.3014     2.6791   109.4400     0.1919     0.5018
  344    6.860   2417.69     0.2356     0.0065     0.1581     0.0686     0.3032     2.7980   109.7600     0.1934     0.4776
  345    6.880   2418.32     0.2391     0.0070     0.1539     0.0688     0.3027     2.9142   110.0800     0.1927     0.4294
  346    6.900   2418.97     0.2331     0.0069     0.1632     0.0690     0.3001     2.9206   110.4000     0.1897     0.4776
  347    6.920   2419.62     0.2268     0.0064     0.1663     0.0692     0.2964     2.8258   110.7200     0.1857     0.5196
  348    6.940   2430.86     0.2272     0.0059     0.1687     0.0694     0.2978     2.5876   111.0400     0.1867     0.5274
  349    6.960   2445.51     0.2274     0.0063     0.1711     0.0696     0.2989     2.7853   111.3600     0.1876     0.5366
  350    6.980   2460.16     0.2276     0.0063     0.1757     0.0698     0.3001     2.7629   111.6800     0.1885     0.5459
  351    7.000   2461.76     0.2325     0.0061     0.1790     0.0700     0.3088     2.6292   112.0000     0.1968     0.5675
  352    7.020   2462.74     0.2446     0.0064     0.1649     0.0702     0.3152     2.6291   112.3200     0.2029     0.4833
  353    7.040   2463.79     0.2446     0.0068     0.1607     0.0704     0.3127     2.7753   112.6400     0.2000     0.4588
  354    7.060   2464.81     0.2421     0.0071     0.1575     0.0706     0.3082     2.9303   112.9600     0.1952     0.4441
  355    7.080   2465.84     0.2334     0.0073     0.1590     0.0708     0.2997     3.1197   113.2800     0.1864     0.4674
  356    7.100   2466.81     0.2377     0.0074     0.1596     0.0710     0.3046     3.1265   113.6000     0.1910     0.4618
  357    7.120   2467.81     0.2294     0.0074     0.1627     0.0712     0.2970     3.1943   113.9200     0.1831     0.4912
  358    7.140   2468.79     0.2257     0.0070     0.1670     0.0714     0.2954     3.0921   114.2400     0.1812     0.5223
  359    7.160   2469.79     0.2163     0.0066     0.1735     0.0716     0.2885     3.0535   114.5600     0.1739     0.5760
  360    7.180   2470.82     0.2191     0.0060     0.1788     0.0718     0.2937     2.7373   114.8800     0.1788     0.5913
  361    7.200   2471.84     0.2351     0.0062     0.1818     0.0720     0.3114     2.6546   115.2000     0.1962     0.5587
  362    7.220   2472.82     0.2502     0.0066     0.1787     0.0722     0.3251     2.6686   115.5200     0.2095     0.5062
  363    7.240   2473.83     0.2588     0.0069     0.1798     0.0724     0.3342     2.6954   115.8400     0.2184     0.4911
  364    7.260   2474.83     0.2683     0.0067     0.1688     0.0726     0.3411     2.4883   116.1600     0.2249     0.4474
  365    7.280   2475.80     0.2788     0.0073     0.1554     0.0728     0.3466     2.6351   116.4800     0.2301     0.3854
  366    7.300   2476.82     0.2651     0.0076     0.1572     0.0730     0.3309     2.8527   116.8000     0.2141     0.3906
  367    7.320   2477.82     0.2577     0.0074     0.1632     0.0732     0.3252     2.8702   117.1200     0.2081     0.4205
  368    7.340   2478.80     0.2497     0.0071     0.1646     0.0734     0.3198     2.8285   117.4400     0.2024     0.4622
  369    7.360   2479.77     0.2619     0.0069     0.1651     0.0736     0.3310     2.6582   117.7600     0.2132     0.4266
  370    7.380   2480.83     0.2588     0.0068     0.1709     0.0738     0.3305     2.6287   118.0800     0.2124     0.4566
  371    7.400   2481.82     0.2551     0.0070     0.1737     0.0740     0.3280     2.7390   118.4000     0.2096     0.4748
  372    7.420   2482.83     0.2581     0.0067     0.1726     0.0742     0.3298     2.6043   118.7200     0.2111     0.4572
  373    7.440   2483.83     0.2510     0.0067     0.1698     0.0744     0.3222     2.6493   119.0400     0.2032     0.4687
  374    7.460   2484.82     0.2432     0.0074     0.1748     0.0746     0.3161     3.0596   119.3600     0.1967     0.5026
  375    7.480   2485.80     0.2446     0.0075     0.1790     0.0748     0.3186     3.0819   119.6800     0.1989     0.5094
  376    7.500   2486.80     0.2493     0.0075     0.1787     0.0750     0.3237     3.0756   120.0000     0.2037     0.5015
  377    7.520   2487.88     0.2505     0.0068     0.1730     0.0752     0.3232     2.7092   120.3200     0.2029     0.4829
  378    7.540   2488.88     0.2451     0.0068     0.1717     0.0754     0.3171     2.7569   120.6400     0.1965     0.4887
  379    7.560   2489.88     0.3718     0.0083     0.1374     0.0756     0.4393     2.6202   120.9600     0.3184     0.2980
  380    7.580   2490.89     0.5406     0.0082     0.1047     0.0758     0.5868     1.4875   121.2800     0.4655     0.0733
  381    7.600   2491.91     0.4632     0.0103     0.1121     0.0760     0.5094     2.1861   121.6000     0.3878     0.0877
  382    7.620   2492.93     0.4275     0.0101     0.1223     0.0762     0.4774     2.3828   121.9200     0.3555     0.1198
  383    7.640   2493.94     0.4503     0.0102     0.1315     0.0764     0.5027     2.2413   122.2400     0.3804     0.1271
  384    7.660   2494.91     0.4004     0.0104     0.1428     0.0766     0.4600     2.5477   122.5600     0.3375     0.1940
  385    7.680   2495.93     0.3308     0.0109     0.1633     0.0768     0.3967     3.2154   122.8800     0.2738     0.2938
  386    7.700   2496.93     0.2652     0.0110     0.1821     0.0770     0.3413     4.0814   123.2000     0.2181     0.4779
  387    7.720   2497.93     0.2656     0.0092     0.1872     0.0772     0.3436     3.5002   123.5200     0.2200     0.4922
  388    7.740   2498.93     0.2623     0.0070     0.1876     0.0774     0.3413     2.6572   123.8400     0.2174     0.5091
  389    7.760   2499.91     0.2620     0.0073     0.1909     0.0776     0.3413     2.7882   124.1600     0.2171     0.5122
  390    7.780   2500.88     0.2651     0.0074     0.1928     0.0778     0.3471     2.7933   124.4800     0.2226     0.5275
  391    7.800   2501.86     0.2641     0.0073     0.2012     0.0780     0.3480     2.7789   124.8000     0.2232     0.5458
  392    7.820   2502.88     0.2651     0.0076     0.1939     0.0782     0.3480     2.8515   125.1200     0.2229     0.5347
  393    7.840   2503.91     0.2670     0.0078     0.1845     0.0784     0.3457     2.9292   125.4400     0.2202     0.4945
  394    7.860   2504.88     0.2650     0.0077     0.1823     0.0786     0.3420     2.8879   125.7600     0.2162     0.4842
  395    7.880   2505.89     0.2553     0.0075     0.1791     0.0788     0.3313     2.8904   126.0800     0.2052     0.4974
  396    7.900   2506.89     0.2551     0.0075     0.1802     0.0790     0.3309     2.9573   126.4000     0.2045     0.4965
  397    7.920   2507.89     0.2570     0.0068     0.1812     0.0792     0.3298     2.6211   126.7200     0.2031     0.4634
  398    7.940   2508.88     0.2435     0.0068     0.1965     0.0794     0.3246     2.7973   127.0400     0.1975     0.5756
  399    7.960   2509.90     0.2521     0.0061     0.1987     0.0796     0.3356     2.4246   127.3600     0.2082     0.5727
  400    7.980   2510.93     0.2571     0.0052     0.1976     0.0798     0.3398     2.0158   127.6800     0.2121     0.5519
  401    8.000   2511.94     0.2626     0.0051     0.1989     0.0800     0.3464     1.9408   128.0000     0.2184     0.5477
  402    8.020   2512.94     0.2727     0.0054     0.1902     0.0802     0.3531     2.0037   128.3200     0.2248     0.4950
  403    8.040   2513.96     0.2835     0.0056     0.1953     0.0804     0.3640     2.0191   128.6400     0.2354     0.4723
  404    8.060   2514.97     0.4634     0.0066     0.1602     0.0806     0.5406     1.5997   128.9600     0.4116     0.2788
  405    8.080   2515.97     0.5240     0.0068     0.1045     0.0808     0.5737     1.2768   129.2800     0.4444     0.0831
  406    8.100   2516.97     0.4521     0.0076     0.1156     0.0810     0.4992     1.6865   129.6000     0.3696     0.0839
  407    8.120   2517.99     0.4948     0.0082     0.0999     0.0812     0.5339     1.6322   129.9200     0.4040     0.0306
  408    8.140   2518.99     0.4408     0.0082     0.1174     0.0814     0.4871     1.8501   130.2400     0.3569     0.0813
  409    8.160   2520.01     0.4115     0.0085     0.1390     0.0816     0.4668     2.0567   130.5600     0.3362     0.1491
  410    8.180   2521.01     0.3534     0.0087     0.1550     0.0818     0.4173     2.3892   130.8800     0.2865     0.2471
  411    8.200   2522.03     0.2998     0.0099     0.1727     0.0820     0.3683     3.1490   131.2000     0.2371     0.3523
  412    8.220   2523.02     0.2634     0.0088     0.1839     0.0822     0.3389     3.3618   131.5200     0.2074     0.4705
  413    8.240   2524.02     0.2741     0.0086     0.1905     0.0824     0.3534     3.1531   131.8400     0.2215     0.4796
  414    8.260   2525.00     0.2812     0.0081     0.1921     0.0826     0.3625     2.9065   132.1600     0.2304     0.4828
  415    8.280   2526.00     0.2960     0.0081     0.1815     0.0828     0.3728     2.7209   132.4800     0.2403     0.4172
  416    8.300   2527.01     0.2731     0.0079     0.1937     0.0830     0.3527     2.8892   132.8000     0.2199     0.4852
  417    8.320   2528.03     0.2675     0.0077     0.2012     0.0832     0.3511     2.8822   133.1200     0.2180     0.5317
  418    8.340   2529.00     0.2643     0.0074     0.2028     0.0834     0.3493     2.7975   133.4400     0.2159     0.5520
  419    8.360   2530.01     0.2638     0.0073     0.2092     0.0836     0.3501     2.7612   133.7600     0.2164     0.5635
  420    8.380   2531.00     0.2573     0.0071     0.2118     0.0838     0.3462     2.7737   134.0800     0.2121     0.6032
  421    8.400   2532.03     0.2581     0.0065     0.2142     0.0840     0.3477     2.5320   134.4000     0.2133     0.6060
  422    8.420   2533.06     0.2580     0.0066     0.2186     0.0842     0.3491     2.5424   134.7200     0.2144     0.6199
  423    8.440   2534.05     0.2607     0.0066     0.2215     0.0844     0.3533     2.5207   135.0400     0.2183     0.6236
  424    8.460   2535.03     0.2596     0.0070     0.2198     0.0846     0.3520     2.6938   135.3600     0.2167     0.6258
  425    8.480   2536.03     0.2646     0.0066     0.2249     0.0848     0.3586     2.5265   135.6800     0.2230     0.6246
  426    8.500   2537.04     0.2728     0.0053     0.2218     0.0850     0.3667     1.9758   136.0000     0.2307     0.6002
  427    8.520   2538.06     0.2755     0.0062     0.2189     0.0852     0.3676     2.2361   136.3200     0.2313     0.5800
  428    8.540   2539.08     0.2795     0.0071     0.2181     0.0854     0.3707     2.5481   136.6400     0.2340     0.5631
  429    8.560   2540.08     0.2712     0.0066     0.2232     0.0856     0.3639     2.4136   136.9600     0.2270     0.5957
  430    8.580   2541.08     0.2581     0.0064     0.2306     0.0858     0.3543     2.4862   137.2800     0.2170     0.6599
  431    8.600   2542.15     0.2591     0.0064     0.2332     0.0860     0.3550     2.4436   137.6000     0.2174     0.6551
  432    8.620   2553.99     0.2177     0.0059     0.2377     0.0862     0.3172     2.8425   137.9200     0.1793     0.8451
  433    8.640   2570.11     0.2336     0.0061     0.2403     0.0864     0.3341     2.9337   138.2400     0.1959     0.7849
  434    8.660   2577.88     0.2450     0.0059     0.2452     0.0866     0.3475     2.4332   138.5600     0.2090     0.7541
  435    8.680   2578.84     0.2547     0.0063     0.2477     0.0868     0.3587     2.4619   138.8800     0.2198     0.7314
  436    8.700   2579.89     0.2649     0.0063     0.2465     0.0870     0.3692     2.3862   139.2000     0.2300     0.7013
  437    8.720   2580.89     0.2833     0.0068     0.2292     0.0872     0.3825     2.4168   139.5200     0.2430     0.6132
  438    8.740   2581.87     0.2951     0.0072     0.2184     0.0874     0.3880     2.4432   139.8400     0.2481     0.5394
  439    8.760   2582.87     0.3056     0.0072     0.2139     0.0876     0.3956     2.3409   140.1600     0.2554     0.4960
  440    8.780   2583.87     0.2952     0.0077     0.2154     0.0878     0.3864     2.6181   140.4800     0.2459     0.5261
  441    8.800   2584.89     0.2943     0.0079     0.2144     0.0880     0.3830     2.6938   140.8000     0.2422     0.5090
  442    8.820   2585.89     0.2944     0.0076     0.2257     0.0882     0.3875     2.5701   141.1200     0.2464     0.5416
  443    8.840   2586.89     0.2945     0.0081     0.2287     0.0884     0.3899     2.7349   141.4400     0.2485     0.5586
  444    8.860   2587.87     0.3034     0.0078     0.2231     0.0886     0.3987     2.5654   141.7600     0.2570     0.5383
  445    8.880   2588.85     0.3191     0.0081     0.2267     0.0888     0.4139     2.5322   142.0800     0.2719     0.5044
  446    8.900   2589.87     0.3268     0.0082     0.2200     0.0890     0.4196     2.5237   142.4000     0.2772     0.4766
  447    8.920   2590.87     0.3253     0.0087     0.2202     0.0892     0.4186     2.6863   142.7200     0.2759     0.4817
  448    8.940   2591.85     0.3257     0.0091     0.2186     0.0894     0.4178     2.7972   143.0400     0.2747     0.4723
  449    8.960   2592.87     0.3342     0.0092     0.2274     0.0896     0.4293     2.7790   143.3600     0.2859     0.4784
  450    8.980   2593.87     0.3438     0.0093     0.2251     0.0898     0.4391     2.6913   143.6800     0.2954     0.4641
  451    9.000   2594.88     0.3371     0.0086     0.2131     0.0900     0.4279     2.5529   144.0000     0.2839     0.4449
  452    9.020   2595.87     0.3199     0.0084     0.2116     0.0902     0.4085     2.6296   144.3200     0.2642     0.4575
  453    9.040   2596.88     0.3112     0.0075     0.2277     0.0904     0.4040     2.4094   144.6400     0.2594     0.5037
  454    9.060   2597.87     0.3130     0.0081     0.2394     0.0906     0.4119     2.5891   144.9600     0.2670     0.5428
  455    9.080   2598.92     0.3093     0.0081     0.2398     0.0908     0.4104     2.6198   145.2800     0.2651     0.5656
  456    9.100   2599.90     0.2982     0.0076     0.2326     0.0910     0.3967     2.5427   145.6000     0.2511     0.5714
  457    9.120   2600.90     0.2972     0.0072     0.2248     0.0912     0.3920     2.4302   145.9200     0.2461     0.5465
  458    9.140   2601.90     0.3209     0.0078     0.2197     0.0914     0.4123     2.4456   146.2400     0.2660     0.4740
  459    9.160   2602.90     0.3328     0.0090     0.2256     0.0916     0.4262     2.7245   146.5600     0.2796     0.4677
  460    9.180   2603.94     0.3398     0.0090     0.2259     0.0918     0.4341     2.6462   146.8800     0.2872     0.4626
  461    9.200   2604.92     0.3455     0.0091     0.2216     0.0920     0.4396     2.6279   147.2000     0.2924     0.4511
  462    9.220   2605.92     0.3441     0.0091     0.2244     0.0922     0.4376     2.6341   147.5200     0.2901     0.4498
  463    9.240   2606.93     0.3496     0.0093     0.2210     0.0924     0.4407     2.6497   147.8400     0.2928     0.4251
  464    9.260   2607.93     0.3409     0.0090     0.2332     0.0926     0.4387     2.6442   148.1600     0.2905     0.4822
  465    9.280   2608.92     0.3430     0.0091     0.2377     0.0928     0.4414     2.6652   148.4800     0.2930     0.4835
  466    9.300   2609.94     0.3703     0.0086     0.2398     0.0930     0.4723     2.3325   148.8000     0.3235     0.4637
  467    9.320   2610.91     0.3769     0.0091     0.2424     0.0932     0.4794     2.4304   149.1200     0.3303     0.4569
  468    9.340   2611.89     0.3849     0.0089     0.2508     0.0934     0.4888     2.3024   149.4400     0.3394     0.4537
  469    9.360   2612.93     0.3904     0.0091     0.2399     0.0936     0.4950     2.3313   149.7600     0.3453     0.4504
  470    9.380   2613.94     0.3991     0.0092     0.2530     0.0938     0.5043     2.3059   150.0800     0.3542     0.4422
  471    9.400   2614.93     0.4054     0.0093     0.2441     0.0940     0.5103     2.3084   150.4000     0.3599     0.4330
  472    9.420   2615.91     0.4102     0.0096     0.2400     0.0942     0.5112     2.3373   150.7200     0.3604     0.4059
  473    9.440   2616.90     0.3973     0.0102     0.2338     0.0944     0.4975     2.5582   151.0400     0.3464     0.4160
  474    9.460   2617.92     0.4029     0.0101     0.2326     0.0946     0.4992     2.5158   151.3600     0.3479     0.3876
  475    9.480   2618.89     0.3984     0.0104     0.2447     0.0948     0.4994     2.5846   151.6800     0.3477     0.4186
  476    9.500   2619.89     0.4002     0.0101     0.2532     0.0950     0.5058     2.5282   152.0000     0.3538     0.4420
  477    9.520   2620.93     0.4070     0.0095     0.2641     0.0952     0.5164     2.3400   152.3200     0.3640     0.4538
  478    9.540   2621.96     0.4016     0.0097     0.2743     0.0954     0.5157     2.4133   152.6400     0.3631     0.4859
  479    9.560   2622.95     0.3979     0.0104     0.2736     0.0956     0.5130     2.6082   152.9600     0.3600     0.4956
  480    9.580   2623.98     0.3945     0.0098     0.2766     0.0958     0.5096     2.4894   153.2800     0.3564     0.5006
  481    9.600   2624.99     0.3826     0.0101     0.2669     0.0960     0.4968     2.6225   153.6000     0.3432     0.5122
  482    9.620   2625.99     0.3681     0.0099     0.2511     0.0962     0.4766     2.7090   153.9200     0.3227     0.5034
  483    9.640   2626.97     0.3879     0.0100     0.2457     0.0964     0.4890     2.5883   154.2400     0.3348     0.4311
  484    9.660   2627.99     0.3883     0.0102     0.2419     0.0966     0.4895     2.6206   154.5600     0.3350     0.4314
  485    9.680   2629.02     0.3920     0.0102     0.2340     0.0968     0.4914     2.5973   154.8800     0.3365     0.4151
  486    9.700   2630.01     0.3626     0.0105     0.2384     0.0970     0.4632     2.8571   155.2000     0.3080     0.4627
  487    9.720   2631.02     0.3568     0.0107     0.2330     0.0972     0.4548     3.0049   155.5200     0.2992     0.4545
  488    9.740   2632.05     0.3769     0.0107     0.2288     0.0974     0.4739     2.8577   155.8400     0.3180     0.4197
  489    9.760   2633.03     0.3785     0.0107     0.2361     0.0976     0.4756     2.8065   156.1600     0.3194     0.4188
  490    9.780   2634.02     0.3874     0.0107     0.2325     0.0978     0.4847     2.7683   156.4800     0.3283     0.4081
  491    9.800   2635.04     0.3928     0.0108     0.2352     0.0980     0.4917     2.7436   156.8000     0.3349     0.4101
  492    9.820   2636.04     0.3677     0.0109     0.2255     0.0982     0.4656     2.9721   157.1200     0.3084     0.4375
  493    9.840   2637.05     0.3655     0.0103     0.2275     0.0984     0.4595     2.8205   157.4400     0.3021     0.4151
  494    9.860   2638.03     0.3433     0.0102     0.2368     0.0986     0.4421     2.9493   157.7600     0.2844     0.4807
  495    9.880   2639.06     0.3600     0.0101     0.2361     0.0988     0.4580     2.7906   158.0800     0.2999     0.4489
  496    9.900   2640.07     0.3684     0.0097     0.2355     0.0990     0.4677     2.6359   158.4000     0.3093     0.4445
  497    9.920   2641.06     0.3641     0.0099     0.2354     0.0992     0.4635     2.7220   158.7200     0.3048     0.4512
  498    9.940   2642.06     0.3769     0.0102     0.2414     0.0994     0.4778     2.7411   159.0400     0.3187     0.4421
  499    9.960   2643.06     0.3922     0.0105     0.2393     0.0996     0.4927     2.7044   159.3600     0.3333     0.4193
  500    9.980   2644.07     0.3962     0.0096     0.2456     0.0998     0.4980     2.4328   159.6800     0.3383     0.4212
  501   10.000   2645.10     0.4007     0.0096     0.2506     0.1000     0.5050     2.3991   160.0000     0.3450     0.4302
  502   10.020   2646.08     0.4213     0.0103     0.2530     0.1002     0.5269     2.5209   160.3200     0.3666     0.4127
  503   10.040   2647.08     0.4440     0.0101     0.2614     0.1004     0.5527     2.3263   160.6400     0.3921     0.4044
  504   10.060   2648.14     0.4686     0.0097     0.2713     0.1006     0.5813     2.0694   160.9600     0.4204     0.3990
  505   10.080   2649.14     0.4557     0.0106     0.2664     0.1008     0.5695     2.3245   161.2800     0.4082     0.4166
  506   10.100   2650.16     0.4574     0.0113     0.2463     0.1010     0.5622     2.4816   161.6000     0.4006     0.3709
  507   10.120   2651.16     0.4850     0.0118     0.2648     0.1012     0.5931     2.4511   161.9200     0.4312     0.3622
  508   10.140   2652.16     0.4893     0.0123     0.2751     0.1014     0.6044     2.5199   162.2400     0.4421     0.3903
  509   10.160   2653.16     0.4860     0.0128     0.2682     0.1016     0.5985     2.6416   162.5600     0.4359     0.3809
  510   10.180   2654.15     0.4964     0.0133     0.2847     0.1018     0.6129     2.6712   162.8800     0.4500     0.3905
  511   10.200   2655.19     0.5072     0.0138     0.3031     0.1020     0.6325     2.7408   163.2000     0.4693     0.4183
  512   10.220   2656.19     0.5120     0.0141     0.3171     0.1022     0.6431     2.7607   163.5200     0.4795     0.4375
  513   10.240   2657.17     0.5096     0.0145     0.3320     0.1024     0.6469     2.8415   163.8400     0.4830     0.4647
  514   10.260   2658.16     0.5102     0.0147     0.3418     0.1026     0.6524     2.8916   164.1600     0.4882     0.4833
  515   10.280   2659.19     0.5127     0.0140     0.3501     0.1028     0.6586     2.7425   164.4800     0.4942     0.4953
  516   10.300   2660.18     0.5023     0.0137     0.3583     0.1030     0.6522     2.7211   164.8000     0.4874     0.5210
  517   10.320   2661.20     0.4934     0.0135     0.3532     0.1032     0.6414     2.7363   165.1200     0.4763     0.5235
  518   10.340   2662.20     0.5069     0.0126     0.3666     0.1034     0.6583     2.4948   165.4400     0.4928     0.5218
  519   10.360   2663.20     0.5105     0.0119     0.3799     0.1036     0.6687     2.3284   165.7600     0.5029     0.5428
  520   10.380   2664.17     0.5218     0.0120     0.3757     0.1038     0.6807     2.3191   166.0800     0.5146     0.5334
  521   10.400   2665.23     0.5240     0.0118     0.3811     0.1040     0.6834     2.2580   166.4000     0.5170     0.5328
  522   10.420   2666.23     0.5200     0.0108     0.3763     0.1042     0.6796     2.0764   166.7200     0.5129     0.5378
  523   10.440   2667.21     0.5124     0.0108     0.3602     0.1044     0.6669     2.1115   167.0400     0.4999     0.5273
  524   10.460   2668.25     0.5070     0.0109     0.3383     0.1046     0.6520     2.1468   167.3600     0.4846     0.4963
  525   10.480   2669.18     0.4812     0.0109     0.3261     0.1048     0.6190     2.2156   167.6800     0.4513     0.4949
  526   10.500   2670.22     0.4741     0.0103     0.3293     0.1050     0.6125     2.1670   168.0000     0.4445     0.5051
  527   10.520   2671.28     0.4653     0.0094     0.3021     0.1052     0.5958     1.9949   168.3200     0.4275     0.4809
  528   10.540   2672.29     0.4684     0.0092     0.2816     0.1054     0.5886     1.9468   168.6400     0.4200     0.4303
  529   10.560   2673.29     0.4553     0.0096     0.2739     0.1056     0.5713     2.0796   168.9600     0.4024     0.4241
  530   10.580   2674.29     0.4533     0.0091     0.2623     0.1058     0.5671     1.9879   169.2800     0.3978     0.4150
  531   10.600   2675.31     0.4374     0.0086     0.2525     0.1060     0.5443     1.9885   169.6000     0.3747     0.3963
  532   10.620   2676.36     0.4106     0.0102     0.2375     0.1062     0.5133     2.5066   169.9200     0.3434     0.4029
  533   10.640   2677.36     0.4006     0.0154     0.2230     0.1064     0.4942     3.8370   170.2400     0.3240     0.3596
  534   10.660   2678.36     0.4231     0.0286     0.2320     0.1066     0.5187     7.0519   170.5600     0.3481     0.3504
  535   10.680   2679.39     0.8274     0.0296     0.2537     0.1068     0.9307     4.3105   170.8800     0.7598     0.1860
  536   10.700   2683.51     1.4925     0.0300     0.1597     0.1070     1.5636     2.3074   171.2000     1.3924     0.0436
  537   10.720   2695.38     1.3119     0.0304     0.1321     0.1072     1.3714     2.2647   171.5200     1.1999     0.0254
  538   10.740   2706.36     1.1109     0.0308     0.1312     0.1074     1.1609     2.6239   171.8400     0.9891     0.0126
  539   10.760   2707.31     0.7511     0.0307     0.1978     0.1076     0.8190     3.9443   172.1600     0.6468     0.0843
  540   10.780   2708.30     0.6342     0.0282     0.2452     0.1078     0.7327     4.4380   172.4800     0.5602     0.2264
  541   10.800   2709.32     0.6439     0.0204     0.2745     0.1080     0.7551     3.1761   172.8000     0.5823     0.2691
  542   10.820   2710.34     0.6597     0.0209     0.3005     0.1082     0.7824     3.1731   173.1200     0.6093     0.3021
  543   10.840   2711.30     0.6922     0.0204     0.3219     0.1084     0.8240     2.9677   173.4400     0.6505     0.3157
  544   10.860   2712.35     0.8216     0.0196     0.3366     0.1086     0.9621     2.4400   173.7600     0.7884     0.2868
  545   10.880   2713.35     0.9768     0.0179     0.3215     0.1088     1.1123     1.8584   174.0800     0.9382     0.2279
  546   10.900   2714.35     1.0289     0.0187     0.2918     0.1090     1.1527     1.8104   174.4000     0.9783     0.1898
  547   10.920   2715.32     0.8439     0.0193     0.3338     0.1092     0.9769     2.2550   174.7200     0.8022     0.2593
  548   10.940   2716.30     0.7073     0.0206     0.3888     0.1094     0.8626     2.7333   175.0400     0.6875     0.3786
  549   10.960   2717.35     0.6836     0.0195     0.4124     0.1096     0.8554     2.8410   175.3600     0.6800     0.4401
  550   10.980   2718.35     0.7003     0.0197     0.4212     0.1098     0.8743     2.8588   175.6800     0.6986     0.4360
  551   11.000   2719.33     0.6899     0.0187     0.4374     0.1100     0.8701     2.7084   176.0000     0.6941     0.4596
  552   11.020   2720.38     0.7613     0.0148     0.4445     0.1102     0.9470     2.0646   176.3200     0.7707     0.4309
  553   11.040   2721.43     0.8401     0.0129     0.4374     0.1104     1.0263     1.5465   176.6400     0.8497     0.3921
  554   11.060   2722.43     0.9181     0.0121     0.4326     0.1106     1.0975     1.3082   176.9600     0.9205     0.3441
  555   11.080   2723.42     1.1153     0.0147     0.4601     0.1108     1.3026     1.5203   177.2800     1.1253     0.3002
  556   11.100   2724.48     1.8670     0.0273     0.4037     0.1110     2.0551     1.5476   177.6000     1.8775     0.1830
  557   11.120   2725.48     2.5876     0.0301     0.1371     0.1112     2.6817     1.1859   177.9200     2.5038     0.0459
  558   11.140   2726.45     2.7158     0.0297     0.0925     0.1114     2.7561     1.0773   178.2400     2.5779    -0.0060
  559   11.160   2727.47     2.1861     0.0303     0.1013     0.1116     2.2240     1.3027   178.5600     2.0455    -0.0101
  560   11.180   2728.45     1.5640     0.0303     0.1153     0.1118     1.6107     1.8264   178.8800     1.4319    -0.0003
  561   11.200   2729.50     1.0083     0.0297     0.1918     0.1120     1.0750     2.7522   179.2000     0.8958     0.0564
  562   11.220   2730.48     0.7181     0.0278     0.2618     0.1122     0.8216     3.8335   179.5200     0.6421     0.2093
  563   11.240   2731.47     0.6959     0.0203     0.2975     0.1124     0.8174     2.9235   179.8400     0.6375     0.2771
  564   11.260   2732.44     0.7133     0.0145     0.3163     0.1126     0.8412     1.9580   180.1600     0.6610     0.2916
  565   11.280   2733.40     0.6505     0.0149     0.3463     0.1128     0.7918     2.2476   180.4800     0.6113     0.3656
  566   11.300   2734.43     0.6644     0.0156     0.3709     0.1130     0.8164     2.3497   180.8000     0.6356     0.3916
  567   11.320   2735.46     0.6893     0.0158     0.3813     0.1132     0.8488     2.3042   181.1200     0.6677     0.3994
  568   11.340   2736.45     0.7154     0.0167     0.3838     0.1134     0.8751     2.2941   181.4400     0.6936     0.3849
  569   11.360   2737.46     0.6849     0.0162     0.4032     0.1136     0.8508     2.3798   181.7600     0.6691     0.4207
  570   11.380   2738.46     0.6639     0.0154     0.4224     0.1138     0.8387     2.3092   182.0800     0.6566     0.4606
  571   11.400   2739.46     0.6600     0.0155     0.4439     0.1140     0.8435     2.3508   182.4000     0.6611     0.4885
  572   11.420   2740.43     0.6970     0.0148     0.4418     0.1142     0.8848     2.2027   182.7200     0.7021     0.4745
  573   11.440   2741.42     0.6855     0.0123     0.4485     0.1144     0.8723     1.7936   183.0400     0.6892     0.4792
  574   11.460   2742.43     0.6861     0.0124     0.4514     0.1146     0.8781     1.7760   183.3600     0.6948     0.4935
  575   11.480   2743.45     0.7797     0.0157     0.4335     0.1148     0.9644     2.0157   183.6800     0.7807     0.4164
  576   11.500   2744.48     0.7845     0.0173     0.4447     0.1150     0.9657     2.1829   184.0000     0.7817     0.4060
  577   11.520   2745.50     0.7849     0.0183     0.4596     0.1152     0.9786     2.3847   184.3200     0.7943     0.4369
  578   11.540   2746.53     0.9894     0.0184     0.3951     0.1154     1.1706     1.8951   184.6400     0.9860     0.3230
  579   11.560   2747.52     1.0974     0.0189     0.3300     0.1156     1.2351     1.7049   184.9600     1.0502     0.2030
  580   11.580   2748.50     0.9331     0.0172     0.3496     0.1158     1.0735     1.7464   185.2800     0.8882     0.2478
  581   11.600   2749.54     0.7383     0.0225     0.4176     0.1160     0.9071     3.0194   185.6000     0.7215     0.3977
  582   11.620   2750.52     0.6864     0.0252     0.4506     0.1162     0.8716     3.6729   185.9200     0.6857     0.4735
  583   11.640   2751.56     0.7505     0.0218     0.4705     0.1164     0.9450     2.9493   186.2400     0.7588     0.4572
  584   11.660   2752.53     0.9481     0.0138     0.4468     0.1166     1.1469     1.5360   186.5600     0.9603     0.3752
  585   11.680   2753.56     1.1207     0.0103     0.2553     0.1168     1.2542     0.8948   186.8800     1.0673     0.1853
  586   11.700   2754.61     1.0121     0.0109     0.3072     0.1170     1.1246     1.0624   187.2000     0.9374     0.1617
  587   11.720   2755.59     0.8756     0.0152     0.3951     0.1172     1.0321     1.7567   187.5200     0.8446     0.3025
  588   11.740   2756.56     1.7598     0.0241     0.4151     0.1174     1.9354     1.4898   187.8400     1.7475     0.1776
  589   11.760   2757.56     2.6863     0.0325     0.2510     0.1176     2.8274     1.2655   188.1600     2.6393     0.0846
  590   11.780   2758.54     2.8995     0.0346     0.1014     0.1178     2.9529     1.1849   188.4800     2.7644     0.0030
  591   11.800   2759.60     2.4438     0.0378     0.1042     0.1180     2.4873     1.5188   188.8000     2.2985    -0.0062
  592   11.820   2760.59     1.9842     0.0394     0.1145     0.1182     2.0289     1.9532   189.1200     1.8398    -0.0063
  593   11.840   2761.59     1.5742     0.0370     0.1441     0.1184     1.6305     2.3230   189.4400     1.4410     0.0110
  594   11.860   2762.57     1.3725     0.0335     0.1794     0.1186     1.4426     2.4201   189.7600     1.2528     0.0388
  595   11.880   2763.60     1.1786     0.0281     0.2187     0.1188     1.2661     2.2544   190.0800     1.0760     0.0835
  596   11.900   2764.59     1.1545     0.0252     0.2387     0.1190     1.2518     2.1745   190.4000     1.0614     0.1060
  597   11.920   2765.62     1.1594     0.0234     0.2637     0.1192     1.2650     2.0233   190.7200     1.0743     0.1231
  598   11.940   2766.60     1.1672     0.0230     0.3054     0.1194     1.2883     1.9678   191.0400     1.0972     0.1539
  599   11.960   2767.61     1.2731     0.0209     0.3095     0.1196     1.4065     1.6700   191.3600     1.2152     0.1637
  600   11.980   2768.65     1.5282     0.0266     0.2861     0.1198     1.6511     1.7977   191.6800     1.4594     0.1186
  601   12.000   2769.66     1.7242     0.0323     0.2614     0.1200     1.8368     2.0452   192.0000     1.6448     0.0904
  602   12.020   2770.68     1.9464     0.0308     0.2186     0.1202     2.0492     1.5801   192.3200     1.8569     0.0671
  603   12.040   2771.71     2.0902     0.0303     0.1701     0.1204     2.1627     1.4460   192.6400     1.9701     0.0264
  604   12.060   2772.68     1.8292     0.0345     0.1933     0.1206     1.9032     1.7702   192.9600     1.7103     0.0326
  605   12.080   2773.67     1.2824     0.0347     0.2152     0.1208     1.3682     2.5338   193.2800     1.1749     0.0710
  606   12.100   2774.73     0.9951     0.0344     0.3144     0.1210     1.1166     3.4553   193.6000     0.9230     0.1822
  607   12.120   2775.76     1.0913     0.0311     0.2987     0.1212     1.2272     2.8939   193.9200     1.0333     0.1960
  608   12.140   2776.73     1.1202     0.0240     0.2507     0.1214     1.2339     2.1229   194.2400     1.0397     0.1436
  609   12.160   2777.73     0.9451     0.0249     0.3035     0.1216     1.0634     2.6048   194.5600     0.8688     0.1851
  610   12.180   2778.74     0.7638     0.0272     0.3666     0.1218     0.9107     3.5069   194.8800     0.7158     0.3189
  611   12.200   2779.74     0.7642     0.0233     0.3987     0.1220     0.9276     3.0538   195.2000     0.7324     0.3647
  612   12.220   2780.74     0.8485     0.0195     0.4056     0.1222     1.0206     2.3262   195.5200     0.8251     0.3486
  613   12.240   2781.74     1.0177     0.0194     0.3951     0.1224     1.1836     1.9216   195.8400     0.9877     0.2761
  614   12.260   2782.76     1.0310     0.0183     0.4109     0.1226     1.1972     1.7671   196.1600     1.0010     0.2730
  615   12.280   2783.76     0.7658     0.0172     0.4555     0.1228     0.9508     2.2150   196.4800     0.7543     0.4211
  616   12.300   2784.77     0.7131     0.0135     0.4889     0.1230     0.9153     1.8717   196.8000     0.7185     0.4989
  617   12.320   2785.79     0.7235     0.0141     0.5076     0.1232     0.9344     1.9633   197.1200     0.7372     0.5143
  618   12.340   2786.79     0.8891     0.0234     0.5281     0.1234     1.1079     2.6288   197.4400     0.9105     0.4366
  619   12.360   2787.80     1.3422     0.0332     0.5221     0.1236     1.5634     2.7205   197.7600     1.3657     0.2953
  620   12.380   2788.83     1.8084     0.0387     0.4663     0.1238     2.0100     2.1776   198.0800     1.8119     0.1966
  621   12.400   2789.80     2.5540     0.0425     0.3416     0.1240     2.7107     1.7626   198.4000     2.5123     0.0992
  622   12.420   2790.83     2.8365     0.0446     0.2062     0.1242     2.9310     1.5756   198.7200     2.7323     0.0370
  623   12.440   2791.80     2.6669     0.0504     0.2153     0.1244     2.7587     1.7488   199.0400     2.5596     0.0368
  624   12.460   2792.78     2.2462     0.0499     0.2187     0.1246     2.3398     2.1047   199.3600     2.1405     0.0460
  625   12.480   2793.83     2.0719     0.0431     0.2537     0.1248     2.1758     1.9197   199.6800     1.9761     0.0621
  626   12.500   2794.87     1.9644     0.0355     0.2776     0.1250     2.0715     1.7194   200.0000     1.8715     0.0699
  627   12.520   2795.88     1.7693     0.0308     0.3173     0.1252     1.8889     1.7191   200.3200     1.6886     0.0945
  628   12.540   2796.91     1.7947     0.0314     0.3516     0.1254     1.9463     1.8079   200.6400     1.7456     0.1356
  629   12.560   2797.99     2.3897     0.0374     0.2641     0.1256     2.5175     1.7339   200.9600     2.3165     0.0781
  630   12.580   2810.08     2.7278     0.0333     0.2150     0.1258     2.8252     1.2957   201.2800     2.6239     0.0418
  631   12.600   2824.36     2.9204     0.0369     0.1740     0.1260     2.9972     1.4384   201.6000     2.7956     0.0207
  632   12.620   2827.69     2.8579     0.0339     0.1816     0.1262     2.9357     1.1862   201.9200     2.7338     0.0216
  633   12.640   2828.66     2.7429     0.0346     0.2129     0.1264     2.8306     1.2568   202.2400     2.6284     0.0316
  634   12.660   2829.71     2.4866     0.0398     0.2237     0.1266     2.5769     1.5483   202.5600     2.3744     0.0376
  635   12.680   2830.70     2.3712     0.0389     0.2523     0.1268     2.4714     1.6425   202.8800     2.2686     0.0493
  636   12.700   2831.74     2.1980     0.0603     0.2855     0.1270     2.3139     2.6740   203.2000     2.1107     0.0705
  637   12.720   2832.72     2.2545     0.0605     0.3344     0.1272     2.3904     2.7050   203.5200     2.1869     0.0898
  638   12.740   2833.75     2.4787     0.0537     0.3169     0.1274     2.6095     2.1937   203.8400     2.4057     0.0767
  639   12.760   2834.72     3.2383     0.0487     0.1950     0.1276     3.3248     1.5629   204.1600     3.1207     0.0267
  640   12.780   2835.72     2.2540     0.0460     0.2345     0.1278     2.3396     2.0011   204.4800     2.1351     0.0359
  641   12.800   2836.74     1.5320     0.0414     0.3768     0.1280     1.6782     2.6203   204.8000     1.4734     0.1495
  642   12.820   2837.76     1.5638     0.0466     0.4726     0.1282     1.7481     2.9949   205.1200     1.5429     0.2012
  643   12.840   2838.77     2.4467     0.0601     0.4269     0.1284     2.6461     2.6704   205.4400     2.4407     0.1423
  644   12.860   2839.78     3.9664     0.0646     0.2318     0.1286     4.0959     1.6964   205.7600     3.8902     0.0463
  645   12.880   2840.81     4.3978     0.0632     0.0536     0.1288     4.4223     1.4387   206.0800     4.2162    -0.0167
  646   12.900   2841.78     3.4734     0.0622     0.0939     0.1290     3.5082     1.7658   206.4000     3.3018    -0.0140
  647   12.920   2842.78     2.5744     0.0607     0.1435     0.1292     2.6255     2.0480   206.7200     2.4188    -0.0031
  648   12.940   2843.78     1.8048     0.0587     0.2078     0.1294     1.8649     2.7335   207.0400     1.6579     0.0084
  649   12.960   2844.81     1.3086     0.0555     0.3635     0.1296     1.4483     4.1324   207.3600     1.2410     0.1637
  650   12.980   2845.82     1.3201     0.0454     0.4078     0.1298     1.4845     3.4883   207.6800     1.2768     0.2049
  651   13.000   2846.84     1.2905     0.0337     0.4303     0.1300     1.4695     2.6134   208.0000     1.2615     0.2348
  652   13.020   2847.84     1.3191     0.0334     0.4467     0.1302     1.5035     2.5310   208.3200     1.2952     0.2386
  653   13.040   2848.89     1.2734     0.0326     0.4569     0.1304     1.4668     2.5569   208.6400     1.2581     0.2622
  654   13.060   2849.89     1.2607     0.0343     0.4817     0.1306     1.4588     2.7150   208.9600     1.2498     0.2729
  655   13.080   2850.88     1.2471     0.0353     0.5069     0.1308     1.4569     2.8272   209.2800     1.2476     0.2955
  656   13.100   2851.92     1.2455     0.0343     0.5097     0.1310     1.4597     2.7514   209.6000     1.2501     0.3031
  657   13.120   2852.89     1.2123     0.0342     0.5063     0.1312     1.4244     2.8215   209.9200     1.2145     0.3079
  658   13.140   2853.90     1.1957     0.0346     0.5160     0.1314     1.4104     2.8898   210.2400     1.2002     0.3164
  659   13.160   2854.95     1.1660     0.0334     0.5393     0.1316     1.3877     2.8530   210.5600     1.1772     0.3367
  660   13.180   2855.93     1.1521     0.0329     0.5762     0.1318     1.3899     2.8551   210.8800     1.1790     0.3683
  661   13.200   2856.94     1.1788     0.0314     0.6115     0.1320     1.4303     2.6799   211.2000     1.2191     0.3830
  662   13.220   2857.92     1.1980     0.0321     0.6405     0.1322     1.4622     2.6784   211.5200     1.2507     0.3972
  663   13.240   2858.93     1.2135     0.0462     0.6467     0.1324     1.4832     3.7881   211.8400     1.2713     0.4008
  664   13.260   2859.94     1.2316     0.0589     0.6454     0.1326     1.5039     4.7885   212.1600     1.2917     0.3992
  665   13.280   2860.93     1.2421     0.0573     0.6404     0.1328     1.5108     4.6284   212.4800     1.2983     0.3905
  666   13.300   2861.94     1.2291     0.0593     0.6271     0.1330     1.4941     4.8179   212.8000     1.2813     0.3887
  667   13.320   2862.94     1.2149     0.0609     0.6319     0.1332     1.4786     4.9893   213.1200     1.2655     0.3909
  668   13.340   3357.68     1.3361     0.0594     0.4613     0.1334     1.5553     4.8809   213.4400     1.3419     0.3003
  669   13.360   4145.72     1.5271     0.0547     0.2905     0.1336     1.6724     4.2621   213.7600     1.4587     0.1519
  670   13.380   4398.64     1.4980     0.0514     0.3299     0.1338     1.6293     3.4010   214.0800     1.4152     0.1265
  671   13.400   4399.62     1.3929     0.0474     0.3741     0.1340     1.5442     3.3861   214.4000     1.3298     0.1702
  672   13.420   4400.64     1.2780     0.0458     0.4444     0.1342     1.4538     3.5260   214.7200     1.2391     0.2298
  673   13.440   4401.63     1.1751     0.0393     0.4987     0.1344     1.3792     3.3170   215.0400     1.1642     0.3023
  674   13.460   4402.64     1.1152     0.0342     0.5290     0.1346     1.3336     3.0662   215.3600     1.1182     0.3445
  675   13.480   4403.63     1.1566     0.0323     0.5694     0.1348     1.3900     2.8061   215.6800     1.1743     0.3584
  676   13.500   4404.63     1.2349     0.0324     0.6000     0.1350     1.4810     2.6384   216.0000     1.2650     0.3565
  677   13.520   4405.62     1.2859     0.0337     0.6316     0.1352     1.5471     2.6291   216.3200     1.3307     0.3657
  678   13.540   4406.64     1.2942     0.0339     0.6400     0.1354     1.5639     2.6161   216.6400     1.3473     0.3762
  679   13.560   4407.63     1.2949     0.0337     0.6409     0.1356     1.5634     2.6027   216.9600     1.3465     0.3741
  680   13.580   4408.64     1.2749     0.0366     0.6431     0.1358     1.5443     2.8550   217.2800     1.3270     0.3811
  681   13.600   4409.63     1.2394     0.0357     0.6470     0.1360     1.5103     2.8750   217.6000     1.2927     0.3938
  682   13.620   4410.64     1.2287     0.0356     0.6560     0.1362     1.5026     2.8902   217.9200     1.2846     0.4016
  683   13.640   4411.63     1.2118     0.0356     0.6580     0.1364     1.4867     2.9281   218.2400     1.2685     0.4086
  684   13.660   4412.66     1.1903     0.0336     0.6740     0.1366     1.4712     2.8277   218.5600     1.2526     0.4249
  685   13.680   4413.61     1.1674     0.0323     0.6921     0.1368     1.4556     2.7433   218.8800     1.2367     0.4442
  686   13.700   4414.63     1.1441     0.0316     0.6931     0.1370     1.4345     2.7598   219.2000     1.2153     0.4561
  687   13.720   4415.60     1.1294     0.0310     0.7018     0.1372     1.4216     2.7342   219.5200     1.2020     0.4646
  688   13.740   4416.59     1.1160     0.0322     0.7148     0.1374     1.4155     2.8875   219.8400     1.1956     0.4815
  689   13.760   4417.58     1.1187     0.0308     0.7090     0.1376     1.4170     2.7536   220.1600     1.1968     0.4785
  690   13.780   4418.56     1.0984     0.0326     0.6989     0.1378     1.3927     2.9485   220.4800     1.1722     0.4803
  691   13.800   4419.57     1.0989     0.0327     0.7035     0.1380     1.3924     2.9981   220.8000     1.1716     0.4787
  692   13.820   4420.57     1.1679     0.0333     0.7178     0.1382     1.4681     2.8634   221.1200     1.2470     0.4625
  693   13.840   4421.55     1.2023     0.0320     0.7449     0.1384     1.5116     2.6700   221.4400     1.2902     0.4636
  694   13.860   4422.55     1.2478     0.0305     0.7337     0.1386     1.5582     2.4512   221.7600     1.3364     0.4493
  695   13.880   4423.55     1.2787     0.0327     0.7553     0.1388     1.5917     2.5608   222.0800     1.3696     0.4427
  696   13.900   4424.55     1.3219     0.0342     0.7703     0.1390     1.6434     2.6043   222.4000     1.4210     0.4410
  697   13.920   4425.56     1.4334     0.0354     0.8075     0.1392     1.7668     2.5091   222.7200     1.5440     0.4241
  698   13.940   4426.53     1.7257     0.0371     0.7935     0.1394     2.0668     2.1913   223.0400     1.8437     0.3655
  699   13.960   4427.55     1.9884     0.0394     0.6804     0.1396     2.2951     1.9853   223.3600     2.0717     0.2851
  700   13.980   4428.53     1.9623     0.0394     0.6441     0.1398     2.2407     1.9966   223.6800     2.0170     0.2593
  701   14.000   4429.54     1.7825     0.0402     0.6591     0.1400     2.0597     2.2261   224.0000     1.8357     0.2834
  702   14.020   4430.56     1.5834     0.0420     0.7370     0.1402     1.8825     2.6319   224.3200     1.6582     0.3451
  703   14.040   4431.56     1.4802     0.0369     0.7348     0.1404     1.7900     2.4811   224.6400     1.5654     0.3815
  704   14.060   4432.56     1.4531     0.0315     0.7904     0.1406     1.7770     2.1578   224.9600     1.5520     0.4062
  705   14.080   4433.57     1.4102     0.0290     0.7975     0.1408     1.7457     2.0495   225.2800     1.5205     0.4329
  706   14.100   4434.57     1.3725     0.0281     0.7785     0.1410     1.7020     2.0377   225.6000     1.4764     0.4359
  707   14.120   4435.56     1.3198     0.0257     0.7777     0.1412     1.6460     1.9351   225.9200     1.4201     0.4476
  708   14.140   4436.52     1.2561     0.0239     0.7624     0.1414     1.5804     1.8956   226.2400     1.3542     0.4659
  709   14.160   4437.57     1.2189     0.0248     0.7403     0.1416     1.5306     2.0222   226.5600     1.3040     0.4606
  710   14.180   4438.56     1.1994     0.0263     0.7254     0.1418     1.5073     2.1913   226.8800     1.2804     0.4617
  711   14.200   4439.54     1.2086     0.0260     0.7095     0.1420     1.5084     2.1545   227.2000     1.2812     0.4464
  712   14.220   4440.54     1.2438     0.0246     0.6966     0.1422     1.5397     2.0128   227.5200     1.3122     0.4287
  713   14.240   4441.50     1.4011     0.0237     0.6430     0.1424     1.6805     1.7205   227.8400     1.4527     0.3605
  714   14.260   4442.50     1.6773     0.0225     0.5569     0.1426     1.9235     1.3785   228.1600     1.6954     0.2621
  715   14.280   4443.53     1.9260     0.0217     0.4862     0.1428     2.1388     1.1468   228.4800     1.9103     0.1907
  716   14.300   4444.53     2.1346     0.0212     0.4360     0.1430     2.3238     1.0034   228.8000     2.0950     0.1469
  717   14.320   4445.48     2.2613     0.0211     0.3991     0.1432     2.4335     0.9404   229.1200     2.2044     0.1211
  718   14.340   4446.49     2.3852     0.0234     0.3671     0.1434     2.5457     0.9839   229.4400     2.3162     0.1031
  719   14.360   4447.50     2.4631     0.0344     0.3436     0.1436     2.6103     1.4104   229.7600     2.3805     0.0869
  720   14.380   4448.49     2.4883     0.0468     0.3277     0.1438     2.6264     1.8809   230.0800     2.3963     0.0772
  721   14.400   4449.50     2.4628     0.0475     0.3241     0.1440     2.5992     1.9245   230.4000     2.3688     0.0763
  722   14.420   4450.49     2.4044     0.0455     0.3274     0.1442     2.5409     1.8846   230.7200     2.3102     0.0783
  723   14.440   4451.49     2.3370     0.0401     0.3371     0.1444     2.4772     1.7109   231.0400     2.2461     0.0844
  724   14.460   4461.73     2.3876     0.0409     0.2788     0.1446     2.5176     2.0486   231.3600     2.2862     0.0743
  725   14.480   4488.00     2.6529     0.0481     0.1899     0.1448     2.7456     2.4025   231.6800     2.5139     0.0327
  726   14.500   4501.42     2.8117     0.0478     0.2070     0.1450     2.8939     1.7018   232.0000     2.6619     0.0191
  727   14.520   4502.47     2.7748     0.0584     0.2382     0.1452     2.8695     2.0946   232.3200     2.6372     0.0305
  728   14.540   4503.54     2.5918     0.0955     0.2859     0.1454     2.7045     3.7321   232.6400     2.4719     0.0497
  729   14.560   4504.55     3.3794     0.1059     0.3303     0.1456     3.5132     3.1865   232.9600     3.2802     0.0527
  730   14.580   4505.50     3.6831     0.1010     0.3212     0.1458     3.8213     2.7472   233.2800     3.5880     0.0511
  731   14.600   4506.50     3.2964     0.0968     0.1541     0.1460     3.3838     2.8816   233.6000     3.1502     0.0194
  732   14.620   4507.51     2.7209     0.1018     0.1767     0.1462     2.7880     3.6776   233.9200     2.5540     0.0054
  733   14.640   4508.55     2.4913     0.0933     0.2373     0.1464     2.5669     3.6759   234.2400     2.3327     0.0151
  734   14.660   4509.53     2.1347     0.0848     0.3571     0.1466     2.2925     3.9721   234.5600     2.0580     0.1114
  735   14.680   4510.52     2.1357     0.0715     0.2517     0.1468     2.2661     3.2730   234.8800     2.0312     0.0796
  736   14.700   4511.51     1.6806     0.0527     0.2699     0.1470     1.7932     3.0947   235.2000     1.5580     0.0777
  737   14.720   4512.51     1.4525     0.0486     0.3555     0.1472     1.5891     3.3077   235.5200     1.3536     0.1317
  738   14.740   4513.52     1.3918     0.0441     0.3915     0.1474     1.5507     3.1618   235.8400     1.3148     0.1756
  739   14.760   4514.53     1.3741     0.0291     0.4128     0.1476     1.5439     2.1119   236.1600     1.3077     0.1963
  740   14.780   4515.52     1.3509     0.0271     0.4347     0.1478     1.5303     2.0042   236.4800     1.2938     0.2159
  741   14.800   4516.52     1.3484     0.0251     0.4643     0.1480     1.5391     1.8638   236.8000     1.3023     0.2351
  742   14.820   4517.49     1.3279     0.0217     0.4884     0.1482     1.5325     1.6269   237.1200     1.2954     0.2616
  743   14.840   4518.47     1.3017     0.0308     0.5233     0.1484     1.5142     2.3668   237.4400     1.2767     0.2799
  744   14.860   4519.46     1.3172     0.0359     0.5766     0.1486     1.5518     2.7449   237.7600     1.3141     0.3121
  745   14.880   4520.52     1.6239     0.0368     0.6264     0.1488     1.8806     2.3521   238.0800     1.6425     0.2825
  746   14.900   4521.53     2.1703     0.0311     0.5927     0.1490     2.4300     1.4626   238.4000     2.1916     0.2146
  747   14.920   4522.52     2.2890     0.0306     0.3824     0.1492     2.4761     1.3221   238.7200     2.2374     0.1320
  748   14.940   4523.48     1.9006     0.0590     0.4280     0.1494     2.0702     2.7726   239.0400     1.8312     0.1391
  749   14.960   4524.48     1.6694     0.0812     0.5634     0.1496     1.8901     4.6466   239.3600     1.6507     0.2277
  750   14.980   4525.48     1.7289     0.0881     0.6464     0.1498     1.9879     5.2919   239.6800     1.7482     0.2672
  751   15.000   4526.50     3.1309     0.0816     0.3420     0.1500     3.3141     3.6579   240.0000     3.0741     0.0940
  752   15.020   4527.55     4.0692     0.0960     0.1279     0.1502     4.1397     2.6415   240.3200     3.8993     0.0047
  753   15.040   4528.56     3.7325     0.1083     0.3128     0.1504     3.8858     2.7528   240.6400     3.6452     0.0593
  754   15.060   4529.57     4.5347     0.0945     0.2001     0.1506     4.6449     2.2656   240.9600     4.4039     0.0258
  755   15.080   4530.61     5.5001     0.0809     0.0542     0.1508     5.5478     1.5868   241.2800     5.3065    -0.0067
  756   15.100   4531.65     6.7071     0.0682    -0.0173     0.1510     6.7045     1.1014   241.6000     6.4629    -0.0243
  757   15.120   4532.70     7.9989     0.0665    -0.0862     0.1512     7.9763     0.8964   241.9200     7.7344    -0.0264
  758   15.140   4533.74     9.4195     0.0681    -0.1543     0.1514     9.3599     0.7831   242.2400     9.1177    -0.0321
  759   15.160   4534.77    10.0260     0.0811    -0.1431     0.1516     9.9648     0.8090   242.5600     9.7222    -0.0306
  760   15.180   4535.82     9.4158     0.0971    -0.1622     0.1518     9.3507     1.0225   242.8800     9.1078    -0.0337
  761   15.200   4536.82     8.4788     0.1057    -0.1678     0.1520     8.4071     1.2344   243.2000     8.1639    -0.0395
  762   15.220   4537.82     7.7306     0.1261    -0.1413     0.1522     7.6663     1.6202   243.5200     7.4228    -0.0411
  763   15.240   4538.82     7.0414     0.1287    -0.1211     0.1524     6.9915     1.8193   243.8400     6.7476    -0.0402
  764   15.260   4539.82     6.4190     0.1403    -0.0997     0.1526     6.3698     2.1584   244.1600     6.1256    -0.0441
  765   15.280   4540.81     5.7682     0.1420    -0.0212     0.1528     5.7559     2.3710   244.4800     5.5114    -0.0330
  766   15.300   4541.83     5.5137     0.1343    -0.0667     0.1530     5.4866     2.4135   244.8000     5.2418    -0.0415
  767   15.320   4542.83     5.6010     0.1139    -0.0105     0.1532     5.5857     2.0954   245.1200     5.3406    -0.0355
  768   15.340   4543.91     6.1922     0.0984    -0.0567     0.1534     6.1777     1.6475   245.4400     5.9322    -0.0317
  769   15.360   4544.93     7.1391     0.0909    -0.0660     0.1536     7.1138     1.3386   245.7600     6.8681    -0.0311
  770   15.380   4545.96     8.5291     0.0810    -0.0802     0.1538     8.4997     1.0252   246.0800     8.2536    -0.0271
  771   15.400   4546.99    10.5182     0.0657    -0.0915     0.1540    10.4743     0.6712   246.4000    10.2279    -0.0253
  772   15.420   4548.03    12.3753     0.0606    -0.1028     0.1542    12.3360     0.5150   246.7200    12.0893    -0.0205
  773   15.440   4549.11    13.5208     0.0535    -0.1310     0.1544    13.4703     0.4054   247.0400    13.2233    -0.0208
  774   15.460   4550.16    13.6213     0.0609    -0.1614     0.1546    13.5566     0.4456   247.3600    13.3092    -0.0232
  775   15.480   4551.20    13.1044     0.0752    -0.1808     0.1548    13.0311     0.5633   247.6800    12.7834    -0.0258
  776   15.500   4552.27    12.1565     0.0897    -0.1829     0.1550    12.0800     0.7135   248.0000    11.8320    -0.0285
  777   15.520   4553.27    11.2754     0.1093    -0.1875     0.1552    11.1970     0.9330   248.3200    10.9487    -0.0312
  778   15.540   4554.30    10.0611     0.1351    -0.1933     0.1554     9.9807     1.2677   248.6400     9.7320    -0.0357
  779   15.560   4555.28     9.0411     0.1634    -0.1935     0.1556     8.9593     1.7303   248.9600     8.7104    -0.0402
  780   15.580   4556.35     8.3332     0.1792    -0.1800     0.1558     8.2548     2.0895   249.2800     8.0055    -0.0428
  781   15.600   4557.38     8.0630     0.1644    -0.1527     0.1560     7.9944     2.0112   249.6000     7.7448    -0.0412
  782   15.620   4558.40     7.5726     0.1916    -0.1250     0.1562     7.5187     2.4549   249.9200     7.2688    -0.0392
  783   15.640   4559.45     6.9135     0.1928    -0.1027     0.1564     6.8663     2.6548   250.2400     6.6161    -0.0406
  784   15.660   4560.44     5.8200     0.1649    -0.0864     0.1566     5.7811     2.6163   250.5600     5.5306    -0.0451
  785   15.680   4561.46     4.9946     0.1500    -0.0441     0.1568     4.9745     2.8284   250.8800     4.7236    -0.0434
  786   15.700   4562.51     4.8821     0.1287     0.0198     0.1570     4.8845     2.7092   251.2000     4.6333    -0.0328
  787   15.720   4563.57     6.4560     0.1070     0.1852     0.1572     6.5025     1.8472   251.5200     6.2510    -0.0080
  788   15.740   4564.60     8.5882     0.0822     0.0521     0.1574     8.6544     1.0710   251.8400     8.4025     0.0005
  789   15.760   4565.63    10.3782     0.0644    -0.0813     0.1576    10.3548     0.6508   252.1600    10.1026    -0.0211
  790   15.780   4566.67    10.8854     0.0605    -0.0909     0.1578    10.8484     0.5606   252.4800    10.5959    -0.0232
  791   15.800   4567.73    11.0017     0.0657    -0.0919     0.1580    10.9615     0.5997   252.8000    10.7087    -0.0237
  792   15.820   4568.81    11.4006     0.0705    -0.0724     0.1582    11.3680     0.6322   253.1200    11.1149    -0.0212
  793   15.840   4569.84    11.7666     0.0769    -0.0682     0.1584    11.7395     0.6569   253.4400    11.4860    -0.0194
  794   15.860   4570.88    11.3107     0.0765    -0.0892     0.1586    11.2755     0.6610   253.7600    11.0217    -0.0220
  795   15.880   4571.91    10.3962     0.0919    -0.0744     0.1588    10.3620     0.8608   254.0800    10.1079    -0.0238
  796   15.900   4572.96     9.4493     0.0947    -0.0843     0.1590     9.4173     0.9642   254.4000     9.1629    -0.0257
  797   15.920   4573.96     8.6063     0.0932    -0.0872     0.1592     8.5674     1.0501   254.7200     8.3127    -0.0303
  798   15.940   4574.99     8.3455     0.0977    -0.0672     0.1594     8.3136     1.1712   255.0400     8.0586    -0.0292
  799   15.960   4576.05     9.0802     0.0977    -0.0544     0.1596     9.0548     1.1061   255.3600     8.7994    -0.0250
  800   15.980   4577.10     9.8637     0.0983    -0.0163     0.1598     9.8518     1.0286   255.6800     9.5962    -0.0196
  801   16.000   4578.13    10.3434     0.0941    -0.0377     0.1600    10.3384     0.9143   256.0000    10.0824    -0.0171
  802   16.020   4579.18    10.0841     0.0862    -0.0640     0.1602    10.0584     0.8459   256.3200     9.8021    -0.0226
  803   16.040   4580.26     9.7376     0.0863    -0.0721     0.1604     9.7090     0.8739   256.6400     9.4523    -0.0242
  804   16.060   4581.27     9.4878     0.1003    -0.0875     0.1606     9.4538     1.0529   256.9600     9.1968    -0.0263
  805   16.080   4582.32     9.4692     0.0967    -0.0902     0.1608     9.4299     1.0237   257.2800     9.1726    -0.0278
  806   16.100   4583.34     9.3799     0.0768    -0.0708     0.1610     9.3457     0.8106   257.6000     9.0881    -0.0267
  807   16.120   4584.39     9.1410     0.0765    -0.0638     0.1612     9.1178     0.8295   257.9200     8.8599    -0.0244
  808   16.140   4585.39     8.9565     0.0732    -0.0665     0.1614     8.9278     0.8123   258.2400     8.6695    -0.0265
  809   16.160   4586.48     9.3687     0.0640    -0.1144     0.1616     9.3276     0.7028   258.5600     9.0690    -0.0286
  810   16.180   4587.50     9.6125     0.0750    -0.1423     0.1618     9.5567     0.7791   258.8800     9.2978    -0.0317
  811   16.200   4588.52     9.1478     0.0802    -0.1662     0.1620     9.0825     0.8733   259.2000     8.8233    -0.0360
  812   16.220   4589.53     8.1624     0.0972    -0.1778     0.1622     8.0886     1.1774   259.5200     7.8290    -0.0432
  813   16.240   4590.55     7.3782     0.0988    -0.1826     0.1624     7.3013     1.3306   259.8400     7.0415    -0.0491
  814   16.260   4591.56     6.9227     0.1086    -0.1873     0.1626     6.8448     1.5631   260.1600     6.5846    -0.0529
  815   16.280   4592.52     6.3319     0.1076    -0.1907     0.1628     6.2520     1.6122   260.4800     5.9915    -0.0590
  816   16.300   4593.54     5.7698     0.1176    -0.1765     0.1630     5.6915     1.9774   260.8000     5.4307    -0.0644
  817   16.320   4594.57     5.6201     0.1170    -0.1764     0.1632     5.5466     2.0616   261.1200     5.2855    -0.0640
  818   16.340   4595.57     5.4595     0.1119    -0.1417     0.1634     5.3942     1.9415   261.4400     5.1327    -0.0622
  819   16.360   4596.61     5.7991     0.1067    -0.1503     0.1636     5.7351     1.8214   261.7600     5.4734    -0.0577
  820   16.380   4597.62     6.0860     0.1012    -0.1491     0.1638     6.0240     1.6696   262.0800     5.7619    -0.0541
  821   16.400   4598.67     5.9445     0.1022    -0.1660     0.1640     5.8762     1.7067   262.4000     5.6138    -0.0582
  822   16.420   4601.56     5.9531     0.0876    -0.1482     0.1642     5.8851     1.4803   262.7200     5.6224    -0.0581
  823   16.440   4611.57     6.1116     0.0785    -0.1091     0.1644     6.0601     1.3257   263.0400     5.7970    -0.0501
  824   16.460   4621.58     6.2701     0.0741    -0.0700     0.1646     6.2350     1.2513   263.3600     5.9716    -0.0420
  825   16.480   4630.09     6.4487     0.0740    -0.0651     0.1648     6.4253     1.2027   263.6800     6.1617    -0.0358
  826   16.500   4631.11     6.7095     0.0704    -0.1003     0.1650     6.6739     1.0681   264.0000     6.4099    -0.0390
  827   16.520   4632.20     6.9517     0.0740    -0.1209     0.1652     6.9037     1.0808   264.3200     6.6394    -0.0421
  828   16.540   4633.23     7.1801     0.0655    -0.1376     0.1654     7.1240     0.9204   264.6400     6.8594    -0.0436
  829   16.560   4634.22     7.3595     0.0648    -0.1426     0.1656     7.3003     0.8911   264.9600     7.0354    -0.0436
  830   16.580   4635.26     7.5188     0.0742    -0.1534     0.1658     7.4562     0.9914   265.2800     7.1909    -0.0438
  831   16.600   4636.28     7.5910     0.0740    -0.1852     0.1660     7.5180     0.9742   265.6000     7.2524    -0.0469
  832   16.620   4637.29     7.3566     0.0842    -0.1950     0.1662     7.2753     1.1423   265.9200     7.0094    -0.0513
  833   16.640   4638.32     7.1479     0.0977    -0.1996     0.1664     7.0644     1.3626   266.2400     6.7982    -0.0537
  834   16.660   4639.33     6.7271     0.1025    -0.1982     0.1666     6.6438     1.5093   266.5600     6.3772    -0.0572
  835   16.680   4640.34     6.2063     0.0968    -0.2014     0.1668     6.1226     1.5367   266.8800     5.8557    -0.0625
  836   16.700   4641.33     5.5169     0.1004    -0.2049     0.1670     5.4309     1.8072   267.2000     5.1637    -0.0720
  837   16.720   4642.33     4.7102     0.1082    -0.2028     0.1672     4.6241     2.2790   267.5200     4.3566    -0.0855
  838   16.740   4643.33     4.0423     0.1189    -0.1903     0.1674     3.9577     2.9278   267.8400     3.6899    -0.1000
  839   16.760   4644.33     4.0990     0.1177    -0.1523     0.1676     4.0294     2.8806   268.1600     3.7613    -0.0886
  840   16.780   4645.34     4.2549     0.1092    -0.1505     0.1678     4.1952     2.5952   268.4800     3.9267    -0.0790
  841   16.800   4646.36     4.3148     0.0860    -0.1618     0.1680     4.2462     2.0015   268.8000     3.9774    -0.0833
  842   16.820   4647.39     4.2267     0.0806    -0.1683     0.1682     4.1575     1.9007   269.1200     3.8883    -0.0857
  843   16.840   4648.36     4.3658     0.0747    -0.1682     0.1684     4.2936     1.7161   269.4400     4.0242    -0.0846
  844   16.860   4649.36     4.6021     0.0712    -0.1656     0.1686     4.5335     1.5953   269.7600     4.2637    -0.0778
  845   16.880   4650.40     5.4701     0.0763    -0.1711     0.1688     5.3980     1.5416   270.0800     5.1279    -0.0664
  846   16.900   4651.42     6.6021     0.0789    -0.1891     0.1690     6.5245     1.2133   270.4000     6.2541    -0.0566
  847   16.920   4652.47     6.9947     0.0701    -0.1908     0.1692     6.9146     1.0018   270.7200     6.6439    -0.0542
  848   16.940   4653.45     6.8641     0.0755    -0.1895     0.1694     6.7837     1.0986   271.0400     6.5126    -0.0554
  849   16.960   4654.46     6.6232     0.0886    -0.1872     0.1696     6.5438     1.3184   271.3600     6.2725    -0.0572
  850   16.980   4655.51     6.0532     0.0912    -0.1852     0.1698     5.9752     1.4374   271.6800     5.7035    -0.0624
  851   17.000   4656.52     5.6742     0.0932    -0.1841     0.1700     5.5950     1.6298   272.0000     5.3230    -0.0673
  852   17.020   4657.51     5.4708     0.0889    -0.1791     0.1702     5.3974     1.6099   272.3200     5.1251    -0.0673
  853   17.040   4658.53     5.5857     0.0915    -0.1770     0.1704     5.5109     1.6408   272.6400     5.2383    -0.0665
  854   17.060   4659.58     5.8640     0.0907    -0.1826     0.1706     5.7887     1.5558   272.9600     5.5157    -0.0635
  855   17.080   4660.58     5.9857     0.1016    -0.1888     0.1708     5.9075     1.6948   273.2800     5.6342    -0.0634
  856   17.100   4661.60     5.6365     0.1039    -0.1923     0.1710     5.5556     1.8314   273.6000     5.2820    -0.0689
  857   17.120   4662.62     5.1564     0.0973    -0.1897     0.1712     5.0765     1.8783   273.9200     4.8025    -0.0753
  858   17.140   4663.62     4.5652     0.1013    -0.1941     0.1714     4.4840     2.2085   274.2400     4.2098    -0.0867
  859   17.160   4664.66     4.0117     0.0999    -0.1934     0.1716     3.9301     2.4748   274.5600     3.6556    -0.1002
  860   17.180   4665.65     3.5410     0.1013    -0.1739     0.1718     3.4635     2.7470   274.8800     3.1887    -0.1117
  861   17.200   4666.66     3.3321     0.1180    -0.1507     0.1720     3.2670     3.5364   275.2000     2.9918    -0.1093
  862   17.220   4667.65     3.3619     0.1123    -0.1386     0.1722     3.3017     3.3530   275.5200     3.0262    -0.1043
  863   17.240   4668.65     3.8313     0.1093    -0.1152     0.1724     3.7793     2.8929   275.8400     3.5035    -0.0848
  864   17.260   4669.67     4.4112     0.1054    -0.1369     0.1726     4.3581     2.4042   276.1600     4.0819    -0.0733
  865   17.280   4670.70     4.8396     0.1044    -0.1523     0.1728     4.7759     2.1644   276.4800     4.4994    -0.0721
  866   17.300   4671.71     4.8263     0.1046    -0.1599     0.1730     4.7607     2.1564   276.8000     4.4839    -0.0734
  867   17.320   4672.70     4.5016     0.1118    -0.1532     0.1732     4.4365     2.4347   277.1200     4.1593    -0.0790
  868   17.340   4673.70     4.1421     0.1107    -0.1558     0.1734     4.0769     2.6427   277.4400     3.7994    -0.0865
  869   17.360   4674.75     3.9524     0.1115    -0.1430     0.1736     3.8906     2.8143   277.7600     3.6128    -0.0888
  870   17.380   4675.73     4.1508     0.1132    -0.1430     0.1738     4.0905     2.7654   278.0800     3.8124    -0.0832
  871   17.400   4676.79     4.3155     0.1157    -0.1273     0.1740     4.2586     2.7064   278.4000     3.9802    -0.0778
  872   17.420   4677.77     4.5932     0.1055    -0.1274     0.1742     4.5418     2.3611   278.7200     4.2631    -0.0696
  873   17.440   4678.77     4.6694     0.0998    -0.1331     0.1744     4.6125     2.1409   279.0400     4.3334    -0.0716
  874   17.460   4679.81     4.3827     0.0872    -0.1241     0.1746     4.3294     1.9368   279.3600     4.0500    -0.0744
  875   17.480   4680.83     4.8901     0.0916    -0.1028     0.1748     4.8438     2.0267   279.6800     4.5641    -0.0627
  876   17.500   4681.87     5.8899     0.1041    -0.0916     0.1750     5.8539     1.8995   280.0000     5.5739    -0.0468
  877   17.520   4682.94     6.4287     0.1042    -0.1400     0.1752     6.3777     1.6472   280.3200     6.0974    -0.0486
  878   17.540   4683.92     6.5414     0.1106    -0.1531     0.1754     6.4762     1.6965   280.6400     6.1956    -0.0534
  879   17.560   4684.94     6.3384     0.1192    -0.1518     0.1756     6.2744     1.8377   280.9600     5.9935    -0.0547
  880   17.580   4686.00     6.1874     0.1237    -0.1502     0.1758     6.1233     1.9904   281.2800     5.8420    -0.0562
  881   17.600   4687.02     6.1602     0.1062    -0.1437     0.1760     6.1000     1.7225   281.6000     5.8184    -0.0549
  882   17.620   4688.05     6.2053     0.0886    -0.1396     0.1762     6.1464     1.4365   281.9200     5.8645    -0.0539
  883   17.640   4689.04     6.5278     0.0778    -0.1368     0.1764     6.4710     1.2196   282.2400     6.1887    -0.0504
  884   17.660   4690.07     7.0961     0.0808    -0.1510     0.1766     7.0367     1.1920   282.5600     6.7542    -0.0471
  885   17.680   4691.13     7.9740     0.0895    -0.1763     0.1768     7.9035     1.1330   282.8800     7.6206    -0.0452
  886   17.700   4692.16     8.0067     0.1057    -0.1859     0.1770     7.9299     1.3050   283.2000     7.6467    -0.0471
  887   17.720   4693.16     7.4134     0.1146    -0.1910     0.1772     7.3334     1.4848   283.5200     7.0499    -0.0522
  888   17.740   4694.19     6.8672     0.1231    -0.1854     0.1774     6.7881     1.7290   283.8400     6.5043    -0.0562
  889   17.760   4695.19     6.3956     0.1090    -0.1768     0.1776     6.3210     1.6500   284.1600     6.0368    -0.0589
  890   17.780   4696.22     6.1344     0.1076    -0.1781     0.1778     6.0590     1.7222   284.4800     5.7746    -0.0619
  891   17.800   4697.25     6.3863     0.1030    -0.1637     0.1780     6.3167     1.6644   284.8000     6.0319    -0.0570
  892   17.820   4698.27     6.7748     0.0975    -0.1894     0.1782     6.6984     1.4734   285.1200     6.4133    -0.0561
  893   17.840   4699.29     7.0300     0.0892    -0.1979     0.1784     6.9476     1.2844   285.4400     6.6622    -0.0562
  894   17.860   4700.32     6.9597     0.0867    -0.1979     0.1786     6.8765     1.2373   285.7600     6.5908    -0.0572
  895   17.880   4701.35     6.9314     0.0973    -0.1976     0.1788     6.8485     1.4036   286.0800     6.5624    -0.0573
  896   17.900   4702.38     6.9843     0.1037    -0.1983     0.1790     6.9007     1.5031   286.4000     6.6143    -0.0571
  897   17.920   4703.41     7.1371     0.0931    -0.1970     0.1792     7.0544     1.3098   286.7200     6.7677    -0.0556
  898   17.940   4704.39     7.1610     0.0821    -0.2042     0.1794     7.0771     1.1457   287.0400     6.7901    -0.0558
  899   17.960   4705.47     7.1786     0.0773    -0.2076     0.1796     7.0915     1.0842   287.3600     6.8042    -0.0569
  900   17.980   4706.49     7.4900     0.0797    -0.2091     0.1798     7.4028     1.0907   287.6800     7.1151    -0.0544
  901   18.000   4707.53     7.6883     0.0976    -0.2233     0.1800     7.5966     1.2744   288.0000     7.3086    -0.0545
  902   18.020   4708.55     7.3691     0.1186    -0.2187     0.1802     7.2759     1.5720   288.3200     6.9875    -0.0576
  903   18.040   4709.58     6.9425     0.1252    -0.2196     0.1804     6.8503     1.7578   288.6400     6.5617    -0.0609
  904   18.060   4710.58     6.6222     0.1159    -0.2206     0.1806     6.5304     1.7084   288.9600     6.2414    -0.0640
  905   18.080   4711.60     6.0285     0.1197    -0.2251     0.1808     5.9343     1.8908   289.2800     5.6450    -0.0718
  906   18.100   4712.65     5.7062     0.1225    -0.2131     0.1810     5.6146     2.1272   289.6000     5.3250    -0.0749
  907   18.120   4713.69     6.1274     0.1265    -0.2004     0.1812     6.0417     2.0940   289.9200     5.7518    -0.0670
  908   18.140   4714.71     6.8677     0.1215    -0.2036     0.1814     6.7830     1.7770   290.2400     6.4928    -0.0590
  909   18.160   4715.72     7.2156     0.1116    -0.2164     0.1816     7.1262     1.5694   290.5600     6.8356    -0.0577
  910   18.180   4716.74     7.1436     0.1092    -0.2188     0.1818     7.0526     1.5269   290.8800     6.7617    -0.0589
  911   18.200   4717.78     6.6170     0.1159    -0.2263     0.1820     6.5227     1.7349   291.2000     6.2315    -0.0653
  912   18.220   4718.79     5.4230     0.1129    -0.2291     0.1822     5.3271     2.0499   291.5200     5.0356    -0.0818
  913   18.240   4719.80     4.3064     0.1028    -0.2240     0.1824     4.2111     2.3529   291.8400     3.9193    -0.1048
  914   18.260   4720.78     3.3825     0.0929    -0.2111     0.1826     3.2915     2.7226   292.1600     2.9993    -0.1335
  915   18.280   4721.80     2.7579     0.0893    -0.1911     0.1828     2.6740     3.0442   292.4800     2.3815    -0.1608
  916   18.300   4722.79     2.4366     0.0864    -0.1586     0.1830     2.3652     3.3436   292.8000     2.0724    -0.1703
  917   18.320   4723.82     2.6946     0.0772    -0.1364     0.1832     2.6349     3.0700   293.1200     2.3417    -0.1393
  918   18.340   4724.81     3.4511     0.0672    -0.1170     0.1834     3.3969     2.1864   293.4400     3.1034    -0.1012
  919   18.360   4725.87     4.0227     0.0707    -0.1192     0.1836     3.9753     1.8771   293.7600     3.6815    -0.0806
  920   18.380   4731.75     4.7059     0.0855    -0.1048     0.1838     4.6585     1.9475   294.0800     4.3644    -0.0698
  921   18.400   4744.13     5.4104     0.1045    -0.0810     0.1840     5.3729     2.3732   294.4000     5.0785    -0.0563
  922   18.420   4755.52     6.0161     0.0981    -0.0768     0.1842     5.9870     2.1250   294.7200     5.6923    -0.0446
  923   18.440   4756.50     5.5767     0.0963    -0.0847     0.1844     5.5418     1.6644   295.0400     5.2468    -0.0510
  924   18.460   4757.51     5.0690     0.1066    -0.0887     0.1846     5.0318     2.0070   295.3600     4.7364    -0.0577
  925   18.480   4758.53     4.3795     0.1205    -0.0598     0.1848     4.3471     2.5916   295.6800     4.0514    -0.0646
  926   18.500   4759.59     3.7873     0.1154    -0.0079     0.1850     3.7783     2.8749   296.0000     3.4823    -0.0592
  927   18.520   4760.62     3.5580     0.1087     0.0030     0.1852     3.5586     2.9826   296.3200     3.2623    -0.0563
  928   18.540   4761.63     3.4302     0.0905     0.0169     0.1854     3.4367     2.5766   296.6400     3.1400    -0.0542
  929   18.560   4762.61     3.3540     0.0798     0.0446     0.1856     3.3719     2.3800   296.9600     3.0749    -0.0466
  930   18.580   4763.69     3.6190     0.0805     0.0679     0.1858     3.6394     2.2688   297.2800     3.3421    -0.0411
  931   18.600   4764.73     4.3073     0.0820     0.0827     0.1860     4.3443     2.0588   297.6000     4.0467    -0.0242
  932   18.620   4765.74     4.7414     0.0834     0.0540     0.1862     4.7733     1.8488   297.9200     4.4754    -0.0246
  933   18.640   4766.77     5.4272     0.0833    -0.0119     0.1864     5.4284     1.5999   298.2400     5.1301    -0.0357
  934   18.660   4767.76     6.2016     0.0762    -0.0141     0.1866     6.1944     1.2634   298.5600     5.8959    -0.0346
  935   18.680   4768.82     6.7092     0.0680    -0.0216     0.1868     6.7011     1.0276   298.8800     6.4022    -0.0322
  936   18.700   4772.44     6.5757     0.0721    -0.0247     0.1870     6.5658     1.0700   299.2000     6.2666    -0.0337
  937   18.720   4776.29     6.3985     0.0860    -0.0278     0.1872     6.3873     1.2766   299.5200     6.0878    -0.0352
  938   18.740   4779.64     6.1793     0.0967    -0.0460     0.1874     6.1646     1.4881   299.8400     5.8648    -0.0380
  939   18.760   4780.65     5.7675     0.1023    -0.0664     0.1876     5.7430     1.7198   300.1600     5.4429    -0.0452
  940   18.780   4781.67     5.3963     0.1021    -0.0926     0.1878     5.3592     1.8195   300.4800     5.0587    -0.0546
  941   18.800   4782.67     4.7539     0.1109    -0.0934     0.1880     4.7143     2.2032   300.8000     4.4135    -0.0640
  942   18.820   4783.70     4.3388     0.1123    -0.0873     0.1882     4.3001     2.4896   301.1200     3.9990    -0.0701
  943   18.840   4784.74     4.1657     0.1216    -0.0803     0.1884     4.1315     2.9200   301.4400     3.8301    -0.0705
  944   18.860   4785.73     4.2539     0.1266    -0.0471     0.1886     4.2310     3.0029   301.7600     3.9293    -0.0619
  945   18.880   4786.78     4.5757     0.1202    -0.0859     0.1888     4.5439     2.7024   302.0800     4.2419    -0.0623
  946   18.900   4787.79     4.6019     0.1064    -0.0892     0.1890     4.5656     2.3132   302.4000     4.2632    -0.0646
  947   18.920   4788.81     4.3000     0.1047    -0.0976     0.1892     4.2598     2.3495   302.7200     3.9571    -0.0720
  948   18.940   4789.81     4.0271     0.1068    -0.0915     0.1894     3.9858     2.5844   303.0400     3.6827    -0.0782
  949   18.960   4790.81     3.9837     0.1145    -0.0724     0.1896     3.9508     2.8869   303.3600     3.6474    -0.0735
  950   18.980   4791.85     4.4315     0.1219    -0.0632     0.1898     4.4036     2.9381   303.6800     4.0999    -0.0625
  951   19.000   4792.89     5.0122     0.1114    -0.0953     0.1900     4.9752     2.3080   304.0000     4.6712    -0.0596
  952   19.020   4793.95     5.2796     0.1004    -0.1045     0.1902     5.2375     1.9245   304.3200     4.9332    -0.0589
  953   19.040   4794.95     4.9852     0.1037    -0.1024     0.1904     4.9444     2.0104   304.6400     4.6398    -0.0620
  954   19.060   4796.00     5.0711     0.1236    -0.1316     0.1906     5.0193     2.4397   304.9600     4.7143    -0.0666
  955   19.080   4797.01     5.0208     0.1230    -0.1322     0.1908     4.9643     2.4192   305.2800     4.6590    -0.0698
  956   19.100   4798.05     4.7286     0.1117    -0.1351     0.1910     4.6733     2.2950   305.6000     4.3677    -0.0739
  957   19.120   4799.07     4.4378     0.0708    -0.1371     0.1912     4.3795     1.5523   305.9200     4.0736    -0.0811
  958   19.140   4800.06     3.8058     0.0728    -0.1258     0.1914     3.7515     1.8594   306.2400     3.4452    -0.0931
  959   19.160   4801.10     3.6633     0.2206    -0.0886     0.1916     3.6192     5.7470   306.5600     3.3127    -0.0895
  960   19.180   4802.12     4.2843     0.3378    -0.0640     0.1918     4.2610     8.4194   306.8800     3.9541    -0.0629
  961   19.200   4803.20     6.5658     0.2284    -0.1263     0.1920     6.5211     4.8575   307.2000     6.2139    -0.0486
  962   19.220   4804.28    10.0889     0.2018    -0.1449     0.1922    10.0277     3.0474   307.5200     9.7202    -0.0349
  963   19.240   4805.38    15.9766     0.1751    -0.0893     0.1924    15.9355     1.2374   307.8400    15.6277    -0.0186
  964   19.260   4807.32    13.5780     0.1828    -0.0109     0.1926    13.5637     1.3205   308.1600    13.2556    -0.0171
  965   19.280   4824.33    11.0943     0.1602     0.0563     0.1928    11.1082     1.1684   308.4800    10.7997    -0.0144
  966   19.300   4836.63     5.4370     0.1669     0.1666     0.1930     5.5137     3.2216   308.8000     5.2049    -0.0012
  967   19.320   4838.97     6.2733     0.1483     0.1203     0.1932     6.3305     2.8626   309.1200     6.0214    -0.0077
  968   19.340   4841.31     7.1095     0.1327     0.0740     0.1934     7.1473     2.5624   309.4400     6.8379    -0.0143
  969   19.360   4842.96     6.7048     0.1316     0.0649     0.1936     6.7296     1.7696   309.7600     6.4198    -0.0210
  970   19.380   4843.96     7.1513     0.1226     0.0885     0.1938     7.1898     1.7581   310.0800     6.8797    -0.0149
  971   19.400   4845.02     7.3755     0.0981     0.0509     0.1940     7.3999     1.3957   310.4000     7.0895    -0.0192
  972   19.420   4846.06     6.9692     0.0974     0.0820     0.1942     6.9916     1.3554   310.7200     6.6809    -0.0210
  973   19.440   4847.10     6.2766     0.0879     0.0908     0.1944     6.3353     1.3855   311.0400     6.0242    -0.0092
  974   19.460   4848.09     6.1823     0.1042    -0.2262     0.1946     6.0957     1.7008   311.3600     5.7844    -0.0693
  975   19.480   4849.10     6.1368     0.1161    -0.1934     0.1948     6.0491     1.8432   311.6800     5.7374    -0.0704
  976   19.500   4850.13     5.8239     0.0881    -0.1637     0.1950     5.7512     1.5006   312.0000     5.4392    -0.0677
  977   19.520   4851.18     7.2427     0.0599    -0.1403     0.1952     7.1803     0.8799   312.3200     6.8680    -0.0503
  978   19.540   4852.18     8.0568     0.0538    -0.0869     0.1954     8.0076     0.6853   312.6400     7.6950    -0.0406
  979   19.560   4853.23     7.2407     0.0529    -0.0003     0.1956     7.2559     0.7199   312.9600     6.9429    -0.0229
  980   19.580   4854.24     5.1484     0.0626     0.0038     0.1958     5.1171     1.0362   313.2800     4.8038    -0.0554
  981   19.600   4855.24     4.3038     0.0659     0.2269     0.1960     4.3619     1.3969   313.6000     4.0483    -0.0129
  982   19.620   4856.24     3.5765     0.0817     0.4518     0.1962     3.7254     2.0296   313.9200     3.4115     0.0474
  983   19.640   4857.27     3.3149     0.0985     0.6888     0.1964     3.5754     2.6919   314.2400     3.2612     0.1300
  984   19.660   4858.27     3.7886     0.1196     0.7910     0.1966     4.1139     3.3353   314.5600     3.7994     0.1524
  985   19.680   4859.35     5.3392     0.1804     0.7527     0.1968     5.6692     3.6123   314.8800     5.3543     0.1104
  986   19.700   4860.46     9.0767     0.2249     0.4281     0.1970     9.3570     2.8773   315.2000     9.0418     0.0525
  987   19.720   4862.04    14.0726     0.3078     0.1871     0.1972    14.1799     2.5783   315.5200    13.8644     0.0081
  988   19.740   4863.98    17.8206     0.3824    -0.0114     0.1974    17.8446     3.2025   315.8400    17.5287    -0.0033
  989   19.760   4865.92    21.5686     0.4740    -0.1955     0.1976    21.5092     3.7985   316.1600    21.1930    -0.0146
  990   19.780   4867.24    21.0641     0.5218    -0.2351     0.1978    20.9735     2.4512   316.4800    20.6570    -0.0201
  991   19.800   4868.31    19.7813     0.4725    -0.2737     0.1980    19.6706     2.3259   316.8000    19.3538    -0.0239
  992   19.820   4869.40    16.1557     0.4432    -0.2791     0.1982    16.0399     2.4303   317.1200    15.7228    -0.0302
  993   19.840   4870.43    13.7213     0.3761    -0.2755     0.1984    13.6001     2.7049   317.4400    13.2827    -0.0367
  994   19.860   4871.54    12.3388     0.3785    -0.2230     0.1986    12.2342     3.0440   317.7600    11.9164    -0.0376
  995   19.880   4872.63    14.3795     0.3844    -0.0455     0.1988    14.3327     2.8872   318.0800    14.0146    -0.0224
  996   19.900   4873.85    20.5985     0.4562     0.0642     0.1990    20.6455     2.3100   318.4000    20.3271    -0.0044
  997   19.920   4875.02    27.2965     0.5215    -0.0714     0.1992    27.2948     1.9718   318.7200    26.9760    -0.0075
  998   19.940   4876.03    29.5823     0.5788    -0.1914     0.1994    29.5176     1.9574   319.0400    29.1985    -0.0121
  999   19.960   4876.98    27.3187     0.6607    -0.2515     0.1996    27.2226     2.3766   319.3600    26.9032    -0.0159
 1000   19.980   4877.92    26.0108     0.6038    -0.2641     0.1998    25.9001     2.2779   319.6800    25.5804    -0.0181
 1001   20.000   4878.93    23.5783     0.5395    -0.2704     0.2000    23.4659     2.2214   320.0000    23.1459    -0.0202
 1002   20.020   4879.96    23.5538     0.4562    -0.2689     0.2002    23.4421     1.9573   320.3200    23.1218    -0.0202
 1003   20.040   4880.96    23.9380     0.3464    -0.2809     0.2004    23.8202     1.4418   320.6400    23.4995    -0.0205
 1004   20.060   4881.84    19.2722     0.2377    -0.2815     0.2006    19.1559     1.1716   320.9600    18.8349    -0.0256
 1005   20.080   4882.77    11.1533     0.1629    -0.3080     0.2008    11.0265     1.4401   321.2800    10.7053    -0.0488
 1006   20.100   4883.78     7.0690     0.1085    -0.3208     0.2010     6.9352     1.3079   321.6000     6.6136    -0.0790
 1007   20.120   4884.78     5.1661     0.0839    -0.3092     0.2012     5.0347     1.3604   321.9200     4.7128    -0.1103
 1008   20.140   4885.83     3.9762     0.0627    -0.2967     0.2014     3.8498     1.5165   322.2400     3.5275    -0.1426
 1009   20.160   4886.84     3.8007     0.0485    -0.2854     0.2016     3.6792     1.2734   322.5600     3.3566    -0.1463
 1010   20.180   4887.84     3.7982     0.0356    -0.2734     0.2018     3.6815     0.9432   322.8800     3.3586    -0.1428
 1011   20.200   4888.89     3.6199     0.0366    -0.2583     0.2020     3.5092     0.9834   323.2000     3.1860    -0.1461
 1012   20.220   4889.95     3.5347     0.0470    -0.2394     0.2022     3.4315     1.3185   323.5200     3.1080    -0.1441
 1013   20.240   4890.95     3.6094     0.0662    -0.2183     0.2024     3.5145     1.8540   323.8400     3.1907    -0.1343
 1014   20.260   4891.91     3.6715     0.0663    -0.1922     0.2026     3.5865     1.8267   324.1600     3.2623    -0.1242
 1015   20.280   4892.96     3.9603     0.0654    -0.1604     0.2028     3.8878     1.7042   324.4800     3.5633    -0.1054
 1016   20.300   4894.01     4.1977     0.0809    -0.1066     0.2030     4.1437     1.9761   324.8000     3.8189    -0.0869
 1017   20.320   4895.02     4.6322     0.1236    -0.0291     0.2032     4.6060     2.7010   325.1200     4.2809    -0.0622
 1018   20.340   4896.07     5.0563     0.1743     0.0633     0.2034     5.0632     3.5073   325.4400     4.7377    -0.0395
 1019   20.360   4897.10     5.2749     0.1943     0.3483     0.2036     5.3842     3.8012   325.7600     5.0584     0.0106
 1020   20.380   4898.13     6.4117     0.2063     0.5666     0.2038     6.6181     3.3767   326.0800     6.2920     0.0454
 1021   20.400   4899.21     7.8246     0.2261     0.7968     0.2040     8.1250     2.9365   326.4000     7.7986     0.0653
 1022   20.420   4906.12     9.7020     0.2601     0.7200     0.2042    10.0247     2.9984   326.7200     9.6980     0.0590
 1023   20.440   4929.09    10.8597     0.3189     0.5802     0.2044    11.1237     3.6089   327.0400    10.7967     0.0408
 1024   20.460   4944.33    11.6390     0.2989     0.6324     0.2046    11.8996     2.5751   327.3600    11.5722     0.0359
 1025   20.480   4945.48    13.4008                0.5543     0.2048    13.6845              327.6800    13.3568     0.0353
 1026   20.500   4946.65    19.5576               -0.1065     0.2050    19.6479              328.0000    19.3199     0.0012
 1027   20.520   4947.81    23.5360               -0.2568     0.2052    23.4362              328.3200    23.1079    -0.0192
 1028   20.540   4949.46    33.4085               -0.3046     0.2054    33.2825              328.6400    32.9539    -0.0154
 1029   20.560   4952.85    44.3641               -0.3107     0.2056    44.2342              328.9600    43.9052    -0.0118
 1030   20.580   4954.41    56.3807                           0.2058    56.2481              329.2800    55.9188    -0.0093
 
 
