

 Program UNIPLOT                         version 05.36.02
 _______________
 (c) Fugro Netherlands Marine, Nootdorp, The Netherlands


 ASCII representation of data plotted on a graph.

 This ASCII file presents data interpolated to values per fixed depth interval.
 The data are corrected for the depth-offset differences between the various 
 transducers in the penetrometer.

 The records at the start of penetration may include no values or anomalous
 values where a depth offset implies incomplete penetration of a particular
 sensor into the ground.

 The records at the end of penetration may include no values for data channels
 where the transducer did not reach this depth.

 The reference level for test values is (1) the ground surface for onshore tests and (2) the seafloor for nearshore and offshore tests.

 UNICAS data file          : CPT-1008.000                            
 Output using command file : PlotASCII.cmd

 ASCII file created at : date          :08-Nov-2021
                         time          :15:11:31
 Project number                        :20024805                                                                                            
 Date of testing                       :06-Nov-2021                                                                                         
 Location                              :Hong Kong Offshore Wind Farm Project                                                                
 Test name                             :CPT-1008
 Penetrometer                          :F7.5CKE2HAW2/B/2711
 Serial no                             :1701-2711

 Table description:
 Column ID                             :Parameter name
 ___________________________________________________________________________________
 Rec                                   :Record ID, Record ID [-]
 Depth                                 :Depth, Depth [m]
 Time                                  :Time, Time [s]
 Cone                                  :Cone Resistance, Cone Resistance [MPa]
 Friction                              :Sleeve Friction, Sleeve Friction [MPa]
 Pore 2                                :Porewater Pressure, Porewater Pressure at Shoulder [MPa]
 HydroPress                            :Hydrostatic Pressure, Hydrostatic Pressure [MPa]
 qt                                    :Total Cone Resistance, Total Cone Resistance [MPa]
 Fric_ratio                            :Friction Ratio, Friction Ratio [%]
 SigmaVert                             :Vertical stress, Vertical stress [kPa] as specified in ground model
 Qnet                                  :Net Cone Resistance, Net Cone Resistance [MPa], unit weight as specified in ground model
 Bq                                    :Porewater Pressure Ratio, Porewater Pressure Ratio [-], unit weight as specified in ground model


 Data table:
  Rec    Depth      Time       Cone   Friction     Pore 2 HydroPress         qt Fric_ratio  SigmaVert       Qnet         Bq
   No        m         s        MPa        MPa        MPa        MPa        MPa          %        kPa        MPa          -
    1    0.000   1909.06     0.0000                           0.0000     0.0000                0.0000     0.0000           
    2    0.020   1910.02     0.0072                0.0007     0.0002     0.0073                0.3200     0.0070           
    3    0.040   1910.99     0.0056                0.0012     0.0004     0.0061                0.6400     0.0055     0.1417
    4    0.060   1911.99     0.0033     0.0004     0.0016     0.0006     0.0040    13.5258     0.9600     0.0030     0.3190
    5    0.080   1912.98     0.0053     0.0004     0.0017     0.0008     0.0060    12.2114     1.2800     0.0047     0.1739
    6    0.100   1913.99     0.0025     0.0003     0.0016     0.0010     0.0032    11.9901     1.6000     0.0016     0.3487
    7    0.120   1914.99     0.0045     0.0007     0.0016     0.0012     0.0052    15.5838     1.9200     0.0033     0.1607
    8    0.140   1915.95     0.0028     0.0004     0.0018     0.0014     0.0035    15.5783     2.2400     0.0013     0.2457
    9    0.160   1916.94     0.0022     0.0005     0.0019     0.0016     0.0030    12.5708     2.5600     0.0004           
   10    0.180   1926.29     0.0038     0.0006     0.0022     0.0018     0.0047    19.0294     2.8800     0.0018     0.1472
   11    0.200   1950.58     0.0041     0.0004     0.0026     0.0020     0.0051    10.7550     3.2000     0.0019     0.2344
   12    0.220   1974.58     0.0042     0.0003     0.0031     0.0022     0.0054     7.0383     3.5200     0.0019     0.2898
   13    0.240   1975.56     0.0039     0.0001     0.0034     0.0024     0.0053     4.3858     3.8400     0.0015     0.4718
   14    0.260   1976.58     0.0052     0.0002     0.0031     0.0026     0.0065     3.9881     4.1600     0.0024     0.2474
   15    0.280   1977.53     0.0042     0.0003     0.0032     0.0028     0.0056     7.1130     4.4800     0.0011     0.3900
   16    0.300   1978.53     0.0005     0.0004     0.0031     0.0030     0.0018    88.6060     4.8000    -0.0030           
   17    0.320   1979.48     0.0051     0.0004     0.0031     0.0032     0.0064     6.1400     5.1200     0.0013    -0.1850
   18    0.340   1980.49     0.0059     0.0006     0.0036     0.0034     0.0074     9.3131     5.4400     0.0019    -0.0227
   19    0.360   1981.49     0.0030     0.0007     0.0043     0.0036     0.0048    18.1689     5.7600    -0.0010    -0.3356
   20    0.380   1982.47     0.0047     0.0005     0.0046     0.0038     0.0066    11.1524     6.0800     0.0005    -0.4675
   21    0.400   1983.47     0.0074     0.0003     0.0050     0.0040     0.0094     4.7263     6.4000     0.0030     0.2598
   22    0.420   1984.42     0.0039     0.0005     0.0049     0.0042     0.0060    13.0606     6.7200    -0.0008    -1.0693
   23    0.440   1985.38     0.0061     0.0003     0.0048     0.0044     0.0081     4.6328     7.0400     0.0011     0.4228
   24    0.460   1986.37     0.0048     0.0002     0.0047     0.0046     0.0067     3.6573     7.3600    -0.0006     0.0867
   25    0.480   1987.40     0.0073     0.0006     0.0049     0.0048     0.0093     7.9864     7.6800     0.0016     0.0027
   26    0.500   1988.36     0.0081     0.0007     0.0052     0.0050     0.0103     9.1909     8.0000     0.0023     0.1172
   27    0.520   1989.33     0.0073     0.0003     0.0059     0.0052     0.0097     4.5955     8.3200     0.0013     0.4316
   28    0.540   1990.33     0.0111     0.0005     0.0062     0.0054     0.0137     4.4753     8.6400     0.0051     0.1493
   29    0.560   1991.34     0.0117     0.0004     0.0063     0.0056     0.0144     3.9033     8.9600     0.0054     0.1696
   30    0.580   1992.29     0.0104     0.0005     0.0061     0.0058     0.0130     4.9264     9.2800     0.0037     0.0869
   31    0.600   1993.29     0.0132     0.0008     0.0054     0.0060     0.0156     6.0650     9.6000     0.0060    -0.0592
   32    0.620   1994.29     0.0100     0.0009     0.0054     0.0062     0.0122    11.0943     9.9200     0.0023           
   33    0.640   1995.26     0.0178     0.0012     0.0058     0.0064     0.0201     6.2792    10.2400     0.0099    -0.0754
   34    0.660   1996.22     0.0177     0.0011     0.0057     0.0066     0.0201     6.4311    10.5600     0.0096    -0.0873
   35    0.680   1997.21     0.0201     0.0012     0.0061     0.0068     0.0227     5.7223    10.8800     0.0118    -0.0525
   36    0.700   1998.24     0.0144     0.0013     0.0053     0.0070     0.0166     8.9943    11.2000     0.0054    -0.3153
   37    0.720   1999.24     0.0151     0.0009     0.0052     0.0072     0.0173     6.1417    11.5200     0.0057    -0.3621
   38    0.740   2000.23     0.0155     0.0017     0.0066     0.0074     0.0179    10.8406    11.8400     0.0061    -0.2826
   39    0.760   2001.19     0.0163     0.0015     0.0067     0.0076     0.0191     9.5949    12.1600     0.0069    -0.1417
   40    0.780   2002.16     0.0182     0.0011     0.0072     0.0078     0.0212     6.4273    12.4800     0.0087    -0.0745
   41    0.800   2003.17     0.0216     0.0014     0.0069     0.0080     0.0243     6.7120    12.8000     0.0115    -0.1277
   42    0.820   2004.16     0.0201     0.0011     0.0086     0.0082     0.0236     5.8593    13.1200     0.0105     0.0190
   43    0.840   2005.16     0.0208     0.0017     0.0086     0.0084     0.0245     7.5060    13.4400     0.0111     0.0503
   44    0.860   2006.11     0.0227     0.0013     0.0069     0.0086     0.0259     6.2977    13.7600     0.0122    -0.0842
   45    0.880   2007.11     0.0250     0.0016     0.0071     0.0088     0.0282     6.9087    14.0800     0.0141    -0.0889
   46    0.900   2008.11     0.0188     0.0016     0.0088     0.0090     0.0223     7.9012    14.4000     0.0079    -0.0891
   47    0.920   2009.08     0.0235     0.0017     0.0100     0.0092     0.0277     7.6991    14.7200     0.0130     0.0560
   48    0.940   2010.05     0.0168     0.0015     0.0104     0.0094     0.0210     8.2277    15.0400     0.0059     0.0928
   49    0.960   2011.07     0.0187     0.0014     0.0117     0.0096     0.0235     7.4409    15.3600     0.0081     0.2306
   50    0.980   2012.05     0.0193     0.0016     0.0129     0.0098     0.0247     7.7376    15.6800     0.0090     0.3343
   51    1.000   2013.04     0.0214     0.0014     0.0126     0.0100     0.0268     6.2514    16.0000     0.0108     0.2556
   52    1.020   2013.98     0.0222     0.0016     0.0135     0.0102     0.0276     6.9042    16.3200     0.0112     0.2252
   53    1.040   2015.01     0.0263     0.0014     0.0145     0.0104     0.0324     5.4038    16.6400     0.0157     0.2540
   54    1.060   2015.97     0.0293     0.0017     0.0141     0.0106     0.0352     5.9229    16.9600     0.0182     0.1897
   55    1.080   2016.98     0.0261     0.0018     0.0132     0.0108     0.0317     6.3423    17.2800     0.0144     0.1816
   56    1.100   2017.93     0.0306     0.0020     0.0118     0.0110     0.0356     6.6695    17.6000     0.0180     0.0541
   57    1.120   2018.94     0.0293     0.0019     0.0104     0.0112     0.0339     6.7869    17.9200     0.0160    -0.0133
   58    1.140   2019.93     0.0315     0.0022     0.0104     0.0114     0.0357     7.1822    18.2400     0.0175    -0.0733
   59    1.160   2020.92     0.0288     0.0020     0.0108     0.0116     0.0333     6.9456    18.5600     0.0148    -0.0532
   60    1.180   2021.92     0.0328     0.0021     0.0121     0.0118     0.0376     6.4810    18.8800     0.0187    -0.0229
   61    1.200   2022.89     0.0300     0.0023     0.0142     0.0120     0.0358     7.6016    19.2000     0.0166     0.1048
   62    1.220   2023.89     0.0309     0.0021     0.0139     0.0122     0.0369     6.8452    19.5200     0.0173     0.1169
   63    1.240   2024.88     0.0307     0.0022     0.0142     0.0124     0.0365     6.9166    19.8400     0.0166     0.0913
   64    1.260   2025.89     0.0323     0.0022     0.0137     0.0126     0.0381     7.2608    20.1600     0.0179     0.0743
   65    1.280   2026.88     0.0323     0.0019     0.0139     0.0128     0.0381     5.9789    20.4800     0.0176     0.0516
   66    1.300   2027.85     0.0307     0.0023     0.0140     0.0130     0.0365     7.2283    20.8000     0.0157     0.0562
   67    1.320   2028.83     0.0342     0.0024     0.0156     0.0132     0.0405     7.1672    21.1200     0.0194     0.0903
   68    1.340   2029.81     0.0292     0.0020     0.0164     0.0134     0.0361     6.7591    21.4400     0.0146     0.2041
   69    1.360   2030.80     0.0298     0.0022     0.0168     0.0136     0.0368     7.4408    21.7600     0.0151     0.2100
   70    1.380   2031.83     0.0303     0.0022     0.0174     0.0138     0.0377     7.3240    22.0800     0.0156     0.2456
   71    1.400   2032.83     0.0308     0.0024     0.0173     0.0140     0.0380     7.8994    22.4000     0.0156     0.2015
   72    1.420   2033.81     0.0262     0.0020     0.0183     0.0142     0.0338     7.4130    22.7200     0.0111     0.3455
   73    1.440   2034.81     0.0280     0.0022     0.0190     0.0144     0.0359     8.3476    23.0400     0.0128     0.3477
   74    1.460   2035.79     0.0296     0.0022     0.0190     0.0146     0.0376     7.7595    23.3600     0.0142     0.3086
   75    1.480   2036.79     0.0299     0.0020     0.0203     0.0148     0.0383     6.5078    23.6800     0.0146     0.3595
   76    1.500   2037.79     0.0276     0.0025     0.0209     0.0150     0.0363     9.0218    24.0000     0.0123     0.4694
   77    1.520   2038.77     0.0314     0.0020     0.0206     0.0152     0.0401     6.2238    24.3200     0.0157     0.3444
   78    1.540   2039.77     0.0301     0.0017     0.0211     0.0154     0.0389     5.4972    24.6400     0.0143     0.3912
   79    1.560   2040.77     0.0297     0.0020     0.0216     0.0156     0.0389     6.8015    24.9600     0.0139     0.4543
   80    1.580   2041.77     0.0340     0.0021     0.0231     0.0158     0.0434     6.2060    25.2800     0.0182     0.3698
   81    1.600   2042.74     0.0343     0.0022     0.0240     0.0160     0.0441     6.1283    25.6000     0.0185     0.4174
   82    1.620   2043.74     0.0377     0.0020     0.0217     0.0162     0.0472     5.3942    25.9200     0.0213     0.3025
   83    1.640   2044.74     0.0348     0.0019     0.0208     0.0164     0.0435     5.5582    26.2400     0.0173     0.2545
   84    1.660   2045.74     0.0369     0.0023     0.0210     0.0166     0.0458     6.2557    26.5600     0.0192     0.2396
   85    1.680   2046.77     0.0346     0.0025     0.0211     0.0168     0.0434     7.2427    26.8800     0.0165     0.2493
   86    1.700   2047.75     0.0352     0.0023     0.0222     0.0170     0.0444     6.4563    27.2000     0.0172     0.2847
   87    1.720   2048.72     0.0343     0.0022     0.0215     0.0172     0.0435     6.3720    27.5200     0.0159     0.2921
   88    1.740   2049.75     0.0333     0.0018     0.0206     0.0174     0.0420     5.7267    27.8400     0.0142     0.2443
   89    1.760   2050.75     0.0370     0.0021     0.0211     0.0176     0.0457     5.5307    28.1600     0.0175     0.1728
   90    1.780   2051.74     0.0362     0.0022     0.0226     0.0178     0.0455     6.0688    28.4800     0.0170     0.2524
   91    1.800   2052.73     0.0373     0.0025     0.0240     0.0180     0.0472     6.8469    28.8000     0.0184     0.3006
   92    1.820   2053.71     0.0359     0.0026     0.0253     0.0182     0.0463     7.3375    29.1200     0.0171     0.3753
   93    1.840   2054.67     0.0359     0.0024     0.0239     0.0184     0.0461     6.9973    29.4400     0.0167     0.3609
   94    1.860   2055.71     0.0401     0.0029     0.0242     0.0186     0.0500     7.1439    29.7600     0.0203     0.2538
   95    1.880   2056.68     0.0368     0.0025     0.0253     0.0188     0.0469     6.8511    30.0800     0.0168     0.3083
   96    1.900   2057.67     0.0428     0.0022     0.0275     0.0190     0.0541     5.2093    30.4000     0.0237     0.3314
   97    1.920   2058.70     0.0508     0.0024     0.0295     0.0192     0.0628     4.8032    30.7200     0.0321     0.2945
   98    1.940   2059.66     0.0570     0.0026     0.0304     0.0194     0.0700     4.6900    31.0400     0.0390     0.2943
   99    1.960   2060.66     0.0564     0.0030     0.0270     0.0196     0.0684     5.2817    31.3600     0.0370     0.2425
  100    1.980   2061.65     0.0563     0.0029     0.0259     0.0198     0.0669     5.2018    31.6800     0.0352     0.1537
  101    2.000   2062.65     0.0548     0.0030     0.0271     0.0200     0.0659     5.4392    32.0000     0.0339     0.1896
  102    2.020   2063.58     0.0519     0.0029     0.0282     0.0202     0.0635     5.5593    32.3200     0.0311     0.2370
  103    2.040   2064.58     0.0488     0.0030     0.0317     0.0204     0.0616     5.9835    32.6400     0.0290     0.3481
  104    2.060   2065.58     0.0463     0.0031     0.0335     0.0206     0.0601     6.4217    32.9600     0.0271     0.4508
  105    2.080   2066.58     0.0509     0.0029     0.0350     0.0208     0.0655     5.7527    33.2800     0.0322     0.4353
  106    2.100   2067.58     0.0537     0.0032     0.0362     0.0210     0.0690     5.8610    33.6000     0.0354     0.4378
  107    2.120   2079.35     0.0594     0.0032     0.0338     0.0212     0.0740     5.5379    33.9200     0.0401     0.3435
  108    2.140   2103.30     0.0630     0.0032     0.0312     0.0214     0.0765     5.5945    34.2400     0.0423     0.2615
  109    2.160   2127.24     0.0667     0.0032     0.0286     0.0216     0.0791     5.4380    34.5600     0.0445     0.1794
  110    2.180   2135.77     0.0660     0.0031     0.0316     0.0218     0.0789     4.6589    34.8800     0.0440     0.2028
  111    2.200   2136.78     0.0678     0.0033     0.0354     0.0220     0.0823     4.7123    35.2000     0.0471     0.2641
  112    2.220   2137.74     0.0717     0.0027     0.0380     0.0222     0.0874     3.8351    35.5200     0.0519     0.2933
  113    2.240   2138.76     0.0738     0.0030     0.0405     0.0224     0.0904     4.0282    35.8400     0.0546     0.3153
  114    2.260   2139.72     0.0784     0.0030     0.0397     0.0226     0.0957     3.8059    36.1600     0.0595     0.3116
  115    2.280   2140.74     0.0793     0.0029     0.0406     0.0228     0.0965     3.7495    36.4800     0.0601     0.3032
  116    2.300   2141.74     0.0828     0.0029     0.0357     0.0230     0.0984     3.5333    36.8000     0.0616     0.2287
  117    2.320   2142.69     0.0836     0.0034     0.0416     0.0232     0.1004     4.0483    37.1200     0.0633     0.2657
  118    2.340   2143.69     0.0825     0.0034     0.0451     0.0234     0.1010     4.0645    37.4400     0.0635     0.3242
  119    2.360   2144.69     0.0811     0.0034     0.0454     0.0236     0.1004     4.1519    37.7600     0.0626     0.3570
  120    2.380   2145.69     0.0813     0.0031     0.0445     0.0238     0.1001     3.8601    38.0800     0.0621     0.3407
  121    2.400   2146.64     0.0793     0.0031     0.0427     0.0240     0.0976     3.9363    38.4000     0.0592     0.3300
  122    2.420   2147.60     0.0783     0.0030     0.0453     0.0242     0.0966     3.7492    38.7200     0.0579     0.3335
  123    2.440   2148.60     0.0832     0.0036     0.0482     0.0244     0.1031     4.3659    39.0400     0.0641     0.3593
  124    2.460   2149.58     0.0873     0.0031     0.0472     0.0246     0.1069     3.6048    39.3600     0.0675     0.3271
  125    2.480   2150.59     0.0833     0.0034     0.0457     0.0248     0.1027     4.1640    39.6800     0.0630     0.3420
  126    2.500   2151.59     0.0908     0.0038     0.0436     0.0250     0.1094     4.3268    40.0000     0.0694     0.2776
  127    2.520   2152.57     0.0899     0.0039     0.0422     0.0252     0.1080     4.3878    40.3200     0.0677     0.2637
  128    2.540   2153.59     0.0921     0.0037     0.0438     0.0254     0.1103     3.9887    40.6400     0.0696     0.2554
  129    2.560   2154.54     0.0930     0.0035     0.0456     0.0256     0.1118     3.8069    40.9600     0.0709     0.2717
  130    2.580   2155.54     0.0936     0.0039     0.0503     0.0258     0.1140     4.2043    41.2800     0.0727     0.3121
  131    2.600   2156.51     0.0889     0.0041     0.0552     0.0260     0.1114     4.5904    41.6000     0.0698     0.3955
  132    2.620   2157.52     0.0882     0.0035     0.0576     0.0262     0.1119     4.0194    41.9200     0.0700     0.4332
  133    2.640   2158.51     0.0889     0.0035     0.0600     0.0264     0.1138     4.0777    42.2400     0.0715     0.4595
  134    2.660   2159.52     0.0879     0.0033     0.0608     0.0266     0.1132     3.7660    42.5600     0.0707     0.4776
  135    2.680   2160.51     0.0847     0.0038     0.0601     0.0268     0.1098     4.5037    42.8800     0.0669     0.4923
  136    2.700   2161.50     0.0855     0.0037     0.0614     0.0270     0.1112     4.3475    43.2000     0.0680     0.5021
  137    2.720   2162.50     0.0874     0.0036     0.0605     0.0272     0.1131     4.1700    43.5200     0.0696     0.4882
  138    2.740   2163.50     0.0811     0.0035     0.0590     0.0274     0.1066     4.2810    43.8400     0.0628     0.5305
  139    2.760   2164.50     0.0824     0.0035     0.0559     0.0276     0.1062     4.1981    44.1600     0.0621     0.4682
  140    2.780   2165.50     0.0830     0.0038     0.0565     0.0278     0.1069     4.4361    44.4800     0.0625     0.4703
  141    2.800   2166.48     0.0778     0.0032     0.0526     0.0280     0.1003     4.1541    44.8000     0.0555     0.4621
  142    2.820   2167.47     0.0765     0.0032     0.0518     0.0282     0.0980     4.2554    45.1200     0.0529     0.4325
  143    2.840   2168.46     0.0703     0.0035     0.0514     0.0284     0.0920     4.9068    45.4400     0.0465     0.5013
  144    2.860   2169.46     0.0694     0.0035     0.0541     0.0286     0.0917     5.0296    45.7600     0.0460     0.5353
  145    2.880   2170.43     0.0724     0.0037     0.0568     0.0288     0.0957     5.1201    46.0800     0.0497     0.5408
  146    2.900   2171.44     0.0846     0.0039     0.0594     0.0290     0.1096     4.7450    46.4000     0.0632     0.4850
  147    2.920   2172.46     0.0877     0.0037     0.0550     0.0292     0.1112     4.2230    46.7200     0.0645     0.4134
  148    2.940   2173.42     0.0944     0.0039     0.0561     0.0294     0.1176     4.1072    47.0400     0.0706     0.3691
  149    2.960   2174.40     0.0911     0.0039     0.0565     0.0296     0.1149     4.2877    47.3600     0.0675     0.4007
  150    2.980   2175.40     0.0856     0.0040     0.0581     0.0298     0.1098     4.6114    47.6800     0.0621     0.4489
  151    3.000   2176.42     0.0789     0.0042     0.0592     0.0300     0.1036     5.3126    48.0000     0.0556     0.5168
  152    3.020   2177.42     0.0880     0.0041     0.0606     0.0302     0.1130     4.7654    48.3200     0.0646     0.4535
  153    3.040   2178.39     0.0961     0.0045     0.0652     0.0304     0.1230     4.7567    48.6400     0.0743     0.4532
  154    3.060   2179.38     0.1063     0.0043     0.0685     0.0306     0.1345     4.1226    48.9600     0.0855     0.4267
  155    3.080   2180.38     0.1081     0.0043     0.0684     0.0308     0.1372     3.9626    49.2800     0.0879     0.4361
  156    3.100   2181.35     0.1034     0.0044     0.0717     0.0310     0.1329     4.2043    49.6000     0.0833     0.4726
  157    3.120   2182.33     0.0989     0.0040     0.0737     0.0312     0.1297     4.0423    49.9200     0.0797     0.5272
  158    3.140   2183.33     0.0921     0.0040     0.0757     0.0314     0.1236     4.3289    50.2400     0.0733     0.5947
  159    3.160   2184.35     0.0880     0.0047     0.0782     0.0316     0.1203     5.3916    50.5600     0.0697     0.6475
  160    3.180   2185.38     0.0878     0.0041     0.0789     0.0318     0.1210     4.6868    50.8800     0.0701     0.6720
  161    3.200   2186.33     0.0879     0.0043     0.0799     0.0320     0.1213     4.8023    51.2000     0.0701     0.6803
  162    3.220   2187.31     0.0861     0.0042     0.0771     0.0322     0.1193     4.9558    51.5200     0.0678     0.6920
  163    3.240   2188.34     0.0933     0.0040     0.0620     0.0324     0.1212     4.1684    51.8400     0.0694     0.4887
  164    3.260   2189.36     0.0774     0.0043     0.0697     0.0326     0.1060     5.3704    52.1600     0.0539     0.6682
  165    3.280   2190.34     0.0757     0.0041     0.0729     0.0328     0.1060     5.5050    52.4800     0.0536     0.7365
  166    3.300   2191.34     0.0798     0.0041     0.0745     0.0330     0.1108     5.0651    52.8000     0.0580     0.7039
  167    3.320   2192.31     0.0844     0.0040     0.0779     0.0332     0.1166     4.7847    53.1200     0.0635     0.6843
  168    3.340   2193.32     0.0957     0.0041     0.0748     0.0334     0.1280     4.3844    53.4400     0.0746     0.5847
  169    3.360   2194.34     0.1049     0.0041     0.0745     0.0336     0.1360     3.9889    53.7600     0.0822     0.4920
  170    3.380   2195.34     0.1003     0.0043     0.0795     0.0338     0.1330     4.2414    54.0800     0.0789     0.5570
  171    3.400   2196.34     0.1009     0.0043     0.0826     0.0340     0.1354     4.3676    54.4000     0.0810     0.5955
  172    3.420   2197.30     0.0993     0.0041     0.0811     0.0342     0.1337     4.0886    54.7200     0.0790     0.6039
  173    3.440   2198.27     0.0968     0.0043     0.0815     0.0344     0.1307     4.3911    55.0400     0.0757     0.6126
  174    3.460   2199.25     0.0959     0.0045     0.0831     0.0346     0.1308     4.6874    55.3600     0.0755     0.6419
  175    3.480   2200.25     0.0908     0.0038     0.0803     0.0348     0.1250     4.2660    55.6800     0.0693     0.6743
  176    3.500   2201.25     0.0926     0.0045     0.0772     0.0350     0.1251     4.9819    56.0000     0.0691     0.6153
  177    3.520   2202.25     0.1057     0.0044     0.0803     0.0352     0.1388     4.1764    56.3200     0.0825     0.5288
  178    3.540   2203.25     0.1068     0.0048     0.0838     0.0354     0.1417     4.5420    56.6400     0.0850     0.5621
  179    3.560   2204.25     0.1121     0.0046     0.0873     0.0356     0.1480     4.0809    56.9600     0.0911     0.5502
  180    3.580   2205.24     0.1124     0.0049     0.0850     0.0358     0.1483     4.4238    57.2800     0.0910     0.5468
  181    3.600   2206.24     0.1063     0.0047     0.0863     0.0360     0.1420     4.4140    57.6000     0.0844     0.5803
  182    3.620   2207.24     0.1000     0.0046     0.0893     0.0362     0.1369     4.6323    57.9200     0.0789     0.6539
  183    3.640   2208.24     0.0988     0.0047     0.0890     0.0364     0.1363     4.7873    58.2400     0.0781     0.6782
  184    3.660   2209.20     0.0989     0.0046     0.0874     0.0366     0.1366     4.7273    58.5600     0.0780     0.6816
  185    3.680   2210.21     0.0997     0.0045     0.0913     0.0368     0.1374     4.5276    58.8800     0.0785     0.6760
  186    3.700   2211.24     0.1032     0.0050     0.0880     0.0370     0.1412     4.8143    59.2000     0.0820     0.6539
  187    3.720   2212.22     0.1017     0.0051     0.0809     0.0372     0.1361     4.9916    59.5200     0.0766     0.5846
  188    3.740   2213.24     0.1018     0.0049     0.0833     0.0374     0.1365     4.7772    59.8400     0.0766     0.5902
  189    3.760   2214.25     0.0995     0.0048     0.0864     0.0376     0.1354     4.8213    60.1600     0.0752     0.6367
  190    3.780   2215.25     0.0975     0.0053     0.0915     0.0378     0.1352     5.5204    60.4800     0.0747     0.6970
  191    3.800   2216.20     0.0994     0.0044     0.0948     0.0380     0.1386     4.4802    60.8000     0.0778     0.7127
  192    3.820   2217.20     0.1031     0.0045     0.0980     0.0382     0.1439     4.3276    61.1200     0.0828     0.7118
  193    3.840   2218.19     0.1027     0.0044     0.0985     0.0384     0.1443     4.3164    61.4400     0.0829     0.7310
  194    3.860   2219.20     0.1032     0.0047     0.0999     0.0386     0.1452     4.5892    61.7600     0.0835     0.7365
  195    3.880   2220.20     0.1061     0.0046     0.0943     0.0388     0.1462     4.2888    62.0800     0.0841     0.6746
  196    3.900   2221.17     0.1093     0.0050     0.0931     0.0390     0.1490     4.5551    62.4000     0.0866     0.6424
  197    3.920   2222.16     0.1066     0.0051     0.0862     0.0392     0.1445     4.7897    62.7200     0.0818     0.6246
  198    3.940   2223.16     0.1119     0.0052     0.0769     0.0394     0.1452     4.6810    63.0400     0.0822     0.4844
  199    3.960   2224.16     0.1131     0.0052     0.0793     0.0396     0.1455     4.7015    63.3600     0.0822     0.4588
  200    3.980   2225.12     0.1085     0.0050     0.0844     0.0398     0.1431     4.5581    63.6800     0.0794     0.5357
  201    4.000   2226.16     0.1043     0.0048     0.0881     0.0400     0.1409     4.4501    64.0000     0.0769     0.6122
  202    4.020   2227.14     0.1005     0.0049     0.0906     0.0402     0.1380     4.7850    64.3200     0.0737     0.6662
  203    4.040   2228.14     0.0992     0.0044     0.0927     0.0404     0.1382     4.4389    64.6400     0.0736     0.7130
  204    4.060   2230.81     0.0995     0.0042     0.0917     0.0406     0.1388     4.3331    64.9600     0.0738     0.7202
  205    4.080   2253.55     0.1089     0.0042     0.0860     0.0408     0.1458     4.2219    65.2800     0.0805     0.5999
  206    4.100   2276.30     0.1183     0.0040     0.0805     0.0410     0.1529     3.9209    65.6000     0.0873     0.4796
  207    4.120   2284.29     0.1208     0.0041     0.0824     0.0412     0.1551     3.3564    65.9200     0.0892     0.4554
  208    4.140   2285.30     0.1236     0.0038     0.0815     0.0414     0.1579     3.1370    66.2400     0.0916     0.4377
  209    4.160   2286.26     0.1225     0.0041     0.0819     0.0416     0.1567     3.3377    66.5600     0.0902     0.4436
  210    4.180   2287.26     0.1223     0.0042     0.0808     0.0418     0.1567     3.4002    66.8800     0.0899     0.4480
  211    4.200   2288.29     0.1166     0.0039     0.0814     0.0420     0.1510     3.3378    67.2000     0.0838     0.4751
  212    4.220   2289.27     0.1174     0.0042     0.0755     0.0422     0.1499     3.5670    67.5200     0.0824     0.4280
  213    4.240   2290.24     0.1164     0.0036     0.0721     0.0424     0.1474     3.0839    67.8400     0.0796     0.3969
  214    4.260   2291.22     0.1238     0.0038     0.0650     0.0426     0.1514     3.0650    68.1600     0.0833     0.2788
  215    4.280   2292.23     0.1252     0.0044     0.0712     0.0428     0.1537     3.4849    68.4800     0.0852     0.2944
  216    4.300   2293.20     0.1246     0.0045     0.0763     0.0430     0.1562     3.6047    68.8000     0.0874     0.3687
  217    4.320   2294.20     0.1206     0.0047     0.0782     0.0432     0.1531     3.8790    69.1200     0.0839     0.4063
  218    4.340   2295.19     0.1238     0.0046     0.0750     0.0434     0.1557     3.7250    69.4400     0.0862     0.3757
  219    4.360   2296.19     0.1285     0.0046     0.0791     0.0436     0.1610     3.5762    69.7600     0.0912     0.3685
  220    4.380   2297.19     0.1280     0.0046     0.0837     0.0438     0.1624     3.5982    70.0800     0.0923     0.4129
  221    4.400   2298.20     0.1357     0.0045     0.0885     0.0440     0.1721     3.3066    70.4000     0.1017     0.4200
  222    4.420   2299.17     0.1368     0.0041     0.0905     0.0442     0.1747     3.0314    70.7200     0.1040     0.4433
  223    4.440   2300.16     0.1427     0.0042     0.0926     0.0444     0.1812     2.9545    71.0400     0.1102     0.4294
  224    4.460   2301.12     0.1486     0.0048     0.0905     0.0446     0.1869     3.2238    71.3600     0.1155     0.4032
  225    4.480   2302.16     0.1501     0.0047     0.0875     0.0448     0.1872     3.1093    71.6800     0.1155     0.3756
  226    4.500   2303.09     0.1441     0.0052     0.0855     0.0450     0.1805     3.5666    72.0000     0.1085     0.3838
  227    4.520   2304.09     0.1373     0.0052     0.0804     0.0452     0.1718     3.7515    72.3200     0.0994     0.3715
  228    4.540   2305.13     0.1388     0.0054     0.0772     0.0454     0.1713     3.9309    72.6400     0.0986     0.3238
  229    4.560   2306.11     0.1302     0.0054     0.0821     0.0456     0.1639     4.0936    72.9600     0.0910     0.3813
  230    4.580   2307.10     0.1312     0.0051     0.0872     0.0458     0.1671     3.9287    73.2800     0.0938     0.4208
  231    4.600   2308.10     0.1356     0.0049     0.0904     0.0460     0.1730     3.6217    73.6000     0.0994     0.4337
  232    4.620   2309.05     0.1326     0.0052     0.0917     0.0462     0.1711     3.8904    73.9200     0.0972     0.4690
  233    4.640   2310.07     0.1346     0.0049     0.0943     0.0464     0.1737     3.6444    74.2400     0.0995     0.4697
  234    4.660   2311.07     0.1295     0.0048     0.0965     0.0466     0.1704     3.7182    74.5600     0.0959     0.5298
  235    4.680   2312.07     0.1257     0.0045     0.0987     0.0468     0.1665     3.5992    74.8800     0.0916     0.5504
  236    4.700   2313.07     0.1263     0.0047     0.1018     0.0470     0.1686     3.7494    75.2000     0.0934     0.5745
  237    4.720   2314.05     0.1210     0.0045     0.1033     0.0472     0.1644     3.6730    75.5200     0.0889     0.6327
  238    4.740   2315.11     0.1247     0.0046     0.1060     0.0474     0.1687     3.7299    75.8400     0.0928     0.6171
  239    4.760   2316.06     0.1214     0.0048     0.1047     0.0476     0.1658     3.9247    76.1600     0.0896     0.6464
  240    4.780   2317.06     0.1212     0.0048     0.1019     0.0478     0.1650     3.9243    76.4800     0.0885     0.6367
  241    4.800   2318.03     0.1158     0.0048     0.0971     0.0480     0.1573     4.0492    76.8000     0.0805     0.6316
  242    4.820   2319.03     0.1170     0.0047     0.0962     0.0482     0.1575     4.0331    77.1200     0.0804     0.5994
  243    4.840   2320.03     0.1127     0.0044     0.0975     0.0484     0.1531     3.8669    77.4400     0.0757     0.6327
  244    4.860   2321.06     0.1123     0.0047     0.1006     0.0486     0.1545     4.2098    77.7600     0.0768     0.6776
  245    4.880   2322.06     0.1078     0.0043     0.0977     0.0488     0.1498     3.9615    78.0800     0.0717     0.7144
  246    4.900   2323.03     0.1099     0.0046     0.1016     0.0490     0.1517     4.1918    78.4000     0.0733     0.6901
  247    4.920   2323.99     0.1080     0.0044     0.1061     0.0492     0.1521     4.0922    78.7200     0.0733     0.7601
  248    4.940   2324.98     0.1066     0.0044     0.1092     0.0494     0.1520     4.1386    79.0400     0.0730     0.8055
  249    4.960   2325.98     0.1066     0.0042     0.1118     0.0496     0.1533     3.9480    79.3600     0.0739     0.8322
  250    4.980   2326.98     0.1089     0.0040     0.1141     0.0498     0.1568     3.6962    79.6800     0.0771     0.8324
  251    5.000   2327.98     0.1104     0.0040     0.1164     0.0500     0.1589     3.5761    80.0000     0.0789     0.8312
  252    5.020   2328.95     0.1166     0.0041     0.1175     0.0502     0.1658     3.5501    80.3200     0.0854     0.7841
  253    5.040   2329.97     0.1269     0.0040     0.1170     0.0504     0.1763     3.1783    80.6400     0.0957     0.7038
  254    5.060   2330.93     0.1312     0.0043     0.1124     0.0506     0.1795     3.3270    80.9600     0.0985     0.6530
  255    5.080   2331.99     0.1388     0.0044     0.1068     0.0508     0.1844     3.1821    81.2800     0.1031     0.5606
  256    5.100   2332.96     0.1406     0.0043     0.1050     0.0510     0.1849     3.0800    81.6000     0.1033     0.5271
  257    5.120   2333.95     0.1390     0.0044     0.1028     0.0512     0.1826     3.1716    81.9200     0.1006     0.5230
  258    5.140   2334.95     0.1395     0.0044     0.1000     0.0514     0.1813     3.1567    82.2400     0.0991     0.4873
  259    5.160   2335.95     0.1368     0.0049     0.1027     0.0516     0.1796     3.5571    82.5600     0.0971     0.5181
  260    5.180   2336.95     0.1358     0.0046     0.1033     0.0518     0.1790     3.3736    82.8800     0.0962     0.5314
  261    5.200   2337.95     0.1301     0.0042     0.1026     0.0520     0.1733     3.1642    83.2000     0.0901     0.5654
  262    5.220   2338.94     0.1285     0.0045     0.1049     0.0522     0.1721     3.4934    83.5200     0.0886     0.5816
  263    5.240   2339.95     0.1220     0.0043     0.1081     0.0524     0.1672     3.4994    83.8400     0.0834     0.6634
  264    5.260   2340.95     0.1251     0.0041     0.1098     0.0526     0.1708     3.2631    84.1600     0.0866     0.6485
  265    5.280   2341.97     0.1184     0.0041     0.1105     0.0528     0.1647     3.4383    84.4800     0.0802     0.7147
  266    5.300   2342.95     0.1181     0.0039     0.1125     0.0530     0.1654     3.3276    84.8000     0.0806     0.7402
  267    5.320   2343.92     0.1181     0.0043     0.1126     0.0532     0.1651     3.6230    85.1200     0.0800     0.7350
  268    5.340   2344.93     0.1147     0.0044     0.1128     0.0534     0.1621     3.8335    85.4400     0.0766     0.7748
  269    5.360   2345.90     0.1173     0.0040     0.1153     0.0536     0.1653     3.4220    85.7600     0.0795     0.7630
  270    5.380   2346.89     0.1178     0.0040     0.1170     0.0538     0.1668     3.3764    86.0800     0.0807     0.7776
  271    5.400   2347.90     0.1178     0.0041     0.1182     0.0540     0.1673     3.4777    86.4000     0.0809     0.7884
  272    5.420   2348.86     0.1193     0.0041     0.1199     0.0542     0.1694     3.4134    86.7200     0.0827     0.7885
  273    5.440   2349.85     0.1214     0.0041     0.1237     0.0544     0.1727     3.3609    87.0400     0.0857     0.7906
  274    5.460   2350.85     0.1253     0.0046     0.1266     0.0546     0.1782     3.6537    87.3600     0.0908     0.7839
  275    5.480   2351.85     0.1309     0.0042     0.1249     0.0548     0.1841     3.2173    87.6800     0.0964     0.7440
  276    5.500   2352.85     0.1315     0.0042     0.1201     0.0550     0.1824     3.2088    88.0000     0.0944     0.7014
  277    5.520   2353.88     0.1311     0.0041     0.1251     0.0552     0.1829     3.0805    88.3200     0.0946     0.7214
  278    5.540   2354.87     0.1347     0.0042     0.1285     0.0554     0.1884     3.1320    88.6400     0.0998     0.7260
  279    5.560   2355.86     0.1383     0.0042     0.1295     0.0556     0.1924     2.9952    88.9600     0.1035     0.7081
  280    5.580   2356.86     0.1474     0.0043     0.1274     0.0558     0.2015     2.9327    89.2800     0.1122     0.6516
  281    5.600   2357.86     0.1512     0.0043     0.1232     0.0560     0.2034     2.8195    89.6000     0.1138     0.6000
  282    5.620   2358.86     0.1484     0.0043     0.1224     0.0562     0.1996     2.8538    89.9200     0.1097     0.6002
  283    5.640   2359.87     0.1483     0.0046     0.1243     0.0564     0.2005     3.1044    90.2400     0.1103     0.6164
  284    5.660   2360.87     0.1496     0.0049     0.1216     0.0566     0.2009     3.2985    90.5600     0.1103     0.5930
  285    5.680   2361.86     0.1476     0.0044     0.1247     0.0568     0.1992     3.0042    90.8800     0.1083     0.6100
  286    5.700   2362.86     0.1510     0.0048     0.1261     0.0570     0.2044     3.1724    91.2000     0.1132     0.6195
  287    5.720   2363.89     0.1505     0.0046     0.1246     0.0572     0.2031     3.0230    91.5200     0.1115     0.6086
  288    5.740   2364.90     0.1511     0.0048     0.1220     0.0574     0.2026     3.1987    91.8400     0.1108     0.5889
  289    5.760   2365.86     0.1469     0.0048     0.1201     0.0576     0.1975     3.2168    92.1600     0.1053     0.5968
  290    5.780   2366.88     0.1471     0.0050     0.1235     0.0578     0.1982     3.3586    92.4800     0.1058     0.6055
  291    5.800   2367.85     0.1481     0.0052     0.1274     0.0580     0.2011     3.5005    92.8000     0.1083     0.6304
  292    5.820   2368.84     0.1492     0.0048     0.1299     0.0582     0.2034     3.1831    93.1200     0.1103     0.6419
  293    5.840   2369.82     0.1461     0.0051     0.1317     0.0584     0.2012     3.5101    93.4400     0.1077     0.6742
  294    5.860   2370.83     0.1516     0.0050     0.1330     0.0586     0.2073     3.3487    93.7600     0.1135     0.6508
  295    5.880   2394.44     0.1616     0.0051     0.1275     0.0588     0.2160     3.3145    94.0800     0.1219     0.5868
  296    5.900   2427.06     0.1727     0.0050     0.1220     0.0590     0.2248     3.2821    94.4000     0.1304     0.5052
  297    5.920   2452.79     0.1836     0.0052     0.1226     0.0592     0.2344     2.8875    94.7200     0.1396     0.4409
  298    5.940   2453.78     0.1846     0.0050     0.1268     0.0594     0.2374     2.6976    95.0400     0.1424     0.4664
  299    5.960   2454.77     0.1847     0.0048     0.1294     0.0596     0.2386     2.5702    95.3600     0.1432     0.4789
  300    5.980   2455.76     0.1878     0.0047     0.1307     0.0598     0.2425     2.4781    95.6800     0.1468     0.4793
  301    6.000   2456.75     0.1844     0.0048     0.1310     0.0600     0.2394     2.5939    96.0000     0.1434     0.4954
  302    6.020   2457.73     0.1851     0.0049     0.1346     0.0602     0.2411     2.6150    96.3200     0.1448     0.5047
  303    6.040   2458.74     0.1858     0.0051     0.1353     0.0604     0.2424     2.7809    96.6400     0.1457     0.5096
  304    6.060   2459.72     0.1900     0.0050     0.1334     0.0606     0.2459     2.6339    96.9600     0.1490     0.4878
  305    6.080   2460.70     0.1863     0.0048     0.1356     0.0608     0.2428     2.5865    97.2800     0.1456     0.5070
  306    6.100   2461.72     0.1885     0.0049     0.1337     0.0610     0.2453     2.6143    97.6000     0.1477     0.5026
  307    6.120   2462.72     0.1853     0.0049     0.1360     0.0612     0.2425     2.6609    97.9200     0.1446     0.5190
  308    6.140   2463.69     0.1800     0.0051     0.1342     0.0614     0.2366     2.8015    98.2400     0.1384     0.5304
  309    6.160   2464.68     0.1735     0.0052     0.1369     0.0616     0.2302     2.9698    98.5600     0.1316     0.5565
  310    6.180   2465.71     0.1712     0.0050     0.1394     0.0618     0.2295     2.9362    98.8800     0.1306     0.5887
  311    6.200   2466.70     0.1686     0.0051     0.1418     0.0620     0.2279     3.0304    99.2000     0.1287     0.6158
  312    6.220   2467.72     0.1687     0.0046     0.1432     0.0622     0.2290     2.7147    99.5200     0.1294     0.6277
  313    6.240   2468.68     0.1679     0.0047     0.1441     0.0624     0.2285     2.8146    99.8400     0.1287     0.6366
  314    6.260   2469.70     0.1701     0.0044     0.1420     0.0626     0.2302     2.5641   100.1600     0.1300     0.6192
  315    6.280   2470.66     0.1732     0.0048     0.1448     0.0628     0.2334     2.7546   100.4800     0.1329     0.6061
  316    6.300   2471.64     0.1791     0.0050     0.1470     0.0630     0.2405     2.7840   100.8000     0.1397     0.5947
  317    6.320   2472.68     0.1801     0.0050     0.1471     0.0632     0.2423     2.7735   101.1200     0.1411     0.6011
  318    6.340   2473.63     0.1821     0.0047     0.1429     0.0634     0.2419     2.5581   101.4400     0.1404     0.5616
  319    6.360   2474.68     0.1817     0.0048     0.1428     0.0636     0.2417     2.6608   101.7600     0.1399     0.5672
  320    6.380   2475.66     0.1818     0.0047     0.1462     0.0638     0.2423     2.5853   102.0800     0.1402     0.5722
  321    6.400   2476.65     0.1764     0.0048     0.1501     0.0640     0.2389     2.7213   102.4000     0.1365     0.6209
  322    6.420   2477.69     0.1776     0.0049     0.1503     0.0642     0.2404     2.7737   102.7200     0.1376     0.6190
  323    6.440   2478.68     0.1785     0.0049     0.1544     0.0644     0.2428     2.7599   103.0400     0.1397     0.6339
  324    6.460   2479.64     0.1850     0.0051     0.1568     0.0646     0.2504     2.7904   103.3600     0.1470     0.6197
  325    6.480   2480.65     0.1924     0.0051     0.1524     0.0648     0.2576     2.6844   103.6800     0.1539     0.5880
  326    6.500   2481.66     0.1972     0.0050     0.1481     0.0650     0.2596     2.5194   104.0000     0.1556     0.5361
  327    6.520   2482.64     0.2030     0.0056     0.1474     0.0652     0.2651     2.7421   104.3200     0.1607     0.5139
  328    6.540   2483.64     0.1982     0.0055     0.1438     0.0654     0.2588     2.7785   104.6400     0.1542     0.5127
  329    6.560   2484.64     0.1980     0.0057     0.1451     0.0656     0.2586     2.8503   104.9600     0.1537     0.5120
  330    6.580   2485.64     0.1971     0.0056     0.1472     0.0658     0.2589     2.8247   105.2800     0.1536     0.5296
  331    6.600   2486.64     0.2005     0.0057     0.1482     0.0660     0.2628     2.8711   105.6000     0.1572     0.5240
  332    6.620   2487.64     0.1995     0.0049     0.1484     0.0662     0.2622     2.4603   105.9200     0.1563     0.5321
  333    6.640   2488.64     0.1988     0.0051     0.1463     0.0664     0.2605     2.5544   106.2400     0.1542     0.5208
  334    6.660   2489.67     0.2025     0.0053     0.1481     0.0666     0.2646     2.6165   106.5600     0.1580     0.5138
  335    6.680   2490.66     0.2013     0.0052     0.1491     0.0668     0.2638     2.5937   106.8800     0.1569     0.5226
  336    6.700   2491.65     0.2004     0.0055     0.1461     0.0670     0.2623     2.7458   107.2000     0.1551     0.5182
  337    6.720   2492.65     0.1996     0.0052     0.1487     0.0672     0.2615     2.6212   107.5200     0.1539     0.5202
  338    6.740   2493.65     0.2019     0.0054     0.1494     0.0674     0.2646     2.6627   107.8400     0.1568     0.5226
  339    6.760   2494.63     0.2027     0.0055     0.1518     0.0676     0.2659     2.6926   108.1600     0.1577     0.5259
  340    6.780   2495.65     0.2094     0.0054     0.1532     0.0678     0.2738     2.5738   108.4800     0.1654     0.5182
  341    6.800   2496.65     0.2118     0.0055     0.1492     0.0680     0.2763     2.5938   108.8000     0.1675     0.5100
  342    6.820   2497.63     0.2114     0.0058     0.1466     0.0682     0.2724     2.7511   109.1200     0.1633     0.4718
  343    6.840   2498.62     0.2086     0.0054     0.1481     0.0684     0.2709     2.5721   109.4400     0.1614     0.4942
  344    6.860   2499.62     0.2038     0.0056     0.1545     0.0686     0.2677     2.7311   109.7600     0.1579     0.5278
  345    6.880   2500.65     0.2005     0.0052     0.1581     0.0688     0.2664     2.5936   110.0800     0.1563     0.5634
  346    6.900   2501.60     0.1998     0.0052     0.1606     0.0690     0.2670     2.6058   110.4000     0.1566     0.5810
  347    6.920   2502.60     0.1947     0.0053     0.1633     0.0692     0.2630     2.7165   110.7200     0.1522     0.6128
  348    6.940   2503.60     0.1902     0.0051     0.1626     0.0694     0.2582     2.6670   111.0400     0.1472     0.6297
  349    6.960   2504.59     0.1915     0.0046     0.1658     0.0696     0.2603     2.3891   111.3600     0.1489     0.6316
  350    6.980   2505.57     0.1958     0.0051     0.1662     0.0698     0.2659     2.6344   111.6800     0.1543     0.6294
  351    7.000   2506.58     0.1976     0.0052     0.1673     0.0700     0.2679     2.6177   112.0000     0.1559     0.6234
  352    7.020   2507.56     0.2022     0.0054     0.1655     0.0702     0.2720     2.6788   112.3200     0.1596     0.6012
  353    7.040   2508.56     0.2004     0.0054     0.1621     0.0704     0.2687     2.7043   112.6400     0.1561     0.5917
  354    7.060   2509.56     0.2068     0.0058     0.1628     0.0706     0.2751     2.8073   112.9600     0.1621     0.5674
  355    7.080   2510.59     0.2077     0.0057     0.1624     0.0708     0.2760     2.7434   113.2800     0.1627     0.5633
  356    7.100   2511.54     0.2059     0.0053     0.1613     0.0710     0.2734     2.5920   113.6000     0.1598     0.5609
  357    7.120   2512.54     0.1998     0.0054     0.1641     0.0712     0.2686     2.6750   113.9200     0.1547     0.5988
  358    7.140   2513.55     0.1965     0.0055     0.1659     0.0714     0.2659     2.7835   114.2400     0.1516     0.6187
  359    7.160   2514.53     0.2007     0.0057     0.1688     0.0716     0.2708     2.8339   114.5600     0.1562     0.6107
  360    7.180   2515.53     0.1905     0.0058     0.1709     0.0718     0.2625     3.0139   114.8800     0.1476     0.6749
  361    7.200   2516.56     0.1951     0.0052     0.1653     0.0720     0.2648     2.6959   115.2000     0.1496     0.6290
  362    7.220   2517.56     0.1959     0.0052     0.1657     0.0722     0.2651     2.6396   115.5200     0.1496     0.6195
  363    7.240   2518.56     0.1953     0.0050     0.1735     0.0724     0.2668     2.5757   115.8400     0.1510     0.6484
  364    7.260   2519.55     0.1923     0.0051     0.1798     0.0726     0.2667     2.6522   116.1600     0.1505     0.6936
  365    7.280   2520.55     0.1984     0.0050     0.1867     0.0728     0.2758     2.5214   116.4800     0.1594     0.7009
  366    7.300   2521.54     0.2123     0.0047     0.1882     0.0730     0.2912     2.2458   116.8000     0.1744     0.6595
  367    7.320   2522.54     0.2200     0.0050     0.1856     0.0732     0.2988     2.2937   117.1200     0.1817     0.6296
  368    7.340   2523.54     0.2294     0.0052     0.1799     0.0734     0.3055     2.2649   117.4400     0.1881     0.5729
  369    7.360   2524.57     0.2356     0.0054     0.1804     0.0736     0.3113     2.2892   117.7600     0.1935     0.5510
  370    7.380   2525.57     0.2372     0.0057     0.1755     0.0738     0.3110     2.4156   118.0800     0.1929     0.5286
  371    7.400   2526.57     0.2441     0.0057     0.1753     0.0740     0.3177     2.3610   118.4000     0.1993     0.5083
  372    7.420   2527.53     0.2449     0.0058     0.1733     0.0742     0.3181     2.3722   118.7200     0.1994     0.5023
  373    7.440   2528.51     0.2477     0.0061     0.1704     0.0744     0.3197     2.4601   119.0400     0.2007     0.4841
  374    7.460   2529.51     0.2451     0.0060     0.1703     0.0746     0.3166     2.4281   119.3600     0.1972     0.4844
  375    7.480   2530.52     0.2424     0.0062     0.1691     0.0748     0.3137     2.5575   119.6800     0.1940     0.4892
  376    7.500   2531.52     0.2370     0.0064     0.1661     0.0750     0.3068     2.7162   120.0000     0.1868     0.4883
  377    7.520   2532.52     0.2290     0.0057     0.1684     0.0752     0.2994     2.5099   120.3200     0.1791     0.5164
  378    7.540   2533.51     0.2202     0.0061     0.1712     0.0754     0.2920     2.7578   120.6400     0.1713     0.5574
  379    7.560   2534.50     0.2162     0.0054     0.1739     0.0756     0.2888     2.5006   120.9600     0.1678     0.5795
  380    7.580   2535.51     0.2143     0.0057     0.1798     0.0758     0.2889     2.6342   121.2800     0.1677     0.6075
  381    7.600   2536.51     0.2156     0.0055     0.1840     0.0760     0.2923     2.5438   121.6000     0.1707     0.6245
  382    7.620   2537.50     0.2231     0.0058     0.1852     0.0762     0.3009     2.6653   121.9200     0.1790     0.6085
  383    7.640   2538.53     0.2218     0.0061     0.1840     0.0764     0.2997     2.7501   122.2400     0.1775     0.6152
  384    7.660   2539.53     0.2225     0.0063     0.1716     0.0766     0.2969     2.8349   122.5600     0.1743     0.5766
  385    7.680   2540.53     0.2191     0.0063     0.1711     0.0768     0.2901     2.8354   122.8800     0.1672     0.5526
  386    7.700   2541.53     0.2145     0.0061     0.1761     0.0770     0.2875     2.8085   123.2000     0.1643     0.5890
  387    7.720   2542.53     0.2128     0.0062     0.1808     0.0772     0.2886     2.8927   123.5200     0.1651     0.6247
  388    7.740   2545.33     0.2176     0.0063     0.1812     0.0774     0.2937     2.9770   123.8400     0.1699     0.6113
  389    7.760   2548.25     0.2228     0.0065     0.1816     0.0776     0.2990     2.9530   124.1600     0.1749     0.5951
  390    7.780   2551.16     0.2280     0.0065     0.1815     0.0778     0.3044     2.8790   124.4800     0.1799     0.5789
  391    7.800   2552.46     0.2357     0.0066     0.1764     0.0780     0.3104     2.8158   124.8000     0.1856     0.5380
  392    7.820   2558.58     0.2324     0.0065     0.1740     0.0782     0.3059     2.7799   125.1200     0.1807     0.5349
  393    7.840   2565.32     0.2282     0.0065     0.1716     0.0784     0.3007     2.7440   125.4400     0.1752     0.5369
  394    7.860   2570.95     0.2252     0.0062     0.1780     0.0786     0.2983     2.7518   125.7600     0.1726     0.5526
  395    7.880   2573.87     0.2250     0.0064     0.1893     0.0788     0.3029     2.8547   126.0800     0.1768     0.6013
  396    7.900   2576.79     0.2248     0.0067     0.1973     0.0790     0.3074     2.9576   126.4000     0.1810     0.6500
  397    7.920   2581.05     0.2377     0.0070     0.1946     0.0792     0.3198     3.1321   126.7200     0.1931     0.6079
  398    7.940   2585.48     0.2520     0.0068     0.1919     0.0794     0.3330     3.0140   127.0400     0.2060     0.5551
  399    7.960   2588.91     0.2646     0.0067     0.1898     0.0796     0.3447     2.7429   127.3600     0.2173     0.5107
  400    7.980   2608.49     0.2753     0.0075     0.1862     0.0798     0.3540     2.8059   127.6800     0.2263     0.4780
  401    8.000   2632.78     0.2865     0.0081     0.1826     0.0800     0.3637     3.0274   128.0000     0.2357     0.4431
  402    8.020   2657.07     0.2977     0.0080     0.1827     0.0802     0.3734     2.8349   128.3200     0.2450     0.4083
  403    8.040   2658.00     0.2923     0.0079     0.1876     0.0804     0.3707     2.7074   128.6400     0.2420     0.4390
  404    8.060   2658.99     0.2921     0.0080     0.1889     0.0806     0.3711     2.7227   128.9600     0.2422     0.4446
  405    8.080   2660.04     0.2864     0.0078     0.1899     0.0808     0.3652     2.7130   129.2800     0.2359     0.4533
  406    8.100   2661.00     0.2945     0.0075     0.1955     0.0810     0.3759     2.5710   129.6000     0.2463     0.4584
  407    8.120   2661.98     0.2912     0.0076     0.1963     0.0812     0.3739     2.6171   129.9200     0.2440     0.4742
  408    8.140   2662.98     0.2833     0.0075     0.1964     0.0814     0.3660     2.6148   130.2400     0.2357     0.4907
  409    8.160   2663.99     0.2784     0.0079     0.1932     0.0816     0.3595     2.8313   130.5600     0.2289     0.4873
  410    8.180   2664.99     0.2752     0.0078     0.1960     0.0818     0.3571     2.7935   130.8800     0.2262     0.5007
  411    8.200   2666.02     0.2802     0.0076     0.1932     0.0820     0.3618     2.7163   131.2000     0.2306     0.4872
  412    8.220   2666.97     0.2731     0.0074     0.1918     0.0822     0.3542     2.6844   131.5200     0.2226     0.4980
  413    8.240   2667.99     0.2671     0.0068     0.1964     0.0824     0.3482     2.5402   131.8400     0.2164     0.5118
  414    8.260   2668.96     0.2634     0.0068     0.2050     0.0826     0.3484     2.5694   132.1600     0.2163     0.5544
  415    8.280   2669.85     0.2630     0.0065     0.2015     0.0828     0.3489     2.4883   132.4800     0.2164     0.5625
  416    8.300   2670.64     0.2651     0.0065     0.1972     0.0830     0.3475     2.4517   132.8000     0.2147     0.5275
  417    8.320   2671.47     0.2731     0.0069     0.2029     0.0832     0.3581     2.5360   133.1200     0.2250     0.5296
  418    8.340   2672.40     0.2869     0.0074     0.2025     0.0834     0.3711     2.5925   133.4400     0.2377     0.4930
  419    8.360   2673.45     0.2928     0.0074     0.2021     0.0836     0.3781     2.5169   133.7600     0.2444     0.4893
  420    8.380   2674.43     0.2932     0.0075     0.1906     0.0838     0.3760     2.5484   134.0800     0.2419     0.4682
  421    8.400   2675.41     0.2924     0.0074     0.1754     0.0840     0.3670     2.5117   134.4000     0.2326     0.4022
  422    8.420   2676.37     0.2889     0.0069     0.1820     0.0842     0.3642     2.3859   134.7200     0.2294     0.4138
  423    8.440   2677.37     0.2915     0.0079     0.1936     0.0844     0.3709     2.6945   135.0400     0.2359     0.4439
  424    8.460   2678.39     0.2957     0.0085     0.1999     0.0846     0.3789     2.8810   135.3600     0.2436     0.4668
  425    8.480   2679.37     0.3081     0.0086     0.2029     0.0848     0.3935     2.8146   135.6800     0.2578     0.4596
  426    8.500   2680.34     0.3201     0.0089     0.1974     0.0850     0.4043     2.7571   136.0000     0.2683     0.4299
  427    8.520   2681.35     0.3242     0.0082     0.1834     0.0852     0.4030     2.4956   136.3200     0.2667     0.3839
  428    8.540   2682.33     0.2974     0.0082     0.1870     0.0854     0.3744     2.7222   136.6400     0.2378     0.4119
  429    8.560   2683.38     0.2811     0.0076     0.2012     0.0856     0.3643     2.6851   136.9600     0.2273     0.4943
  430    8.580   2684.38     0.2769     0.0071     0.2111     0.0858     0.3636     2.4825   137.2800     0.2264     0.5356
  431    8.600   2685.33     0.2768     0.0067     0.2158     0.0860     0.3673     2.4332   137.6000     0.2297     0.5637
  432    8.620   2686.30     0.3060     0.0067     0.2215     0.0862     0.3977     2.1765   137.9200     0.2598     0.5086
  433    8.640   2687.30     0.2981     0.0064     0.2303     0.0864     0.3936     2.1840   138.2400     0.2554     0.5529
  434    8.660   2688.30     0.3074     0.0066     0.2251     0.0866     0.4039     2.1715   138.5600     0.2654     0.5400
  435    8.680   2689.30     0.3216     0.0066     0.2204     0.0868     0.4152     2.0604   138.8800     0.2764     0.4930
  436    8.700   2690.30     0.3168     0.0066     0.2257     0.0870     0.4101     2.0637   139.2000     0.2709     0.4989
  437    8.720   2691.29     0.3203     0.0066     0.2342     0.0872     0.4174     2.0760   139.5200     0.2778     0.5178
  438    8.740   2692.31     0.3356     0.0053     0.2370     0.0874     0.4345     1.6052   139.8400     0.2946     0.5023
  439    8.760   2693.30     0.3460     0.0034     0.2407     0.0876     0.4469     0.9894   140.1600     0.3068     0.4977
  440    8.780   2694.29     0.3613     0.0031     0.2441     0.0878     0.4628     0.8466   140.4800     0.3223     0.4774
  441    8.800   2695.30     0.4180     0.0038     0.2560     0.0880     0.5238     0.7530   140.8000     0.3830     0.4288
  442    8.820   2696.32     0.7123     0.0046     0.2514     0.0882     0.8211     0.6593   141.1200     0.6800     0.2632
  443    8.840   2697.29     1.4222     0.0069     0.1807     0.0884     1.5081     0.5480   141.4400     1.3667     0.0885
  444    8.860   2698.26     2.1702     0.0077     0.0920     0.0886     2.2184     0.3956   141.7600     2.0767     0.0134
  445    8.880   2699.31     2.8366     0.0099     0.0891     0.0888     2.8725     0.3696   142.0800     2.7304    -0.0013
  446    8.900   2701.07     3.1336     0.0118     0.0917     0.0890     3.1717     0.3992   142.4000     3.0293     0.0005
  447    8.920   2703.22     3.3949     0.0176     0.0944     0.0892     3.4341     0.5948   142.7200     3.2914     0.0012
  448    8.940   2705.36     3.6562     0.0161     0.1017     0.0894     3.6966     0.5451   143.0400     3.5535     0.0019
  449    8.960   2707.57     3.6680     0.0148     0.0993     0.0896     3.7092     0.4219   143.3600     3.5658     0.0024
  450    8.980   2708.57     3.7439     0.0145     0.1014     0.0898     3.7866     0.3868   143.6800     3.6429     0.0032
  451    9.000   2709.62     3.6888     0.0191     0.0954     0.0900     3.7292     0.5155   144.0000     3.5852     0.0017
  452    9.020   2712.27     2.9226     0.0177     0.1011     0.0902     2.9678     0.6306   144.3200     2.8235     0.0065
  453    9.040   2713.56     3.3524     0.0248     0.0959     0.0904     3.3934     0.7302   144.6400     3.2487     0.0022
  454    9.060   2714.57     2.7708     0.0240     0.0980     0.0906     2.8114     0.8006   144.9600     2.6664     0.0022
  455    9.080   2715.56     2.1809     0.0259     0.1070     0.0908     2.2245     1.3156   145.2800     2.0792     0.0063
  456    9.100   2716.51     1.6163     0.0270     0.1187     0.0910     1.6633     2.0121   145.6000     1.5177     0.0140
  457    9.120   2718.96     1.1085     0.0282     0.1194     0.0912     1.1573     2.7087   145.9200     1.0114     0.0250
  458    9.140   2719.97     0.9498     0.0260     0.1346     0.0914     1.0057     2.5579   146.2400     0.8595     0.0489
  459    9.160   2722.32     0.7300     0.0246     0.1452     0.0916     0.7876     3.3897   146.5600     0.6410     0.0707
  460    9.180   2728.39     0.7096     0.0235     0.1449     0.0918     0.7724     3.1361   146.8800     0.6255     0.0918
  461    9.200   2757.14     0.6735     0.0210     0.1312     0.0920     0.7306     2.9303   147.2000     0.5834     0.0728
  462    9.220   2785.88     0.6374     0.0173     0.1176     0.0922     0.6887     2.4655   147.5200     0.5412     0.0538
  463    9.240   2802.38     0.5678     0.0134     0.1309     0.0924     0.6197     2.3087   147.8400     0.4719     0.0683
  464    9.260   2803.04     0.4853     0.0107     0.1480     0.0926     0.5448     2.1901   148.1600     0.3966     0.1244
  465    9.280   2803.65     0.4304     0.0069     0.1692     0.0928     0.4982     1.5957   148.4800     0.3497     0.1963
  466    9.300   2804.30     0.3984     0.0046     0.1877     0.0930     0.4749     1.1396   148.8000     0.3261     0.2733
  467    9.320   2804.93     0.3880     0.0049     0.2022     0.0932     0.4707     1.2601   149.1200     0.3216     0.3225
  468    9.340   2805.59     0.3894     0.0058     0.2228     0.0934     0.4804     1.4852   149.4400     0.3309     0.3723
  469    9.360   2806.22     0.6909     0.0058     0.2369     0.0936     0.7890     0.9558   149.7600     0.6392     0.2287
  470    9.380   2806.85     1.3140     0.0060     0.2011     0.0938     1.4061     0.5124   150.0800     1.2560     0.1087
  471    9.400   2807.46     1.8655     0.0109     0.1506     0.0940     1.9363     0.7102   150.4000     1.7859     0.0433
  472    9.420   2808.09     2.0605     0.0158     0.0939     0.0942     2.1062     0.9080   150.7200     1.9554     0.0074
  473    9.440   2808.71     1.8269     0.0207     0.0713     0.0944     1.8577     1.1058   151.0400     1.7066    -0.0125
  474    9.460   2809.35     1.5203     0.0215     0.0820     0.0946     1.5521     1.2838   151.3600     1.4008    -0.0131
  475    9.480   2809.99     1.1417     0.0214     0.0953     0.0948     1.1799     1.5813   151.6800     1.0282    -0.0034
  476    9.500   2823.36     0.9900     0.0213     0.1074     0.0950     1.0334     1.8788   152.0000     0.8814     0.0138
  477    9.520   2839.13     0.8826     0.0207     0.1195     0.0952     0.9310     1.9200   152.3200     0.7787     0.0324
  478    9.540   2854.91     0.7752     0.0196     0.1316     0.0954     0.8287     1.8156   152.6400     0.6760     0.0510
  479    9.560   2862.68     0.7007     0.0170     0.1562     0.0956     0.7644     2.3600   152.9600     0.6114     0.0918
  480    9.580   2868.07     0.6747     0.0130     0.1799     0.0958     0.7467     1.9029   153.2800     0.5934     0.1274
  481    9.600   2877.17     0.6610     0.0124     0.2049     0.0960     0.7435     1.8129   153.6000     0.5899     0.1703
  482    9.620   2883.91     0.6601     0.0121     0.2138     0.0962     0.7505     1.8487   153.9200     0.5966     0.1997
  483    9.640   2884.89     0.6711     0.0124     0.1905     0.0964     0.7548     1.8430   154.2400     0.6006     0.1712
  484    9.660   2885.88     0.6031     0.0128     0.1845     0.0966     0.6805     2.1058   154.5600     0.5259     0.1667
  485    9.680   2886.88     0.5732     0.0127     0.1758     0.0968     0.6477     2.2134   154.8800     0.4928     0.1634
  486    9.700   2887.86     0.5300     0.0129     0.1869     0.0970     0.6065     2.3762   155.2000     0.4513     0.1890
  487    9.720   2888.90     0.4965     0.0133     0.1783     0.0972     0.5726     2.6709   155.5200     0.4171     0.2013
  488    9.740   2889.90     0.5145     0.0138     0.1784     0.0974     0.5888     2.6946   155.8400     0.4330     0.1843
  489    9.760   2890.94     0.5982     0.0133     0.1915     0.0976     0.6784     2.2860   156.1600     0.5223     0.1791
  490    9.780   2891.92     0.6998     0.0137     0.1829     0.0978     0.7776     2.0653   156.4800     0.6211     0.1412
  491    9.800   2892.93     0.6929     0.0142     0.1920     0.0980     0.7730     2.1471   156.8000     0.6162     0.1508
  492    9.820   2893.92     0.6780     0.0148     0.1849     0.0982     0.7565     2.2289   157.1200     0.5994     0.1482
  493    9.840   2894.93     0.6657     0.0153     0.1952     0.0984     0.7453     2.3106   157.4400     0.5879     0.1554
  494    9.860   2895.94     0.7064     0.0161     0.2142     0.0986     0.7932     2.3357   157.7600     0.6355     0.1703
  495    9.880   2896.93     0.7857     0.0159     0.2369     0.0988     0.8835     2.0815   158.0800     0.7254     0.1847
  496    9.900   2917.88     0.7780     0.0163     0.2188     0.0990     0.8725     2.0396   158.4000     0.7141     0.1742
  497    9.920   2943.81     0.7495     0.0192     0.2007     0.0992     0.8364     2.3957   158.7200     0.6777     0.1554
  498    9.940   2969.75     0.7209     0.0201     0.1826     0.0994     0.8002     2.5041   159.0400     0.6412     0.1365
  499    9.960   2995.63     0.6924     0.0199     0.1822     0.0996     0.7642     2.8365   159.3600     0.6048     0.1179
  500    9.980   2996.65     0.7169     0.0237     0.1798     0.0998     0.7926     3.3571   159.6800     0.6329     0.1271
  501   10.000   2997.72     0.8916     0.0236     0.1822     0.1000     0.9631     2.7054   160.0000     0.8031     0.0874
  502   10.020   2998.73     1.1266     0.0239     0.2189     0.1002     1.2124     2.2805   160.3200     1.0520     0.0991
  503   10.040   2999.73     1.5891     0.0243     0.2489     0.1004     1.6927     1.5611   160.6400     1.5320     0.0955
  504   10.060   3000.71     1.5748     0.0252     0.1707     0.1006     1.6462     1.5627   160.9600     1.4852     0.0468
  505   10.080   3001.68     1.1419     0.0233     0.1848     0.1008     1.2082     2.0288   161.2800     1.0469     0.0548
  506   10.100   3002.73     1.0715     0.0229     0.2247     0.1010     1.1627     2.1446   161.6000     1.0011     0.1160
  507   10.120   3003.73     1.1053     0.0197     0.2411     0.1012     1.2033     1.7812   161.9200     1.0414     0.1270
  508   10.140   3004.73     1.0646     0.0177     0.2331     0.1014     1.1648     1.6556   162.2400     1.0025     0.1367
  509   10.160   3005.70     0.9681     0.0157     0.2292     0.1016     1.0680     1.6023   162.5600     0.9055     0.1506
  510   10.180   3006.69     0.8865     0.0168     0.2198     0.1018     0.9811     1.8168   162.8800     0.8182     0.1509
  511   10.200   3007.75     0.8657     0.0149     0.2282     0.1020     0.9591     1.7246   163.2000     0.7959     0.1512
  512   10.220   3008.73     1.0135     0.0127     0.2418     0.1022     1.1129     1.3084   163.5200     0.9494     0.1424
  513   10.240   3009.73     1.5710     0.0155     0.2063     0.1024     1.6670     1.0221   163.8400     1.5031     0.0857
  514   10.260   3010.76     2.4032     0.0208     0.1027     0.1026     2.4624     0.8777   164.1600     2.2982     0.0173
  515   10.280   3011.77     3.0167     0.0279     0.0585     0.1028     3.0432     1.0107   164.4800     2.8788    -0.0138
  516   10.300   3012.81     3.1250     0.0298     0.0443     0.1030     3.1444     0.9477   164.8000     2.9796    -0.0191
  517   10.320   3013.74     2.8891     0.0358     0.0703     0.1032     2.9136     1.2332   165.1200     2.7485    -0.0163
  518   10.340   3014.74     2.7885     0.0410     0.1059     0.1034     2.8273     1.4660   165.4400     2.6619    -0.0042
  519   10.360   3015.77     2.9592     0.0417     0.1284     0.1036     3.0102     1.4547   165.7600     2.8445     0.0063
  520   10.380   3016.80     3.2245     0.0408     0.0775     0.1038     3.2694     1.2981   166.0800     3.1033     0.0012
  521   10.400   3017.81     3.5745     0.0414     0.0744     0.1040     3.6071     1.1665   166.4000     3.4407    -0.0077
  522   10.420   3018.79     3.9178     0.0357     0.0725     0.1042     3.9481     0.9329   166.7200     3.7814    -0.0085
  523   10.440   3019.81     4.4616     0.0337     0.0573     0.1044     4.4884     0.7868   167.0400     4.3214    -0.0094
  524   10.460   3020.88     5.1064     0.0354     0.0015     0.1046     5.1152     0.7405   167.3600     4.9479    -0.0168
  525   10.480   3021.90     5.5193     0.0364    -0.0235     0.1048     5.5116     0.6729   167.6800     5.3440    -0.0230
  526   10.500   3022.88     5.6687     0.0325    -0.0153     0.1050     5.6600     0.5797   168.0000     5.4920    -0.0229
  527   10.520   3023.86     5.8074     0.0355     0.0070     0.1052     5.8065     0.6209   168.3200     5.6382    -0.0191
  528   10.540   3024.91     6.0834     0.0418     0.0225     0.1054     6.0901     0.6891   168.6400     5.9215    -0.0151
  529   10.560   3025.94     6.2416     0.0466     0.0435     0.1056     6.2570     0.7511   168.9600     6.0880    -0.0113
  530   10.580   3026.99     6.3475     0.0492     0.0529     0.1058     6.3696     0.7754   169.2800     6.2003    -0.0086
  531   10.600   3027.97     6.3661     0.0509     0.0438     0.1060     6.3855     0.7975   169.6000     6.2159    -0.0096
  532   10.620   3028.98     6.3102     0.0526     0.0497     0.1062     6.3296     0.8307   169.9200     6.1597    -0.0097
  533   10.640   3029.98     6.2664     0.0531     0.0560     0.1064     6.2894     0.8460   170.2400     6.1191    -0.0084
  534   10.660   3031.02     6.3078     0.0532     0.0643     0.1066     6.3338     0.8481   170.5600     6.1632    -0.0072
  535   10.680   3032.05     6.5287     0.0581     0.0714     0.1068     6.5572     0.9081   170.8800     6.3863    -0.0061
  536   10.700   3033.05     6.7955     0.0707     0.0757     0.1070     6.8290     1.0592   171.2000     6.6578    -0.0041
  537   10.720   3034.10     7.0537     0.0855     0.0381     0.1072     7.0776     1.2288   171.5200     6.9061    -0.0073
  538   10.740   3035.20     6.9594     0.0881     0.0116     0.1074     6.9652     1.2597   171.8400     6.7934    -0.0138
  539   10.760   3036.15     6.4205     0.0828     0.0110     0.1076     6.4242     1.2345   172.1600     6.2521    -0.0158
  540   10.780   3037.15     5.7245     0.0835     0.0473     0.1078     5.7350     1.3935   172.4800     5.5625    -0.0149
  541   10.800   3038.12     5.2602     0.0764     0.1260     0.1080     5.2981     1.4253   172.8000     5.1253    -0.0034
  542   10.820   3039.21     5.6739     0.0692     0.1301     0.1082     5.7322     1.2731   173.1200     5.5591     0.0055
  543   10.840   3040.25     6.6323     0.0607     0.0931     0.1084     6.6824     0.9881   173.4400     6.5090     0.0018
  544   10.860   3041.28     7.3874     0.0568    -0.0146     0.1086     7.3891     0.8026   173.7600     7.2153    -0.0145
  545   10.880   3042.34     8.0087     0.0514    -0.0281     0.1088     7.9983     0.6657   174.0800     7.8242    -0.0171
  546   10.900   3043.40     8.6104     0.0585    -0.0308     0.1090     8.5976     0.7025   174.4000     8.4232    -0.0166
  547   10.920   3044.39     8.5493     0.0711    -0.0370     0.1092     8.5347     0.8165   174.7200     8.3600    -0.0172
  548   10.940   3045.38     7.6327     0.0844    -0.0239     0.1094     7.6197     1.0405   175.0400     7.4447    -0.0188
  549   10.960   3046.42     6.4989     0.0844    -0.0212     0.1096     6.4915     1.2134   175.3600     6.3162    -0.0202
  550   10.980   3047.47     5.3626     0.0771    -0.0076     0.1098     5.3516     1.3125   175.6800     5.1759    -0.0264
  551   11.000   3053.95     4.7345     0.0768     0.0783     0.1100     4.7549     1.4675   176.0000     4.5789    -0.0115
  552   11.020   3061.15     4.1702     0.0791     0.1302     0.1102     4.2267     1.8178   176.3200     4.0504     0.0063
  553   11.040   3062.51     3.7841     0.0859     0.1234     0.1104     3.8410     2.1905   176.6400     3.6644     0.0068
  554   11.060   3063.53     4.3273     0.0774     0.0497     0.1106     4.3587     1.9133   176.9600     4.1817    -0.0085
  555   11.080   3064.59     4.7463     0.0642    -0.0277     0.1108     4.7457     1.3824   177.2800     4.5684    -0.0245
  556   11.100   3065.61     4.6753     0.0635    -0.0516     0.1110     4.6524     1.3377   177.6000     4.4748    -0.0370
  557   11.120   3066.61     4.2434     0.0644    -0.0404     0.1112     4.2246     1.4323   177.9200     4.0467    -0.0385
  558   11.140   3067.63     3.6767     0.0711    -0.0828     0.1114     3.6481     1.9117   178.2400     3.4698    -0.0518
  559   11.160   3068.64     3.0962     0.0826    -0.0420     0.1116     3.0717     2.6447   178.5600     2.8931    -0.0588
  560   11.180   3069.70     2.6774     0.0702    -0.0180     0.1118     2.6615     2.5919   178.8800     2.4826    -0.0603
  561   11.200   3070.71     2.4753     0.0531    -0.0031     0.1120     2.4736     2.1085   179.2000     2.2944    -0.0506
  562   11.220   3071.70     2.2853     0.0440     0.0715     0.1122     2.2970     1.8682   179.5200     2.1175    -0.0397
  563   11.240   3072.71     2.1514     0.0386     0.1549     0.1124     2.2047     1.7506   179.8400     2.0248     0.0071
  564   11.260   3075.14     2.9265     0.0351     0.2765     0.1126     3.0398     1.1907   180.1600     2.8597     0.0552
  565   11.280   3076.17     4.6423     0.0309     0.2569     0.1128     4.7657     0.8024   180.4800     4.5853     0.0397
  566   11.300   3077.20     6.1754     0.0328     0.0806     0.1130     6.2426     0.5717   180.8000     6.0618     0.0078
  567   11.320   3078.25     6.8267     0.0378     0.0228     0.1132     6.8379     0.5732   181.1200     6.6568    -0.0130
  568   11.340   3079.30     7.1999     0.0376     0.0173     0.1134     7.2061     0.5307   181.4400     7.0247    -0.0140
  569   11.360   3080.27     7.3945     0.0443     0.0586     0.1136     7.4111     0.6084   181.7600     7.2293    -0.0103
  570   11.380   3081.34     7.6130     0.0446     0.0349     0.1138     7.6401     0.5923   182.0800     7.4581    -0.0066
  571   11.400   3082.41     7.9479     0.0444    -0.0596     0.1140     7.9323     0.5704   182.4000     7.7499    -0.0195
  572   11.420   3083.41     8.3606     0.0453    -0.0524     0.1142     8.3377     0.5571   182.7200     8.1550    -0.0207
  573   11.440   3084.41     8.6505     0.0506    -0.0680     0.1144     8.6242     0.5896   183.0400     8.4411    -0.0210
  574   11.460   3085.43     8.5370     0.0551    -0.0620     0.1146     8.5098     0.6389   183.3600     8.3265    -0.0215
  575   11.480   3086.47     8.1522     0.0637    -0.0626     0.1148     8.1261     0.7642   183.6800     7.9424    -0.0223
  576   11.500   3087.46     7.6780     0.0771    -0.0563     0.1150     7.6522     0.9835   184.0000     7.4681    -0.0236
  577   11.520   3088.51     7.1231     0.0917    -0.0354     0.1152     7.1050     1.2398   184.3200     6.9207    -0.0229
  578   11.540   3089.52     6.3818     0.0907    -0.0097     0.1154     6.3738     1.3436   184.6400     6.1892    -0.0217
  579   11.560   3090.51     5.5336     0.0839     0.0078     0.1156     5.5343     1.4243   184.9600     5.3493    -0.0213
  580   11.580   3091.52     4.8038     0.0812     0.0444     0.1158     4.8155     1.6067   185.2800     4.6302    -0.0190
  581   11.600   3092.53     4.6771     0.0754     0.1057     0.1160     4.7145     1.6329   185.6000     4.5289    -0.0060
  582   11.620   3093.59     5.3999     0.0653     0.0329     0.1162     5.4223     1.3064   185.9200     5.2364    -0.0120
  583   11.640   3094.63     6.6257     0.0553     0.0128     0.1164     6.6567     0.9087   186.2400     6.4705    -0.0066
  584   11.660   3095.69     7.7035     0.0571    -0.0782     0.1166     7.6780     0.7807   186.5600     7.4915    -0.0237
  585   11.680   3096.73     8.2423     0.0607    -0.1284     0.1168     8.1954     0.7549   186.8800     8.0085    -0.0285
  586   11.700   3097.75     8.1845     0.0731    -0.1503     0.1170     8.1237     0.8794   187.2000     7.9365    -0.0330
  587   11.720   3098.80     7.4689     0.0846    -0.1425     0.1172     7.4073     1.0804   187.5200     7.2198    -0.0366
  588   11.740   3099.82     6.9532     0.0980    -0.1277     0.1174     6.8965     1.3689   187.8400     6.7087    -0.0376
  589   11.760   3100.85     6.5790     0.0989    -0.0908     0.1176     6.5351     1.4721   188.1600     6.3469    -0.0350
  590   11.780   3101.87     6.2815     0.0910    -0.0161     0.1178     6.2609     1.4141   188.4800     6.0724    -0.0274
  591   11.800   3102.90     5.7929     0.0920    -0.0318     0.1180     5.7865     1.5291   188.8000     5.5977    -0.0239
  592   11.820   3103.91     5.7299     0.0875    -0.0326     0.1182     5.7179     1.5250   189.1200     5.5288    -0.0266
  593   11.840   3104.95     5.9188     0.0728    -0.0378     0.1184     5.9029     1.2467   189.4400     5.7135    -0.0274
  594   11.860   3105.96     5.6693     0.0634    -0.0827     0.1186     5.6429     1.0825   189.7600     5.4532    -0.0333
  595   11.880   3106.99     4.9619     0.0576    -0.0959     0.1188     4.9201     1.0827   190.0800     4.7300    -0.0462
  596   11.900   3108.00     4.3864     0.0507    -0.0741     0.1190     4.3505     1.1066   190.4000     4.1601    -0.0492
  597   11.920   3108.99     3.9559     0.0544    -0.0359     0.1192     3.9355     1.2448   190.7200     3.7448    -0.0448
  598   11.940   3110.03     4.0831     0.0588     0.0451     0.1194     4.0839     1.4072   191.0400     3.8929    -0.0302
  599   11.960   3111.04     4.4006     0.0592    -0.0060     0.1196     4.4145     1.3777   191.3600     4.2231    -0.0205
  600   11.980   3112.06     4.7250     0.0529    -0.0414     0.1198     4.7106     1.1487   191.6800     4.5189    -0.0341
  601   12.000   3113.09     4.7923     0.0438    -0.0456     0.1200     4.7730     0.9121   192.0000     4.5810    -0.0362
  602   12.020   3130.94     4.6342     0.0436    -0.0157     0.1202     4.6223     0.9302   192.3200     4.4300    -0.0334
  603   12.040   3168.27     4.5170     0.0541     0.0210     0.1204     4.5205     1.1536   192.6400     4.3278    -0.0257
  604   12.060   3197.81     4.4017     0.0700     0.0097     0.1206     4.4127     1.5826   192.9600     4.2197    -0.0224
  605   12.080   3198.87     4.1884     0.0713     0.0695     0.1208     4.2074     1.6470   193.2800     4.0141    -0.0187
  606   12.100   3199.84     3.8311     0.0703     0.0192     0.1210     3.8445     1.7688   193.6000     3.6509    -0.0245
  607   12.120   3200.85     3.5112     0.0640     0.0482     0.1212     3.5245     1.7421   193.9200     3.3305    -0.0268
  608   12.140   3201.85     3.1278     0.0592     0.0719     0.1214     3.1573     1.8066   194.2400     2.9630    -0.0173
  609   12.160   3202.88     3.3297     0.0588     0.1378     0.1216     3.3755     1.8763   194.5600     3.1809    -0.0044
  610   12.180   3203.94     4.3438     0.0618     0.1497     0.1218     4.4076     1.6526   194.8800     4.2127     0.0071
  611   12.200   3204.97     5.7800     0.0622     0.0852     0.1220     5.8276     1.1399   195.2000     5.6324    -0.0014
  612   12.220   3206.00     6.1675     0.0649     0.0118     0.1222     6.1794     1.0651   195.5200     5.9839    -0.0157
  613   12.240   3207.02     6.0113     0.0664     0.0100     0.1224     6.0156     1.0874   195.8400     5.8197    -0.0193
  614   12.260   3208.04     5.6483     0.0668     0.0314     0.1226     5.6569     1.1704   196.1600     5.4607    -0.0187
  615   12.280   3209.04     5.4796     0.0847     0.0638     0.1228     5.5024     1.5364   196.4800     5.3059    -0.0129
  616   12.300   3210.07     5.3490     0.0953     0.0554     0.1230     5.3767     1.7781   196.8000     5.1799    -0.0110
  617   12.320   3211.07     4.9977     0.0933     0.0036     0.1232     5.0068     1.8599   197.1200     4.8097    -0.0211
  618   12.340   3212.15     4.3917     0.0929    -0.0119     0.1234     4.3792     2.0909   197.4400     4.1818    -0.0366
  619   12.360   3213.13     3.8096     0.0897    -0.0206     0.1236     3.7953     2.2215   197.7600     3.5975    -0.0439
  620   12.380   3214.13     3.6539     0.0740     0.0138     0.1238     3.6501     2.0196   198.0800     3.4520    -0.0385
  621   12.400   3215.12     4.2971     0.0773     0.1212     0.1240     4.3400     1.9794   198.4000     4.1416    -0.0053
  622   12.420   3216.13     5.2719     0.0848     0.0472     0.1242     5.3014     1.7712   198.7200     5.1027    -0.0105
  623   12.440   3217.21     6.2513     0.0880    -0.0408     0.1244     6.2494     1.4141   199.0400     6.0504    -0.0213
  624   12.460   3218.20     6.2851     0.0872    -0.0719     0.1246     6.2576     1.3618   199.3600     6.0583    -0.0314
  625   12.480   3219.25     5.7567     0.0822    -0.0687     0.1248     5.7269     1.4024   199.6800     5.5273    -0.0354
  626   12.500   3220.26     5.0122     0.0924    -0.0339     0.1250     4.9914     1.7495   200.0000     4.7914    -0.0364
  627   12.520   3221.29     4.7492     0.1077     0.0108     0.1252     4.7453     2.2402   200.3200     4.5450    -0.0296
  628   12.540   3222.29     4.8884     0.1132     0.0827     0.1254     4.9061     2.3348   200.6400     4.7054    -0.0178
  629   12.560   3223.31     5.0622     0.1079     0.0519     0.1256     5.0925     2.1628   200.9600     4.8915    -0.0110
  630   12.580   3224.33     4.6654     0.0953    -0.0345     0.1258     4.6605     1.9412   201.2800     4.4592    -0.0309
  631   12.600   3225.36     4.4272     0.0920    -0.0124     0.1260     4.4177     2.0694   201.6000     4.2161    -0.0352
  632   12.620   3226.36     4.8198     0.0930    -0.0212     0.1262     4.8117     2.0046   201.9200     4.6098    -0.0315
  633   12.640   3227.40     5.4102     0.0902     0.0485     0.1264     5.4181     1.7440   202.2400     5.2158    -0.0208
  634   12.660   3228.43     6.0545     0.0907     0.0049     0.1266     6.0714     1.5422   202.5600     5.8688    -0.0146
  635   12.680   3229.47     6.4994     0.0834    -0.0266     0.1268     6.4873     1.3130   202.8800     6.2844    -0.0248
  636   12.700   3230.52     7.1074     0.0745     0.0137     0.1270     7.0972     1.0852   203.2000     6.8940    -0.0219
  637   12.720   3231.61     8.6259     0.0771     0.0632     0.1272     8.6649     0.9742   203.5200     8.4614    -0.0041
  638   12.740   3232.66    10.4116     0.0828    -0.0451     0.1274    10.3975     0.8562   203.8400    10.1936    -0.0158
  639   12.760   3233.67    11.2393     0.0779    -0.0641     0.1276    11.2132     0.7089   204.1600    11.0091    -0.0172
  640   12.780   3234.72    11.4355     0.0867    -0.0571     0.1278    11.4092     0.7600   204.4800    11.2047    -0.0170
  641   12.800   3235.78    11.1670     0.1074    -0.0435     0.1280    11.1466     0.9472   204.8000    10.9418    -0.0161
  642   12.820   3236.80    10.3387     0.1239    -0.0359     0.1282    10.3223     1.1493   205.1200    10.1172    -0.0165
  643   12.840   3237.82     8.9512     0.1409    -0.0204     0.1284     8.9404     1.4603   205.4400     8.7349    -0.0177
  644   12.860   3238.84     7.3845     0.1491     0.0055     0.1286     7.3838     1.8471   205.7600     7.1780    -0.0182
  645   12.880   3239.89     6.2107     0.1419     0.0593     0.1288     6.2246     2.2176   206.0800     6.0185    -0.0159
  646   12.900   3240.91     5.6451     0.1250     0.1359     0.1290     5.6998     2.1143   206.4000     5.4934     0.0003
  647   12.920   3241.93     4.8968     0.1110     0.0697     0.1292     4.9328     2.0789   206.7200     4.7261    -0.0093
  648   12.940   3242.96     3.9997     0.1081     0.1013     0.1294     4.0336     2.4800   207.0400     3.8266    -0.0125
  649   12.960   3243.96     3.7241     0.1068     0.2159     0.1296     3.8007     2.8201   207.3600     3.5933     0.0147
  650   12.980   3245.00     4.4752     0.1039     0.1933     0.1298     4.5515     2.6856   207.6800     4.3438     0.0123
  651   13.000   3246.01     5.4675     0.0823     0.0880     0.1300     5.5381     1.5925   208.0000     5.3301     0.0073
  652   13.020   3247.05     5.7615     0.0791    -0.0484     0.1302     5.7514     1.3681   208.3200     5.5430    -0.0279
  653   13.040   3248.10     5.4866     0.0729    -0.0675     0.1304     5.4599     1.3060   208.6400     5.2513    -0.0369
  654   13.060   3249.11     5.2485     0.0702    -0.0735     0.1306     5.2208     1.3146   208.9600     5.0118    -0.0392
  655   13.080   3250.15     5.5219     0.0708    -0.1008     0.1308     5.4819     1.3212   209.2800     5.2726    -0.0429
  656   13.100   3251.16     6.5249     0.0732    -0.0964     0.1310     6.4932     1.1950   209.6000     6.2836    -0.0329
  657   13.120   3252.21     7.9521     0.0657    -0.1493     0.1312     7.8934     0.8795   209.9200     7.6835    -0.0353
  658   13.140   3253.30     8.6363     0.0487    -0.1617     0.1314     8.5704     0.5739   210.2400     8.3601    -0.0345
  659   13.160   3254.30     8.7454     0.0406    -0.1712     0.1316     8.6746     0.4639   210.5600     8.4641    -0.0354
  660   13.180   3255.31     8.5419     0.0382    -0.1696     0.1318     8.4700     0.4438   210.8800     8.2591    -0.0367
  661   13.200   3256.41     8.3460     0.0418    -0.1646     0.1320     8.2764     0.4968   211.2000     8.0652    -0.0369
  662   13.220   3257.47     8.4482     0.0433    -0.1594     0.1322     8.3799     0.5220   211.5200     8.1684    -0.0361
  663   13.240   3258.55     9.0060     0.0482    -0.1388     0.1324     8.9443     0.5483   211.8400     8.7325    -0.0320
  664   13.260   3259.58     9.4069     0.0481    -0.1275     0.1326     9.3527     0.5164   212.1600     9.1405    -0.0286
  665   13.280   3260.58     9.2884     0.0496    -0.1386     0.1328     9.2343     0.5288   212.4800     9.0218    -0.0290
  666   13.300   3261.61     8.9486     0.0516    -0.1565     0.1330     8.8847     0.5669   212.8000     8.6719    -0.0329
  667   13.320   3262.66     8.3716     0.0581    -0.1661     0.1332     8.3030     0.6714   213.1200     8.0899    -0.0366
  668   13.340   3263.69     7.6386     0.0702    -0.1576     0.1334     7.5701     0.8821   213.4400     7.3567    -0.0403
  669   13.360   3264.72     7.1963     0.0695    -0.1311     0.1336     7.1367     0.9450   213.7600     6.9229    -0.0398
  670   13.380   3265.74     6.8937     0.0861    -0.1079     0.1338     6.8450     1.2274   214.0800     6.6309    -0.0377
  671   13.400   3266.77     6.8474     0.0971    -0.0883     0.1340     6.8066     1.4161   214.4000     6.5922    -0.0350
  672   13.420   3267.78     6.7217     0.0906    -0.0772     0.1342     6.6894     1.3288   214.7200     6.4747    -0.0326
  673   13.440   3268.82     6.2929     0.0989    -0.0920     0.1344     6.2582     1.5184   215.0400     6.0432    -0.0359
  674   13.460   3269.83     5.8493     0.1085    -0.1129     0.1346     5.8040     1.8073   215.3600     5.5887    -0.0434
  675   13.480   3270.86     5.5144     0.0915    -0.1692     0.1348     5.4543     1.6209   215.6800     5.2386    -0.0531
  676   13.500   3271.88     5.2229     0.0928    -0.1672     0.1350     5.1472     1.7426   216.0000     4.9312    -0.0639
  677   13.520   3272.90     5.3196     0.0940    -0.1590     0.1352     5.2575     1.8310   216.3200     5.0412    -0.0562
  678   13.540   3273.96     6.2146     0.0882    -0.1755     0.1354     6.1420     1.5122   216.6400     5.9253    -0.0521
  679   13.560   3275.00     7.4624     0.0730    -0.1639     0.1356     7.3902     1.0506   216.9600     7.1733    -0.0430
  680   13.580   3276.06     8.0435     0.0753    -0.1817     0.1358     7.9693     0.9635   217.2800     7.7520    -0.0403
  681   13.600   3277.09     7.9235     0.0742    -0.1820     0.1360     7.8466     0.9195   217.6000     7.6290    -0.0418
  682   13.620   3278.12     7.5466     0.0825    -0.1738     0.1362     7.4720     1.0713   217.9200     7.2541    -0.0433
  683   13.640   3279.12     7.2099     0.1007    -0.1566     0.1364     7.1410     1.3701   218.2400     6.9227    -0.0434
  684   13.660   3280.16     6.8758     0.0988    -0.1331     0.1366     6.8165     1.4029   218.5600     6.5980    -0.0421
  685   13.680   3281.19     6.1753     0.1019    -0.1123     0.1368     6.1239     1.5531   218.8800     5.9051    -0.0439
  686   13.700   3282.22     5.5072     0.1022    -0.0749     0.1370     5.4692     1.7482   219.2000     5.2500    -0.0433
  687   13.720   3283.25     4.9020     0.1047    -0.0384     0.1372     4.8846     2.0259   219.5200     4.6651    -0.0383
  688   13.740   3284.27     4.5308     0.1036    -0.0346     0.1374     4.5070     2.2157   219.8400     4.2872    -0.0452
  689   13.760   3285.32     4.2960     0.0987     0.0057     0.1376     4.2977     2.2564   220.1600     4.0775    -0.0328
  690   13.780   3286.31     4.1027     0.1026    -0.0198     0.1378     4.1066     2.4538   220.4800     3.8861    -0.0331
  691   13.800   3287.33     4.1785     0.0960    -0.0073     0.1380     4.1729     2.3338   220.8000     3.9521    -0.0383
  692   13.820   3288.40     4.4668     0.0913    -0.0044     0.1382     4.4671     2.1170   221.1200     4.2459    -0.0324
  693   13.840   3289.44     5.0700     0.0896     0.0090     0.1384     5.0723     1.8977   221.4400     4.8509    -0.0275
  694   13.860   3290.46     5.3833     0.0914    -0.0459     0.1386     5.3742     1.7060   221.7600     5.1524    -0.0311
  695   13.880   3291.45     5.1654     0.0989    -0.0852     0.1388     5.1324     1.8660   222.0800     4.9103    -0.0444
  696   13.900   3292.49     4.8649     0.0985    -0.0935     0.1390     4.8277     1.8341   222.4000     4.6053    -0.0494
  697   13.920   3293.53     5.3833     0.0981    -0.0706     0.1392     5.3508     1.8023   222.7200     5.1281    -0.0423
  698   13.940   3294.57     5.8727     0.0888    -0.0564     0.1394     5.8524     1.5201   223.0400     5.6294    -0.0333
  699   13.960   3295.60     5.7921     0.0870    -0.0950     0.1396     5.7547     1.4888   223.3600     5.5313    -0.0414
  700   13.980   3296.63     5.8723     0.0740    -0.0981     0.1398     5.8300     1.2729   223.6800     5.6064    -0.0429
  701   14.000   3314.98     6.6359     0.0640    -0.0919     0.1400     6.5964     1.0251   224.0000     6.3724    -0.0372
  702   14.020   3342.82     7.2652     0.0815    -0.0858     0.1402     7.2282     1.3051   224.3200     7.0039    -0.0330
  703   14.040   3361.95     7.7418     0.1041    -0.1231     0.1404     7.6976     1.4391   224.6400     7.4729    -0.0329
  704   14.060   3362.97     7.4940     0.0999    -0.1517     0.1406     7.4328     1.2922   224.9600     7.2078    -0.0398
  705   14.080   3363.99     6.4454     0.0986    -0.1521     0.1408     6.3810     1.4239   225.2800     6.1557    -0.0478
  706   14.100   3365.01     5.3589     0.1007    -0.1471     0.1410     5.2961     1.6971   225.6000     5.0705    -0.0574
  707   14.120   3366.00     4.3093     0.1083    -0.1212     0.1412     4.2520     2.2760   225.9200     4.0261    -0.0690
  708   14.140   3367.08     4.3223     0.1153    -0.0397     0.1414     4.2957     2.7630   226.2400     4.0694    -0.0504
  709   14.160   3368.13     5.1862     0.1150     0.0112     0.1416     5.1800     2.4486   226.5600     4.9534    -0.0316
  710   14.180   3369.14     5.8044     0.1164    -0.0143     0.1418     5.8212     2.0242   226.8800     5.5943    -0.0182
  711   14.200   3370.14     5.4158     0.1124    -0.0495     0.1420     5.3953     1.9986   227.2000     5.1681    -0.0369
  712   14.220   3371.14     4.7865     0.1097    -0.0297     0.1422     4.7725     2.1521   227.5200     4.5450    -0.0386
  713   14.240   3372.14     4.0065     0.1034     0.0031     0.1424     3.9943     2.5286   227.8400     3.7664    -0.0456
  714   14.260   3373.19     3.4653     0.0991     0.1224     0.1426     3.5085     2.6727   228.1600     3.2803    -0.0121
  715   14.280   3374.26     2.7434     0.0810     0.0748     0.1428     2.7787     2.9099   228.4800     2.5502    -0.0233
  716   14.300   3375.23     2.3011     0.0639     0.1586     0.1430     2.3383     2.6060   228.8000     2.1095    -0.0252
  717   14.320   3376.21     2.0150     0.0520     0.2337     0.1432     2.1043     2.5090   229.1200     1.8752     0.0371
  718   14.340   3377.21     1.9725     0.0377     0.2598     0.1434     2.0781     1.9006   229.4400     1.8486     0.0584
  719   14.360   3378.27     1.9963     0.0326     0.3011     0.1436     2.1178     1.6399   229.7600     1.8881     0.0772
  720   14.380   3379.34     1.9851     0.0301     0.3187     0.1438     2.1173     1.5047   230.0800     1.8872     0.0906
  721   14.400   3380.30     1.9810     0.0273     0.3147     0.1440     2.1131     1.3831   230.4000     1.8827     0.0906
  722   14.420   3381.30     2.0423     0.0274     0.3670     0.1442     2.1854     1.3593   230.7200     1.9547     0.1005
  723   14.440   3382.36     2.5119     0.0301     0.4418     0.1444     2.6848     1.4172   231.0400     2.4538     0.1106
  724   14.460   3383.41     5.3488     0.0322     0.5590     0.1446     5.5691     0.8269   231.3600     5.3378     0.0723
  725   14.480   3384.46     9.4400     0.0403     0.4825     0.1448     9.6766     0.5215   231.6800     9.4449     0.0449
  726   14.500   3385.45    11.2666     0.0543     0.0297     0.1450    11.3373     0.5023   232.0000    11.1053     0.0023
  727   14.520   3386.56    11.3727     0.0747    -0.0677     0.1452    11.3513     0.6509   232.3200    11.1189    -0.0177
  728   14.540   3387.61    10.5043     0.1023    -0.0948     0.1454    10.4660     0.9673   232.6400    10.2333    -0.0231
  729   14.560   3388.62     9.2768     0.1230    -0.0970     0.1456     9.2344     1.2511   232.9600     9.0015    -0.0274
  730   14.580   3389.62     8.2959     0.1310    -0.0716     0.1458     8.2600     1.5243   233.2800     8.0267    -0.0288
  731   14.600   3390.62     7.5566     0.1286    -0.0259     0.1460     7.5370     1.6611   233.6000     7.3034    -0.0264
  732   14.620   3391.67     7.1881     0.1282     0.0381     0.1462     7.1975     1.7504   233.9200     6.9636    -0.0178
  733   14.640   3392.71     6.4490     0.1241     0.0827     0.1464     6.4822     1.8600   234.2400     6.2480    -0.0108
  734   14.660   3393.76     6.6043     0.1189     0.0960     0.1466     6.6464     1.8425   234.5600     6.4118    -0.0072
  735   14.680   3394.84     8.0219     0.1102     0.0237     0.1468     8.0381     1.4920   234.8800     7.8033    -0.0138
  736   14.700   3395.92     9.2868     0.1082    -0.0417     0.1470     9.2797     1.2274   235.2000     9.0445    -0.0181
  737   14.720   3396.95     9.1157     0.1242    -0.1087     0.1472     9.0771     1.3224   235.5200     8.8416    -0.0271
  738   14.740   3397.96     7.8365     0.1378    -0.1263     0.1474     7.7841     1.6228   235.8400     7.5483    -0.0361
  739   14.760   3398.96     6.5171     0.1288    -0.1254     0.1476     6.4639     1.8047   236.1600     6.2277    -0.0442
  740   14.780   3400.02     5.4350     0.1180    -0.1058     0.1478     5.3855     2.0093   236.4800     5.1490    -0.0516
  741   14.800   3401.02     4.7561     0.1125    -0.0473     0.1480     4.7265     2.2294   236.8000     4.4897    -0.0486
  742   14.820   3402.07     4.0652     0.1179     0.0664     0.1482     4.0753     2.6822   237.1200     3.8382    -0.0322
  743   14.840   3403.07     3.5083     0.1168     0.2017     0.1484     3.5643     3.1682   237.4400     3.3269    -0.0044
  744   14.860   3404.12     3.3601     0.1082     0.3740     0.1486     3.4885     3.2216   237.7600     3.2508     0.0484
  745   14.880   3405.11     3.5709     0.0950     0.2532     0.1488     3.6962     2.7365   238.0800     3.4581     0.0433
  746   14.900   3406.19     3.9437     0.0796     0.1920     0.1490     4.0245     2.0856   238.4000     3.7861     0.0114
  747   14.920   3407.23     4.3309     0.0775     0.2240     0.1492     4.4230     1.9028   238.7200     4.1843     0.0168
  748   14.940   3408.23     5.7808     0.0757     0.2148     0.1494     5.8940     1.4649   239.0400     5.6550     0.0216
  749   14.960   3409.29     7.7788     0.0758     0.0564     0.1496     7.8212     1.0884   239.3600     7.5819    -0.0062
  750   14.980   3410.34     9.6078     0.0776     0.0031     0.1498     9.6211     0.8523   239.6800     9.3814    -0.0126
  751   15.000   3411.38     9.9586     0.0862    -0.0871     0.1500     9.9285     0.8602   240.0000     9.6885    -0.0229
  752   15.020   3412.43     9.3340     0.0790    -0.1028     0.1502     9.2919     0.8246   240.3200     9.0516    -0.0277
  753   15.040   3413.47     8.6862     0.0858    -0.0915     0.1504     8.6448     0.9620   240.6400     8.4042    -0.0296
  754   15.060   3414.53     8.7578     0.1071    -0.0499     0.1506     8.7285     1.2506   240.9600     8.4876    -0.0260
  755   15.080   3415.58     9.4520     0.1370     0.0065     0.1508     9.4529     1.4997   241.2800     9.2116    -0.0162
  756   15.100   3416.63     8.9604     0.1663     0.0073     0.1510     8.9640     1.7579   241.6000     8.7224    -0.0163
  757   15.120   3417.66     6.8917     0.1640    -0.0732     0.1512     6.8715     2.0577   241.9200     6.6296    -0.0301
  758   15.140   3418.68     4.8726     0.1392    -0.0998     0.1514     4.8323     2.4585   242.2400     4.5901    -0.0540
  759   15.160   3419.73     3.8643     0.1144    -0.0693     0.1516     3.8261     2.9183   242.5600     3.5836    -0.0676
  760   15.180   3420.73     3.1237     0.1015     0.0424     0.1518     3.1356     2.8768   242.8800     2.8927    -0.0426
  761   15.200   3421.72     2.3727     0.0868     0.1795     0.1520     2.4171     3.2221   243.2000     2.1739    -0.0209
  762   15.220   3422.79     2.0232     0.0662     0.4334     0.1522     2.1708     3.2523   243.5200     1.9273     0.1036
  763   15.240   3423.84     1.9888     0.0387     0.5650     0.1524     2.2102     1.9589   243.8400     1.9663     0.1904
  764   15.260   3424.83     2.0820     0.0329     0.6108     0.1526     2.3374     1.5869   244.1600     2.0932     0.2176
  765   15.280   3425.84     2.1078     0.0324     0.6448     0.1528     2.3748     1.5449   244.4800     2.1303     0.2266
  766   15.300   3426.83     2.2659     0.0331     0.6670     0.1530     2.5432     1.5158   244.8000     2.2984     0.2208
  767   15.320   3427.89     2.2872     0.0336     0.6722     0.1532     2.5723     1.4304   245.1200     2.3272     0.2260
  768   15.340   3428.87     2.0914     0.0330     0.6219     0.1534     2.3537     1.5093   245.4400     2.1082     0.2235
  769   15.360   3429.90     1.9453     0.0349     0.6733     0.1536     2.2155     1.7660   245.7600     1.9697     0.2487
  770   15.380   3430.93     1.8865     0.0381     0.7319     0.1538     2.1857     2.0085   246.0800     1.9397     0.2880
  771   15.400   3431.93     1.8783     0.0395     0.7806     0.1540     2.1994     2.1202   246.4000     1.9530     0.3125
  772   15.420   3432.95     2.0879     0.0400     0.8328     0.1542     2.4291     2.0573   246.7200     2.1824     0.3017
  773   15.440   3433.94     2.5022     0.0442     0.7853     0.1544     2.8435     1.9331   247.0400     2.5965     0.2544
  774   15.460   3434.97     2.7991     0.0474     0.7148     0.1546     3.1070     1.7544   247.3600     2.8596     0.2024
  775   15.480   3435.98     2.6826     0.0509     0.7142     0.1548     2.9840     1.8881   247.6800     2.7364     0.2058
  776   15.500   3437.01     2.3654     0.0535     0.7389     0.1550     2.6631     2.2025   248.0000     2.4151     0.2295
  777   15.520   3438.02     2.1372     0.0526     0.6743     0.1552     2.4405     2.3566   248.3200     2.1922     0.2584
  778   15.540   3439.04     1.9667     0.0485     0.7883     0.1554     2.2767     2.3771   248.6400     2.0281     0.2875
  779   15.560   3440.08     1.9048     0.0429     0.8367     0.1556     2.2478     2.2377   248.9600     1.9988     0.3306
  780   15.580   3441.09     2.1770     0.0395     0.9066     0.1558     2.5502     1.9963   249.2800     2.3009     0.3186
  781   15.600   3442.09     2.6608     0.0329     0.8655     0.1560     3.0446     1.3755   249.6000     2.7950     0.2713
  782   15.620   3443.12     3.1617     0.0306     0.6932     0.1562     3.4878     1.0258   249.9200     3.2379     0.1916
  783   15.640   3444.13     3.1587     0.0342     0.6567     0.1564     3.4336     1.0627   250.2400     3.1833     0.1565
  784   15.660   3445.21     2.6438     0.0374     0.6912     0.1566     2.9268     1.2774   250.5600     2.6763     0.1934
  785   15.680   3446.20     2.2947     0.0468     0.7658     0.1568     2.6043     1.9535   250.8800     2.3534     0.2467
  786   15.700   3447.24     2.0993     0.0503     0.8857     0.1570     2.4466     2.3772   251.2000     2.1954     0.3053
  787   15.720   3448.24     2.0475     0.0459     0.9190     0.1572     2.4370     2.2443   251.5200     2.1855     0.3524
  788   15.740   3449.25     2.0457     0.0375     0.8828     0.1574     2.4213     1.8283   251.8400     2.1695     0.3397
  789   15.760   3450.28     2.0685     0.0393     0.8557     0.1576     2.4235     1.9155   252.1600     2.1713     0.3167
  790   15.780   3451.31     1.9728     0.0413     0.8508     0.1578     2.3254     2.0089   252.4800     2.0729     0.3288
  791   15.800   3452.31     2.1148     0.0433     0.9255     0.1580     2.4731     2.1023   252.8000     2.2203     0.3129
  792   15.820   3453.34     3.1547     0.0464     0.8390     0.1582     3.5273     1.8629   253.1200     3.2742     0.2268
  793   15.840   3454.36     4.9925     0.0576     0.5028     0.1584     5.2579     1.4565   253.4400     5.0045     0.0966
  794   15.860   3455.81     5.8575     0.0796     0.2749     0.1586     5.9813     1.4828   253.7600     5.7275     0.0229
  795   15.880   3458.34     5.2183     0.0957     0.2177     0.1588     5.3180     1.5872   254.0800     5.0640     0.0126
  796   15.900   3460.86     4.5792     0.0979     0.1605     0.1590     4.6548     1.6228   254.4000     4.4004     0.0023
  797   15.920   3462.97     3.8537     0.0962     0.1973     0.1592     3.9222     2.3462   254.7200     3.6674     0.0013
  798   15.940   3463.97     3.0374     0.0854     0.3238     0.1594     3.1564     2.6003   255.0400     2.9013     0.0436
  799   15.960   3488.90     2.6399     0.0733     0.4037     0.1596     2.7979     2.5311   255.3600     2.5425     0.0884
  800   15.980   3515.25     2.3786     0.0769     0.5701     0.1598     2.5799     3.2478   255.6800     2.3242     0.1370
  801   16.000   3516.24     2.5947     0.0663     0.7080     0.1600     2.8804     2.7160   256.0000     2.6244     0.1982
  802   16.020   3517.27     2.9460     0.0664     0.6413     0.1602     3.2198     2.4137   256.3200     2.9635     0.1661
  803   16.040   3518.26     3.1465     0.0658     0.4699     0.1604     3.3926     2.1005   256.6400     3.1360     0.1353
  804   16.060   3519.28     2.8313     0.0685     0.4088     0.1606     3.0078     2.3696   256.9600     2.7508     0.0944
  805   16.080   3520.28     2.3893     0.0660     0.4212     0.1608     2.5506     2.5351   257.2800     2.2934     0.0978
  806   16.100   3521.30     2.1031     0.0598     0.5853     0.1610     2.3303     2.7094   257.6000     2.0727     0.1833
  807   16.120   3522.35     2.0382     0.0459     0.6053     0.1612     2.2916     2.2473   257.9200     2.0337     0.2174
  808   16.140   3523.34     2.0574     0.0341     0.6347     0.1614     2.3208     1.6700   258.2400     2.0625     0.2257
  809   16.160   3524.34     2.0445     0.0333     0.6593     0.1616     2.3165     1.6172   258.5600     2.0580     0.2363
  810   16.180   3525.36     2.0537     0.0558     0.6864     0.1618     2.3386     2.7689   258.8800     2.0797     0.2484
  811   16.200   3526.39     2.4069     0.0595     0.7777     0.1620     2.7198     2.7026   259.2000     2.4606     0.2370
  812   16.220   3527.40     2.8712     0.0628     0.8010     0.1622     3.2165     2.3926   259.5200     2.9570     0.2238
  813   16.240   3528.40     3.4166     0.0654     0.5151     0.1624     3.6968     1.9505   259.8400     3.4369     0.1466
  814   16.260   3529.46     3.1238     0.0844     0.1690     0.1626     3.2025     2.6312   260.1600     2.9424     0.0082
  815   16.280   3530.49     3.4253     0.0982     0.3464     0.1628     3.5441     3.0920   260.4800     3.2836     0.0356
  816   16.300   3531.49     4.4421     0.0894     0.3845     0.1630     4.6089     2.2726   260.8000     4.3481     0.0539
  817   16.320   3532.53     5.0824     0.0835     0.1829     0.1632     5.1899     1.7021   261.1200     4.9288     0.0190
  818   16.340   3533.59     5.4999     0.1031     0.0594     0.1634     5.5302     1.9361   261.4400     5.2688    -0.0173
  819   16.360   3534.64     5.8191     0.1091     0.0689     0.1636     5.8450     1.9219   261.7600     5.5832    -0.0183
  820   16.380   3535.66     5.9133     0.1018     0.0752     0.1638     5.9546     1.7165   262.0800     5.6925    -0.0115
  821   16.400   3536.67     5.8242     0.1054    -0.0202     0.1640     5.8243     1.7918   262.4000     5.5619    -0.0295
  822   16.420   3537.72     5.5790     0.1096    -0.0485     0.1642     5.5616     1.9450   262.7200     5.2988    -0.0388
  823   16.440   3538.76     6.0610     0.1081    -0.0981     0.1644     6.0275     1.8770   263.0400     5.7645    -0.0423
  824   16.460   3539.74     6.4960     0.1081    -0.0022     0.1646     6.4876     1.6948   263.3600     6.2242    -0.0297
  825   16.480   3540.79     6.2900     0.0965    -0.1180     0.1648     6.2576     1.5099   263.6800     5.9939    -0.0404
  826   16.500   3541.85     6.1430     0.0858    -0.1340     0.1650     6.0875     1.3903   264.0000     5.8235    -0.0510
  827   16.520   3542.91     6.9866     0.0819    -0.1413     0.1652     6.9275     1.2693   264.3200     6.6632    -0.0460
  828   16.540   3543.95     8.6063     0.1053    -0.1131     0.1654     8.5524     1.3310   264.6400     8.2877    -0.0356
  829   16.560   3544.98     9.5852     0.1245    -0.1217     0.1656     9.5398     1.2971   264.9600     9.2749    -0.0295
  830   16.580   3546.00     8.4660     0.1226    -0.1435     0.1658     8.4065     1.3571   265.2800     8.1412    -0.0378
  831   16.600   3547.07     7.1321     0.1013    -0.1379     0.1660     7.0723     1.3429   265.6000     6.8067    -0.0454
  832   16.620   3548.06     6.1799     0.1107    -0.1090     0.1662     6.1289     1.7175   265.9200     5.8630    -0.0490
  833   16.640   3549.07     5.8329     0.1086    -0.0576     0.1664     5.8003     1.8469   266.2400     5.5340    -0.0441
  834   16.660   3550.14     5.8856     0.1073    -0.0076     0.1666     5.8700     1.8055   266.5600     5.6034    -0.0363
  835   16.680   3551.18     6.4127     0.1045     0.0650     0.1668     6.4394     1.7019   266.8800     6.1725    -0.0167
  836   16.700   3552.26     8.2686     0.0996    -0.0154     0.1670     8.2735     1.2755   267.2000     8.0063    -0.0194
  837   16.720   3553.32    10.1690     0.0870    -0.0012     0.1672    10.1673     0.9186   267.5200     9.8998    -0.0173
  838   16.740   3554.34    10.3055     0.0834    -0.0366     0.1674    10.3085     0.7937   267.8400    10.0406    -0.0161
  839   16.760   3555.39     9.4765     0.0876    -0.0669     0.1676     9.4507     0.8912   268.1600     9.1825    -0.0250
  840   16.780   3556.45     8.7249     0.0892    -0.0622     0.1678     8.6966     0.9966   268.4800     8.4281    -0.0279
  841   16.800   3557.50     8.4043     0.1094    -0.0292     0.1680     8.3865     1.2941   268.8000     8.1177    -0.0259
  842   16.820   3558.52     8.1447     0.1179    -0.0070     0.1682     8.1404     1.4278   269.1200     7.8713    -0.0227
  843   16.840   3559.56     7.5628     0.1072     0.0152     0.1684     7.5640     1.3653   269.4400     7.2946    -0.0227
  844   16.860   3560.60     7.1034     0.1046     0.0816     0.1686     7.1278     1.4419   269.7600     6.8580    -0.0161
  845   16.880   3561.65     7.3209     0.0984     0.0603     0.1688     7.3623     1.4058   270.0800     7.0922    -0.0099
  846   16.900   3562.75     8.6028     0.0928    -0.0408     0.1690     8.5907     1.1568   270.4000     8.3203    -0.0238
  847   16.920   3563.75    10.2373     0.0864    -0.0268     0.1692    10.2265     0.8947   270.7200     9.9558    -0.0196
  848   16.940   3564.77    10.6991     0.0749    -0.1017     0.1694    10.6580     0.7065   271.0400    10.3869    -0.0257
  849   16.960   3565.83    10.1690     0.0654    -0.1144     0.1696    10.1219     0.6260   271.3600     9.8506    -0.0286
  850   16.980   3566.88     9.4761     0.0716    -0.1040     0.1698     9.4300     0.7369   271.6800     9.1583    -0.0305
  851   17.000   3567.94     8.8393     0.0810    -0.0810     0.1700     8.8026     0.8929   272.0000     8.5306    -0.0302
  852   17.020   3568.94     8.1913     0.0891    -0.0560     0.1702     8.1634     1.0638   272.3200     7.8910    -0.0300
  853   17.040   3570.01     7.9084     0.0923     0.0011     0.1704     7.9001     1.1715   272.6400     7.6274    -0.0250
  854   17.060   3571.05     8.0410     0.0966     0.0204     0.1706     8.0509     1.2048   272.9600     7.7780    -0.0189
  855   17.080   3572.07     7.9595     0.1006    -0.0013     0.1708     7.9625     1.2582   273.2800     7.6893    -0.0213
  856   17.100   3573.10     7.9607     0.0921    -0.0054     0.1710     7.9669     1.1543   273.6000     7.6933    -0.0203
  857   17.120   3574.12     7.6926     0.0867    -0.0326     0.1712     7.6796     1.1095   273.9200     7.4057    -0.0273
  858   17.140   3575.20     7.8698     0.0858    -0.0368     0.1714     7.8571     1.1263   274.2400     7.5828    -0.0266
  859   17.160   3576.24     8.8084     0.1073    -0.0242     0.1716     8.7960     1.2623   274.5600     8.5215    -0.0236
  860   17.180   3577.33     9.3627     0.1316    -0.0431     0.1718     9.3458     1.4176   274.8800     9.0709    -0.0234
  861   17.200   3578.32     8.3669     0.1335    -0.1283     0.1720     8.3288     1.5039   275.2000     8.0536    -0.0329
  862   17.220   3579.34     6.7795     0.1208    -0.1397     0.1722     6.7218     1.6437   275.5200     6.4462    -0.0483
  863   17.240   3580.39     5.4623     0.1042    -0.1423     0.1724     5.4017     1.8080   275.8400     5.1258    -0.0619
  864   17.260   3581.45     5.3213     0.0998    -0.0911     0.1726     5.2740     1.9553   276.1600     4.9979    -0.0573
  865   17.280   3582.54     6.9480     0.0985    -0.0436     0.1728     6.9240     1.5814   276.4800     6.6475    -0.0348
  866   17.300   3583.55     8.9394     0.0883    -0.0060     0.1730     8.9380     1.0647   276.8000     8.6612    -0.0205
  867   17.320   3584.60    10.0414     0.0811    -0.1059     0.1732    10.0092     0.8296   277.1200     9.7321    -0.0257
  868   17.340   3585.66    10.1681     0.0769    -0.1415     0.1734    10.1114     0.7520   277.4400     9.8340    -0.0314
  869   17.360   3586.76     9.6255     0.0815    -0.1443     0.1736     9.5639     0.8310   277.7600     9.2861    -0.0345
  870   17.380   3587.80     9.5448     0.1031    -0.1422     0.1738     9.4853     1.0740   278.0800     9.2073    -0.0343
  871   17.400   3588.81     9.0847     0.1139    -0.1341     0.1740     9.0279     1.2212   278.4000     8.7495    -0.0354
  872   17.420   3589.82     7.9430     0.1096    -0.1243     0.1742     7.8891     1.3127   278.7200     7.6104    -0.0398
  873   17.440   3590.87     6.6896     0.1016    -0.0963     0.1744     6.6451     1.4334   279.0400     6.3660    -0.0441
  874   17.460   3591.92     5.6492     0.0925    -0.0513     0.1746     5.6191     1.5818   279.3600     5.3398    -0.0461
  875   17.480   3592.98     6.2571     0.0908     0.0253     0.1748     6.2539     1.5730   279.6800     5.9742    -0.0307
  876   17.500   3594.05     8.3587     0.0890     0.0988     0.1750     8.3834     1.2272   280.0000     8.1034    -0.0144
  877   17.520   3595.07    10.0031     0.0951     0.0475     0.1752    10.0444     0.9950   280.3200     9.7641    -0.0078
  878   17.540   3596.11    10.3308     0.0915    -0.0204     0.1754    10.3304     0.8805   280.6400    10.0498    -0.0176
  879   17.560   3597.21     9.4261     0.0876    -0.0461     0.1756     9.4082     0.8986   280.9600     9.1273    -0.0239
  880   17.580   3598.21     8.1150     0.1017    -0.0477     0.1758     8.0951     1.1612   281.2800     7.8138    -0.0286
  881   17.600   3599.21     6.7077     0.1196    -0.0258     0.1760     6.6888     1.6411   281.6000     6.4072    -0.0345
  882   17.620   3600.22     5.3768     0.1350     0.0168     0.1762     5.3783     2.2796   281.9200     5.0963    -0.0339
  883   17.640   3601.27     4.5021     0.1336     0.0395     0.1764     4.5161     2.7933   282.2400     4.2338    -0.0338
  884   17.660   3602.30     3.9128     0.1200     0.0714     0.1766     3.9381     2.8474   282.5600     3.6555    -0.0318
  885   17.680   3603.32     3.3942     0.1026     0.1684     0.1768     3.4461     2.8240   282.8800     3.1632    -0.0165
  886   17.700   3604.35     2.8307     0.0903     0.3599     0.1770     2.9493     2.8937   283.2000     2.6661     0.0410
  887   17.720   3605.38     2.2212     0.0830     0.4883     0.1772     2.4065     3.4056   283.5200     2.1230     0.1245
  888   17.740   3606.42     2.1911     0.0784     0.6381     0.1774     2.4435     3.6098   283.8400     2.1597     0.1961
  889   17.760   3607.44     2.4249     0.0711     0.7115     0.1776     2.7193     3.0517   284.1600     2.4351     0.2150
  890   17.780   3608.46     3.0275     0.0765     0.6201     0.1778     3.3045     2.7404   284.4800     3.0200     0.1615
  891   17.800   3609.44     3.7748     0.0821     0.5109     0.1780     4.0192     2.4259   284.8000     3.7344     0.1085
  892   17.820   3610.48     3.8514     0.0851     0.1814     0.1782     3.9584     2.1796   285.1200     3.6733     0.0202
  893   17.840   3611.56     3.8895     0.0809     0.1742     0.1784     3.9648     1.7494   285.4400     3.6793     0.0002
  894   17.860   3612.61     6.0241     0.0762     0.2232     0.1786     6.1233     1.2625   285.7600     5.8376     0.0097
  895   17.880   3615.74     9.1140     0.0687     0.1380     0.1788     9.1848     0.8672   286.0800     8.8987     0.0008
  896   17.900   3620.83    11.4715     0.0627     0.0494     0.1790    11.5051     0.7911   286.4000    11.2187    -0.0065
  897   17.920   3625.93    13.8291     0.0667    -0.0256     0.1792    13.8254     0.8417   286.7200    13.5387    -0.0137
  898   17.940   3636.41    14.1456     0.0681     0.0284     0.1794    14.1462     0.4807   287.0400    13.8592    -0.0128
  899   17.960   3657.77    14.1146     0.0846     0.1066     0.1796    14.1480     0.5976   287.3600    13.8606    -0.0072
  900   17.980   3679.14    14.0835     0.0958     0.1613     0.1798    14.1498     0.6771   287.6800    13.8621    -0.0016
  901   18.000   3682.11    14.1724     0.0947     0.1396     0.1800    14.2345     0.6710   288.0000    13.9465    -0.0023
  902   18.020   3683.20    14.2453     0.1058     0.1426     0.1802    14.3010     0.7414   288.3200    14.0127    -0.0034
  903   18.040   3684.25    14.5443     0.1251     0.1377     0.1804    14.6064     0.8618   288.6400    14.3177    -0.0023
  904   18.060   3685.35    13.8568     0.1476     0.0393     0.1806    13.8880     1.0330   288.9600    13.5991    -0.0079
  905   18.080   3686.33    11.0627     0.1656    -0.0298     0.1808    11.0514     1.3305   289.2800    10.7621    -0.0195
  906   18.100   3687.32     8.4742     0.1844    -0.0023     0.1810     8.4691     1.9789   289.6000     8.1795    -0.0237
  907   18.120   3688.39     6.4444     0.1785     0.0520     0.1812     6.4583     2.5581   289.9200     6.1683    -0.0240
  908   18.140   3689.44     5.3400     0.1571     0.1165     0.1814     5.3768     2.7955   290.2400     5.0865    -0.0184
  909   18.160   3690.47     5.0927     0.1418     0.2072     0.1816     5.1715     2.8080   290.5600     4.8810     0.0012
  910   18.180   3691.52     5.1660     0.1399     0.2796     0.1818     5.2724     2.7066   290.8800     4.9815     0.0143
  911   18.200   3692.52     5.0486     0.1449     0.3651     0.1820     5.2034     2.8043   291.2000     4.9122     0.0381
  912   18.220   3693.57     5.1040     0.1321     0.4135     0.1822     5.2647     2.7255   291.5200     4.9732     0.0402
  913   18.240   3694.64     6.8267     0.1198     0.3509     0.1824     6.9456     1.9329   291.8400     6.6537     0.0151
  914   18.260   3695.69     8.3072     0.1080     0.1147     0.1826     8.3822     1.3954   292.1600     8.0901    -0.0004
  915   18.280   3696.76     9.9180     0.1001     0.1290     0.1828     9.9592     1.0680   292.4800     9.6667    -0.0088
  916   18.300   3697.84    11.3472     0.0997     0.0990     0.1830    11.3941     0.9157   292.8000    11.1013    -0.0064
  917   18.320   3698.90    11.3681     0.1207    -0.0175     0.1832    11.3682     1.0467   293.1200    11.0751    -0.0165
  918   18.340   3699.93     9.9969     0.1358    -0.0229     0.1834     9.9883     1.2627   293.4400     9.6949    -0.0211
  919   18.360   3700.97     8.0300     0.1519    -0.0216     0.1836     8.0188     1.7146   293.7600     7.7251    -0.0273
  920   18.380   3702.00     6.3581     0.1615     0.0015     0.1838     6.3548     2.2811   294.0800     6.0607    -0.0317
  921   18.400   3703.07     5.2269     0.1400     0.0616     0.1840     5.2403     2.4884   294.4000     4.9459    -0.0307
  922   18.420   3704.07     4.6198     0.1196     0.1750     0.1842     4.6813     2.4898   294.7200     4.3866    -0.0085
  923   18.440   3705.09     4.2105     0.1073     0.2394     0.1844     4.3015     2.4601   295.0400     4.0065     0.0081
  924   18.460   3706.12     3.6674     0.0932     0.2878     0.1846     3.7805     2.3504   295.3600     3.4852     0.0244
  925   18.480   3707.12     2.9667     0.0806     0.3939     0.1848     3.1132     2.5001   295.6800     2.8175     0.0584
  926   18.500   3708.17     2.6643     0.0884     0.5607     0.1850     2.8729     3.2547   296.0000     2.5769     0.1209
  927   18.520   3709.25     3.3483     0.0757     0.7372     0.1852     3.6472     2.6146   296.3200     3.3509     0.1577
  928   18.540   3710.28     4.3027     0.0654     0.5717     0.1854     4.6058     1.6488   296.6400     4.3091     0.1247
  929   18.560   3711.27     4.2967     0.0653     0.4493     0.1856     4.5050     1.4836   296.9600     4.2081     0.0736
  930   18.580   3712.28     3.7003     0.0603     0.3337     0.1858     3.8397     1.5411   297.2800     3.5424     0.0413
  931   18.600   3713.33     3.1657     0.0768     0.5147     0.1860     3.3329     2.3566   297.6000     3.0353     0.0699
  932   18.620   3714.40     3.6217     0.1002     0.8506     0.1862     3.9964     3.1204   297.9200     3.6985     0.1941
  933   18.640   3715.42     5.8335     0.0915     0.8355     0.1864     6.1950     1.9190   298.2400     5.8967     0.1155
  934   18.660   3716.44     6.8272     0.0869     0.3267     0.1866     7.0477     1.3091   298.5600     6.7491     0.0499
  935   18.680   3717.48     6.2366     0.0977     0.0699     0.1868     6.2919     1.4770   298.8800     5.9930    -0.0096
  936   18.700   3718.57     5.4281     0.1145     0.0372     0.1870     5.4422     2.0205   299.2000     5.1430    -0.0298
  937   18.720   3719.62     5.3803     0.1257     0.0183     0.1872     5.3892     2.3368   299.5200     5.0897    -0.0326
  938   18.740   3720.57     5.2405     0.1240     0.0930     0.1874     5.2614     2.3402   299.8400     4.9616    -0.0277
  939   18.760   3721.61     4.5301     0.1161     0.0275     0.1876     4.5652     2.3191   300.1600     4.2650    -0.0246
  940   18.780   3722.65     3.7067     0.0917     0.0305     0.1878     3.7061     2.2565   300.4800     3.4056    -0.0556
  941   18.800   3723.68     2.7820     0.0786     0.0456     0.1880     2.8074     2.4889   300.8000     2.5066    -0.0510
  942   18.820   3724.71     2.0813     0.0754     0.1788     0.1882     2.1314     3.1413   301.1200     1.8303    -0.0376
  943   18.840   3725.71     1.8501     0.0579     0.2933     0.1884     1.9586     3.0303   301.4400     1.6572     0.0423
  944   18.860   3726.76     1.7782     0.0443     0.3484     0.1886     1.9193     2.4615   301.7600     1.6176     0.0911
  945   18.880   3727.76     1.8430     0.0379     0.3945     0.1888     2.0000     2.1344   302.0800     1.6979     0.1089
  946   18.900   3728.77     2.2674     0.0292     0.3967     0.1890     2.4342     1.4254   302.4000     2.1318     0.0981
  947   18.920   3729.81     3.0058     0.0232     0.5005     0.1892     3.2042     0.8734   302.7200     2.9015     0.0976
  948   18.940   3730.84     3.8541     0.0249     0.3318     0.1894     4.0075     0.7097   303.0400     3.7044     0.0479
  949   18.960   3731.84     4.5951     0.0310     0.2426     0.1896     4.7091     0.7155   303.3600     4.4057     0.0187
  950   18.980   3732.89     5.2292     0.0389     0.2402     0.1898     5.3280     0.7784   303.6800     5.0244     0.0091
  951   19.000   3733.92     5.7614     0.0507     0.2477     0.1900     5.8661     0.9073   304.0000     5.5621     0.0107
  952   19.020   3734.98     6.2500     0.0604     0.2480     0.1902     6.3531     0.9941   304.3200     6.0487     0.0091
  953   19.040   3736.00     7.1156     0.0665     0.2521     0.1904     7.2218     0.9681   304.6400     6.9172     0.0090
  954   19.060   3737.09     8.2919     0.0704     0.2381     0.1906     8.3945     0.8860   304.9600     8.0895     0.0066
  955   19.080   3738.13     9.4371     0.0716     0.2075     0.1908     9.5307     0.7902   305.2800     9.2254     0.0035
  956   19.100   3739.16    10.8422     0.0711     0.1404     0.1910    10.9119     0.6787   305.6000    10.6063    -0.0024
  957   19.120   3740.24    12.6038     0.0690     0.0695     0.1912    12.6408     0.5678   305.9200    12.3348    -0.0084
  958   19.140   3741.33    13.5960     0.0712     0.0438     0.1914    13.6166     0.5309   306.2400    13.3104    -0.0107
  959   19.160   3742.41    13.5713     0.0808     0.0263     0.1916    13.5866     0.5905   306.5600    13.2801    -0.0117
  960   19.180   3743.46    12.9201     0.0931     0.0331     0.1918    12.9299     0.7039   306.8800    12.6230    -0.0134
  961   19.200   3744.47    11.8712     0.1118     0.0431     0.1920    11.8894     0.9067   307.2000    11.5822    -0.0128
  962   19.220   3745.53    10.3423     0.1459     0.0507     0.1922    10.3614     1.3301   307.5200    10.0539    -0.0146
  963   19.240   3746.58     8.6701     0.1636     0.0821     0.1924     8.6998     1.7425   307.8400     8.3920    -0.0145
  964   19.260   3747.63     6.6212     0.1621     0.1123     0.1926     6.6629     2.1498   308.1600     6.3547    -0.0147
  965   19.280   3748.63     4.9792     0.1581     0.1444     0.1928     5.0347     2.8432   308.4800     4.7263    -0.0128
  966   19.300   3749.63     3.9796     0.1298     0.2224     0.1930     4.0650     3.0361   308.8000     3.7562     0.0028
  967   19.320   3750.68     3.2201     0.0926     0.2343     0.1932     3.3187     2.6593   309.1200     3.0095     0.0138
  968   19.340   3751.73     2.5098     0.0668     0.5566     0.1934     2.6550     2.4545   309.4400     2.3456     0.0655
  969   19.360   3752.73     2.3437     0.0607     0.8946     0.1936     2.6589     2.5846   309.7600     2.3491     0.2366
  970   19.380   3753.79     2.8430     0.0441     1.1047     0.1938     3.2723     1.7510   310.0800     2.9622     0.2823
  971   19.400   3754.87     5.6798     0.0433     1.0587     0.1940     6.1593     0.9806   310.4000     5.8489     0.1670
  972   19.420   3755.95    10.3478     0.0542     0.5540     0.1942    10.6657     0.6302   310.7200    10.3550     0.0557
  973   19.440   3756.98    12.7030     0.0946     0.0827     0.1944    12.7638     0.7602   311.0400    12.4528    -0.0039
  974   19.460   3758.01    12.3476     0.1411     0.0238     0.1946    12.3629     1.1182   311.3600    12.0515    -0.0131
  975   19.480   3759.05    10.9242     0.1465     0.0019     0.1948    10.9283     1.2779   311.6800    10.6166    -0.0174
  976   19.500   3760.10     8.6969     0.1524     0.0018     0.1950     8.6944     1.6208   312.0000     8.3824    -0.0240
  977   19.520   3761.16     6.3456     0.1516     0.0301     0.1952     6.3539     2.2222   312.3200     6.0416    -0.0291
  978   19.540   3762.18     5.1062     0.1417     0.2017     0.1954     5.1457     2.7136   312.6400     4.8331    -0.0210
  979   19.560   3763.21     5.2256     0.1235     0.2190     0.1956     5.3199     2.3915   312.9600     5.0069     0.0058
  980   19.580   3764.30     6.4147     0.1189     0.3514     0.1958     6.5352     1.9200   313.2800     6.2219     0.0144
  981   19.600   3765.39     7.6262     0.1229     0.3237     0.1960     7.7670     1.6736   313.6000     7.4534     0.0187
  982   19.620   3766.48     8.7895     0.1270     0.2320     0.1962     8.9022     1.4886   313.9200     8.5883     0.0085
  983   19.640   3767.55     9.6076     0.1421     0.1210     0.1964     9.6786     1.4933   314.2400     9.3644    -0.0029
  984   19.660   3768.60     9.5149     0.1376     0.0992     0.1966     9.5560     1.4316   314.5600     9.2415    -0.0107
  985   19.680   3769.66     9.0063     0.1367     0.1235     0.1968     9.0470     1.4822   314.8800     8.7321    -0.0114
  986   19.700   3770.76     8.1279     0.1456     0.2250     0.1970     8.2123     1.7350   315.2000     7.8971     0.0005
  987   19.720   3771.78     7.5684     0.1480     0.1696     0.1972     7.6398     1.8905   315.5200     7.3242    -0.0037
  988   19.740   3772.82     6.4130     0.1500     0.2595     0.1974     6.5162     2.1464   315.8400     6.2004     0.0079
  989   19.760   3773.87     5.3509     0.1332     0.0701     0.1976     5.4117     2.2783   316.1600     5.0955    -0.0106
  990   19.780   3774.91     5.0462     0.1104     0.0793     0.1978     5.0735     2.0688   316.4800     4.7570    -0.0279
  991   19.800   3775.93     4.2713     0.0923     0.1673     0.1980     4.3255     1.9714   316.8000     4.0087    -0.0168
  992   19.820   3776.92     3.7077     0.0969     0.2378     0.1982     3.7980     2.5110   317.1200     3.4809     0.0049
  993   19.840   3777.95     3.2398     0.1019     0.3119     0.1984     3.3588     2.9684   317.4400     3.0413     0.0281
  994   19.860   3779.39     3.0994     0.1048     0.6587     0.1986     3.3312     3.3425   317.7600     3.0135     0.1170
  995   19.880   3805.59     3.1556     0.0998     0.8313     0.1988     3.4797     3.2336   318.0800     3.1616     0.1792
  996   19.900   3835.07     3.2334     0.0899     0.9540     0.1990     3.6300     2.9106   318.4000     3.3116     0.2248
  997   19.920   3838.11     3.4028     0.0863     1.0842     0.1992     3.8217     2.6271   318.7200     3.5030     0.2278
  998   19.940   3839.14     3.4878     0.0884     1.2774     0.1994     3.9896     2.5403   319.0400     3.6706     0.2712
  999   19.960   3840.12     3.4227     0.0951     1.4396     0.1996     4.0142     2.8466   319.3600     3.6948     0.3271
 1000   19.980   3841.17     3.4635     0.1028     1.6059     0.1998     4.1040     2.9977   319.6800     3.7843     0.3501
 1001   20.000   3842.17     3.8389     0.1080     1.6411     0.2000     4.5230     2.8658   320.0000     4.2030     0.3400
 1002   20.020   3843.22     3.9232     0.1092     1.8127     0.2002     4.6598     2.8077   320.3200     4.3395     0.3580
 1003   20.040   3844.30     3.9161     0.1184     1.6543     0.2004     4.6226     3.0306   320.6400     4.3020     0.3445
 1004   20.060   3845.33     3.8582     0.1228     1.7841     0.2006     4.6119     3.1377   320.9600     4.2909     0.3715
 1005   20.080   3846.31     3.7851     0.1245     1.7974     0.2008     4.5304     3.2561   321.2800     4.2091     0.3739
 1006   20.100   3847.35     3.8209     0.1244     1.7645     0.2010     4.5756     3.3035   321.6000     4.2540     0.3752
 1007   20.120   3848.41     4.0590     0.1196     1.7530     0.2012     4.7740     3.0064   321.9200     4.4520     0.3371
 1008   20.140   3849.47     3.9853     0.1162     1.7888     0.2014     4.7364     2.8754   322.2400     4.4141     0.3595
 1009   20.160   3850.48     3.8693     0.1173     1.7689     0.2016     4.6140     2.9818   322.5600     4.2914     0.3662
 1010   20.180   3851.49     3.7391     0.1117     1.7620     0.2018     4.4757     2.9579   322.8800     4.1528     0.3738
 1011   20.200   3852.53     3.5996     0.1061     1.7641     0.2020     4.3423     2.8953   323.2000     4.0191     0.3897
 1012   20.220   3853.59     3.4786     0.0979     1.7788     0.2022     4.2298     2.7490   323.5200     3.9062     0.4061
 1013   20.240   3854.60     3.3329     0.0943     1.7690     0.2024     4.0684     2.7659   323.8400     3.7446     0.4137
 1014   20.260   3855.62     3.1983     0.0881     1.7669     0.2026     3.9581     2.6820   324.1600     3.6340     0.4421
 1015   20.280   3856.66     3.1949     0.0866     1.7318     0.2028     3.9231     2.7097   324.4800     3.5986     0.4254
 1016   20.300   3857.68     3.1519     0.0864     1.6758     0.2030     3.8687     2.7308   324.8000     3.5439     0.4243
 1017   20.320   3858.73     3.1629     0.0813     1.6565     0.2032     3.8476     2.5713   325.1200     3.5225     0.4051
 1018   20.340   3859.72     3.0534     0.0788     1.6580     0.2034     3.7749     2.5229   325.4400     3.4494     0.4390
 1019   20.360   3860.75     3.0470     0.0773     1.6717     0.2036     3.7384     2.5295   325.7600     3.4126     0.4227
 1020   20.380   3861.75     3.0112     0.0740     1.6397     0.2038     3.7054     2.4523   326.0800     3.3793     0.4288
 1021   20.400   3862.80     3.0187     0.0760     1.7375     0.2040     3.7276     2.4977   326.4000     3.4012     0.4364
 1022   20.420   3863.83     2.9534     0.0790     1.7196     0.2042     3.6760     2.6710   326.7200     3.3493     0.4527
 1023   20.440   3864.83     2.9196     0.0772     1.6264     0.2044     3.6241     2.6252   327.0400     3.2971     0.4467
 1024   20.460   3865.85     2.8592     0.0734     1.5953     0.2046     3.5314     2.5285   327.3600     3.2041     0.4357
 1025   20.480   3866.84     2.7895     0.0756     1.5644     0.2048     3.4472     2.6982   327.6800     3.1195     0.4363
 1026   20.500   3867.90     2.8613     0.0773     1.6695     0.2050     3.5462     2.7375   328.0000     3.2182     0.4430
 1027   20.520   3868.95     2.8621     0.0775     1.7491     0.2052     3.5909     2.7026   328.3200     3.2625     0.4689
 1028   20.540   3869.95     2.8878     0.0726     1.7366     0.2054     3.6208     2.5308   328.6400     3.2922     0.4677
 1029   20.560   3870.95     2.9490     0.0712     1.7721     0.2056     3.6848     2.4311   328.9600     3.3559     0.4608
 1030   20.580   3871.98     2.9510     0.0689     1.7899     0.2058     3.7000     2.3253   329.2800     3.3708     0.4680
 1031   20.600   3873.02     2.8660     0.0704     1.7933     0.2060     3.6120     2.4295   329.6000     3.2824     0.4783
 1032   20.620   3874.05     2.7737     0.0693     1.7995     0.2062     3.5398     2.4565   329.9200     3.2099     0.5040
 1033   20.640   3875.05     2.7197     0.0689     1.7131     0.2064     3.4431     2.5303   330.2400     3.1128     0.4870
 1034   20.660   3876.05     2.7178     0.0645     1.7138     0.2066     3.4385     2.3709   330.5600     3.1079     0.4856
 1035   20.680   3877.09     2.7216     0.0633     1.6792     0.2068     3.4342     2.3534   330.8800     3.1033     0.4801
 1036   20.700   3878.15     2.7787     0.0712     1.6313     0.2070     3.4860     2.5671   331.2000     3.1548     0.4682
 1037   20.720   3879.15     2.8280     0.0727     1.5296     0.2072     3.4950     2.5972   331.5200     3.1634     0.4365
 1038   20.740   3880.17     2.7305     0.0777     1.4908     0.2074     3.3586     2.7746   331.8400     3.0268     0.4256
 1039   20.760   3881.19     2.6311     0.0775     1.3409     0.2076     3.2170     2.9313   332.1600     2.8849     0.4117
 1040   20.780   3882.19     2.6159     0.0773     1.2934     0.2078     3.1540     2.9450   332.4800     2.8215     0.3804
 1041   20.800   3883.24     2.4352     0.0757     1.3935     0.2080     3.0083     2.9628   332.8000     2.6755     0.4324
 1042   20.820   3884.26     2.2934     0.0740     1.3692     0.2082     2.8691     3.2173   333.1200     2.5360     0.4585
 1043   20.840   3885.29     2.1596     0.0670     1.4166     0.2084     2.7581     2.9850   333.4400     2.4247     0.5018
 1044   20.860   3886.30     2.0757     0.0603     1.4159     0.2086     2.6700     2.8693   333.7600     2.3362     0.5164
 1045   20.880   3887.35     2.0247     0.0550     1.4416     0.2088     2.6284     2.6889   334.0800     2.2943     0.5355
 1046   20.900   3888.32     2.0193     0.0511     1.4797     0.2090     2.6334     2.5273   334.4000     2.2990     0.5451
 1047   20.920   3889.32     1.9993     0.0466     1.5268     0.2092     2.6360     2.3282   334.7200     2.3013     0.5679
 1048   20.940   3890.40     2.1374     0.0454     1.5781     0.2094     2.7905     2.2087   335.0400     2.4555     0.5481
 1049   20.960   3891.40     2.3023     0.0492     1.5707     0.2096     2.9698     2.2175   335.3600     2.6344     0.5241
 1050   20.980   3892.45     2.4818     0.0559     1.5351     0.2098     3.1270     2.2993   335.6800     2.7913     0.4751
 1051   21.000   3893.45     2.5257     0.0624     1.4545     0.2100     3.1540     2.4949   336.0000     2.8180     0.4564
 1052   21.020   3894.51     2.5888     0.0629     1.2894     0.2102     3.1548     2.4481   336.3200     2.8185     0.4035
 1053   21.040   3895.53     2.5573     0.0631     1.1863     0.2104     3.0651     2.4232   336.6400     2.7285     0.3660
 1054   21.060   3896.51     2.4301     0.0638     1.2093     0.2106     2.9250     2.5616   336.9600     2.5880     0.3739
 1055   21.080   3897.56     2.2383     0.0633     1.3137     0.2108     2.7840     2.7883   337.2800     2.4467     0.4450
 1056   21.100   3898.59     2.0830     0.0587     1.3750     0.2110     2.6521     2.7410   337.6000     2.3145     0.4944
 1057   21.120   3899.57     2.0000     0.0529     1.3982     0.2112     2.5842     2.6344   337.9200     2.2462     0.5251
 1058   21.140   3900.60     2.0143     0.0479     1.4318     0.2114     2.6110     2.3894   338.2400     2.2727     0.5320
 1059   21.160   3901.65     2.0141     0.0466     1.4417     0.2116     2.6204     2.3045   338.5600     2.2819     0.5399
 1060   21.180   3902.67     2.0477     0.0462     1.4085     0.2118     2.6437     2.2596   338.8800     2.3048     0.5238
 1061   21.200   3903.67     1.9876     0.0446     1.2122     0.2120     2.5264     2.2126   339.2000     2.1872     0.4895
 1062   21.220   3904.72     1.9576     0.0442     1.2987     0.2122     2.4892     2.2408   339.5200     2.1497     0.4901
 1063   21.240   3905.75     1.9322     0.0467     1.3288     0.2124     2.4865     2.4082   339.8400     2.1466     0.5159
 1064   21.260   3906.77     1.9526     0.0455     1.3574     0.2126     2.5196     2.3380   340.1600     2.1795     0.5220
 1065   21.280   3907.78     2.0276     0.0430     1.3746     0.2128     2.6051     2.1657   340.4800     2.2646     0.5132
 1066   21.300   3908.81     2.1234     0.0431     1.3308     0.2130     2.6930     2.0712   340.8000     2.3522     0.4860
 1067   21.320   3909.84     2.1169     0.0452     1.2445     0.2132     2.6532     2.1124   341.1200     2.3121     0.4600
 1068   21.340   3910.86     2.0523     0.0462     1.2606     0.2134     2.5725     2.2187   341.4400     2.2310     0.4595
 1069   21.360   3911.86     1.9738     0.0464     1.4016     0.2136     2.5420     2.3122   341.7600     2.2003     0.5178
 1070   21.380   3912.90     2.0046     0.0475     1.4141     0.2138     2.5978     2.4067   342.0800     2.2558     0.5314
 1071   21.400   3913.94     2.0737     0.0431     1.3803     0.2140     2.6551     2.1094   342.4000     2.3127     0.5060
 1072   21.420   3914.95     2.1017     0.0442     1.4152     0.2142     2.6911     2.1190   342.7200     2.3484     0.5064
 1073   21.440   3915.96     2.1212     0.0498     1.4384     0.2144     2.7316     2.3719   343.0400     2.3885     0.5188
 1074   21.460   3917.01     2.2820     0.0562     1.4391     0.2146     2.8873     2.5066   343.3600     2.5440     0.4822
 1075   21.480   3917.98     2.3176     0.0596     1.3580     0.2148     2.9040     2.5683   343.6800     2.5603     0.4614
 1076   21.500   3919.03     2.2637     0.0604     1.2192     0.2150     2.8002     2.6265   344.0000     2.4562     0.4325
 1077   21.520   3920.07     2.1812     0.0581     1.2220     0.2152     2.6897     2.6067   344.3200     2.3454     0.4246
 1078   21.540   3921.05     2.0478     0.0577     1.2602     0.2154     2.5679     2.7322   344.6400     2.2232     0.4602
 1079   21.560   3922.09     1.9658     0.0569     1.3222     0.2156     2.5134     2.8616   344.9600     2.1684     0.5018
 1080   21.580   3923.12     1.9453     0.0500     1.3818     0.2158     2.5214     2.5512   345.2800     2.1761     0.5311
 1081   21.600   3924.13     1.9183     0.0465     1.3884     0.2160     2.5025     2.4190   345.6000     2.1569     0.5448
 1082   21.620   3925.18     1.9943     0.0449     1.4114     0.2162     2.5786     2.2858   345.9200     2.2327     0.5263
 1083   21.640   3926.18     2.0080     0.0436     1.4264     0.2164     2.6024     2.1757   346.2400     2.2561     0.5313
 1084   21.660   3927.21     1.9428     0.0445     1.4131     0.2166     2.5396     2.2350   346.5600     2.1931     0.5491
 1085   21.680   3928.25     1.9779     0.0454     1.3788     0.2168     2.5608     2.2942   346.8800     2.2140     0.5291
 1086   21.700   3929.28     1.9422     0.0463     1.3572     0.2170     2.5161     2.3518   347.2000     2.1689     0.5300
 1087   21.720   3930.31     1.8968     0.0478     1.4178     0.2172     2.4869     2.4254   347.5200     2.1394     0.5553
 1088   21.740   3931.36     1.9887     0.0497     1.3824     0.2174     2.5915     2.4904   347.8400     2.2437     0.5428
 1089   21.760   3933.79     1.9862     0.0500     1.2920     0.2176     2.5420     2.4893   348.1600     2.1938     0.5030
 1090   21.780   3936.16     1.9517     0.0494     1.2016     0.2178     2.4695     2.4848   348.4800     2.1210     0.4776
 1091   21.800   3938.07     1.9182     0.0513     1.2144     0.2180     2.4203     2.6357   348.8000     2.0715     0.4718
 1092   21.820   3940.63     1.9106     0.0533     1.2959     0.2182     2.4416     2.7867   349.1200     2.0925     0.4994
 1093   21.840   3945.84     1.9246     0.0506     1.3874     0.2184     2.4940     2.6557   349.4400     2.1446     0.5294
 1094   21.860   3950.73     1.9371     0.0482     1.4635     0.2186     2.5438     2.4961   349.7600     2.1941     0.5588
 1095   21.880   3953.28     1.9310     0.0520     1.4741     0.2188     2.5436     2.6962   350.0800     2.1935     0.5652
 1096   21.900   3974.60     1.9582     0.0503     1.5191     0.2190     2.5897     2.6051   350.4000     2.2393     0.5734
 1097   21.920   3995.92     1.9854     0.0535     1.5641     0.2192     2.6358     2.7737   350.7200     2.2851     0.5816
 1098   21.940   4008.58     2.0586     0.0587     1.5895     0.2194     2.7300     2.9504   351.0400     2.3790     0.5798
 1099   21.960   4009.63     2.1967     0.0599     1.3048     0.2196     2.7309     2.8343   351.3600     2.3795     0.4421
 1100   21.980   4010.70     2.6132     0.0646     1.5734     0.2198     3.2625     2.5089   351.6800     2.9108     0.4560
 1101   22.000   4011.72     3.0635     0.0682     1.7188     0.2200     3.7518     2.3708   352.0000     3.3998     0.4173
 1102   22.020   4012.73     3.2506     0.0742     1.8713     0.2202     4.0284     2.3256   352.3200     3.6761     0.4439
 1103   22.040   4013.73     3.3546     0.0761     1.9400     0.2204     4.1722     2.2753   352.6400     3.8195     0.4519
 1104   22.060   4014.77     3.3356     0.0809     1.9056     0.2206     4.1373     2.4249   352.9600     3.7843     0.4461
 1105   22.080   4015.82     3.3437     0.0851     1.9355     0.2208     4.1581     2.5377   353.2800     3.8048     0.4516
 1106   22.100   4016.85     3.4150     0.0870     1.8857     0.2210     4.2094     2.5800   353.6000     3.8558     0.4333
 1107   22.120   4017.87     3.3832     0.0915     1.8941     0.2212     4.1793     2.6667   353.9200     3.8254     0.4377
 1108   22.140   4018.89     3.2588     0.0873     1.7632     0.2214     4.0274     2.6704   354.2400     3.6731     0.4379
 1109   22.160   4019.92     3.2173     0.0816     1.7095     0.2216     3.9436     2.5193   354.5600     3.5891     0.4201
 1110   22.180   4020.98     3.1507     0.0934     1.7448     0.2218     3.8707     2.9259   354.8800     3.5159     0.4246
 1111   22.200   4021.99     3.1318     0.1028     1.7749     0.2220     3.8680     3.2943   355.2000     3.5128     0.4358
 1112   22.220   4023.02     3.1413     0.1023     1.9099     0.2222     3.9308     3.3000   355.5200     3.5753     0.4636
 1113   22.240   4024.09     3.4673     0.0981     1.7767     0.2224     4.2493     2.9545   355.8400     3.8935     0.4213
 1114   22.260   4025.12     3.7104     0.0914     1.0355     0.2226     4.3655     2.4685   356.1600     4.0093     0.3334
 1115   22.280   4026.14     3.2663     0.1077     1.0604     0.2228     3.6937     3.0170   356.4800     3.3373     0.2384
 1116   22.300   4027.17     3.1366     0.1383     1.0587     0.2230     3.5415     4.0385   356.8000     3.1847     0.2327
 1117   22.320   4028.14     3.6255     0.1599     1.2614     0.2232     4.1281     4.6452   357.1200     3.7710     0.2582
 1118   22.340   4029.23     4.3904     0.1413     1.1310     0.2234     4.9383     3.4191   357.4400     4.5808     0.2363
 1119   22.360   4030.34     4.6263     0.1338     0.2634     0.2236     4.8253     2.8819   357.7600     4.4675     0.0558
 1120   22.380   4032.44     4.4672     0.1613     0.3760     0.2238     4.6209     3.5699   358.0800     4.2628     0.0333
 1121   22.400   4039.34     4.6436     0.1903     0.4048     0.2240     4.8094     4.2911   358.4000     4.4510     0.0381
 1122   22.420   4046.23     4.8200     0.1534     0.4615     0.2242     4.9979     3.4596   358.7200     4.6392     0.0429
 1123   22.440   4048.48     4.7741     0.1504     0.3698     0.2244     4.9714     3.0672   359.0400     4.6123     0.0527
 1124   22.460   4049.54     4.3003     0.1466     0.2910     0.2246     4.4080     3.3474   359.3600     4.0487     0.0079
 1125   22.480   4050.58     3.8574     0.1364     0.5306     0.2248     4.0318     3.4804   359.6800     3.6721     0.0520
 1126   22.500   4051.61     3.5740     0.1313     0.8878     0.2250     3.8875     3.6550   360.0000     3.5275     0.1478
 1127   22.520   4052.63     4.0093     0.1157     1.1582     0.2252     4.4336     3.0960   360.3200     4.0733     0.1927
 1128   22.540   4055.78     3.6281     0.1227     1.0261     0.2254     4.0948     3.6951   360.6400     3.7341     0.2437
 1129   22.560   4056.85     5.1612     0.1300     1.1630     0.2256     5.6360     2.5739   360.9600     5.2751     0.1722
 1130   22.580   4057.94     8.2670     0.1496     0.7244     0.2258     8.7097     1.9572   361.2800     8.3484     0.1033
 1131   22.600   4059.03    10.3595     0.1566     0.1116     0.2260    10.4561     1.5385   361.6000    10.0945     0.0006
 1132   22.620   4060.10    10.4780     0.1664     0.0044     0.2262    10.4891     1.5730   361.9200    10.1272    -0.0197
 1133   22.640   4062.21     8.5406     0.1655     0.0256     0.2264     8.5598     1.9066   362.2400     8.1975    -0.0220
 1134   22.660   4063.35     9.4983     0.1734     0.0292     0.2266     9.5052     1.8068   362.5600     9.1426    -0.0230
 1135   22.680   4064.42     8.6724     0.1968     0.0505     0.2268     8.6894     2.2009   362.8800     8.3266    -0.0223
 1136   22.700   4065.43     7.9740     0.1823     0.1369     0.2270     8.0113     2.2760   363.2000     7.6481    -0.0180
 1137   22.720   4066.47     7.7351     0.1586     0.4104     0.2272     7.8634     2.0384   363.5200     7.4999     0.0104
 1138   22.740   4067.55     7.5438     0.1632     0.4737     0.2274     7.7351     2.1716   363.8400     7.3712     0.0309
 1139   22.760   4068.65     7.7943     0.1495     0.5962     0.2276     7.9994     1.9355   364.1600     7.6352     0.0341
 1140   22.780   4069.76     8.5853     0.1458     1.3386     0.2278     9.1451     1.7548   364.4800     8.7806     0.1261
 1141   22.800   4070.87    11.0152     0.1613     0.9486     0.2280    11.5258     1.5543   364.8000    11.1610     0.0899
 1142   22.820   4071.96    13.9622     0.1644     0.0711     0.2282    14.1846     1.2155   365.1200    13.8195     0.0221
 1143   22.840   4073.95    14.2647     0.1856    -0.0937     0.2284    14.2335     1.3802   365.4400    13.8680    -0.0219
 1144   22.860   4075.08    14.5059     0.1993    -0.1442     0.2286    14.4474     1.3457   365.7600    14.0817    -0.0261
 1145   22.880   4076.16    12.9019     0.2458    -0.1406     0.2288    12.8376     1.8502   366.0800    12.4715    -0.0306
 1146   22.900   4077.24    11.8342     0.3044    -0.0688     0.2290    11.7971     2.5448   366.4000    11.4307    -0.0277
 1147   22.920   4078.25    11.1730     0.2959    -0.0075     0.2292    11.1605     2.6202   366.7200    10.7937    -0.0240
 1148   22.940   4079.30    10.1071     0.2675     0.2310     0.2294    10.1634     2.5919   367.0400     9.7963    -0.0096
 1149   22.960   4080.39     7.8512     0.2136     0.4054     0.2296     7.9962     2.6090   367.3600     7.6288     0.0156
 1150   22.980   4081.45     6.6631     0.1889     0.7405     0.2298     6.9022     2.8069   367.6800     6.5345     0.0521
 1151   23.000   4082.54     7.1995     0.1937     1.4717     0.2300     7.7146     2.7517   368.0000     7.3466     0.1348
 1152   23.020   4083.66     8.9286     0.2000     1.5278     0.2302     9.6460     2.3667   368.3200     9.2776     0.1593
 1153   23.040   4084.76    11.2257     0.2016     0.4604     0.2304    11.5400     1.8534   368.6400    11.1713     0.0465
 1154   23.060   4085.80    12.0549     0.2023    -0.0206     0.2306    12.0942     1.6868   368.9600    11.7252    -0.0116
 1155   23.080   4086.89    12.8864     0.2400    -0.0268     0.2308    12.8703     1.8691   369.2800    12.5011    -0.0215
 1156   23.100   4087.99    12.8654     0.2689     0.0269     0.2310    12.8777     2.0850   369.6000    12.5081    -0.0161
 1157   23.120   4089.03    12.2126     0.2795     0.0156     0.2312    12.2150     2.2816   369.9200    11.8451    -0.0190
 1158   23.140   4090.14    11.6549     0.2910    -0.0236     0.2314    11.6526     2.4931   370.2400    11.2823    -0.0210
 1159   23.160   4091.23    11.2420     0.2920     0.1211     0.2316    11.2548     2.6018   370.5600    10.8843    -0.0185
 1160   23.180   4092.35    11.1961     0.2862     0.5252     0.2318    11.3590     2.5551   370.8800    10.9881     0.0142
 1161   23.200   4093.42    11.1323     0.2956     0.7957     0.2320    11.4250     2.6443   371.2000    11.0538     0.0421
 1162   23.220   4094.54    12.3945     0.2921     0.6339     0.2322    12.7394     2.4536   371.5200    12.3679     0.0478
 1163   23.240   4095.64    15.2135     0.2692     0.4521     0.2324    15.4753     1.8765   371.8400    15.1035     0.0258
 1164   23.260   4096.77    19.3703     0.2415    -0.0585     0.2326    19.4052     1.3382   372.1600    19.0330    -0.0077
 1165   23.280   4097.78    23.5185     0.2173    -0.1471     0.2328    23.4610     0.9855   372.4800    23.0885    -0.0160
 1166   23.300   4098.87    27.4741     0.1929    -0.1284     0.2330    27.4193     0.7334   372.8000    27.0465    -0.0135
 1167   23.320   4099.89    30.7933     0.1752    -0.1484     0.2332    30.7346     0.5848   373.1200    30.3615    -0.0123
 1168   23.340   4100.95    33.0599     0.1809    -0.1400     0.2334    32.9977     0.5575   373.4400    32.6242    -0.0117
 1169   23.360   4102.01    35.8829     0.2017    -0.1104     0.2336    35.8321     0.5753   373.7600    35.4583    -0.0100
 1170   23.380   4103.06    38.3649     0.2276    -0.1071     0.2338    38.3235     0.6048   374.0800    37.9494    -0.0088
 1171   23.400   4104.12    40.0960     0.2520    -0.1289     0.2340    40.0445     0.6418   374.4000    39.6701    -0.0090
 1172   23.420   4105.15    40.9422     0.2769    -0.1464     0.2342    40.8822     0.6810   374.7200    40.5075    -0.0093
 1173   23.440   4106.25    41.4287     0.3013    -0.1361     0.2344    41.3705     0.7297   375.0400    40.9955    -0.0091
 1174   23.460   4107.31    41.3225     0.3154    -0.1327     0.2346    41.2667     0.7615   375.3600    40.8914    -0.0090
 1175   23.480   4108.30    40.9667               -0.1267     0.2348    40.9131              375.6800    40.5374    -0.0089
 1176   23.500   4114.52    40.5842                0.0146     0.2350    40.5691              376.0000    40.1931    -0.0067
 1177   23.520   4123.99    40.2222                0.1529     0.2352    40.2687              376.3200    39.8924    -0.0031
 1178   23.540   4127.41    40.0565                0.1377     0.2354    40.1193              376.6400    39.7427    -0.0022
 1179   23.560   4128.44    40.0700                0.1356     0.2356    40.1267              376.9600    39.7497    -0.0025
 1180   23.577   4129.69    40.5728                           0.2358    40.6401              377.2318    40.2629    -0.0019
 
 
