

 Program UNIPLOT                         version 05.36.02
 _______________
 (c) Fugro Netherlands Marine, Nootdorp, The Netherlands


 ASCII representation of data plotted on a graph.

 This ASCII file presents data interpolated to values per fixed depth interval.
 The data are corrected for the depth-offset differences between the various 
 transducers in the penetrometer.

 The records at the start of penetration may include no values or anomalous
 values where a depth offset implies incomplete penetration of a particular
 sensor into the ground.

 The records at the end of penetration may include no values for data channels
 where the transducer did not reach this depth.

 The reference level for test values is (1) the ground surface for onshore tests and (2) the seafloor for nearshore and offshore tests.

 UNICAS data file          : CPT-1036.000                            
 Output using command file : PlotASCII.cmd

 ASCII file created at : date          :15-Mar-2022
                         time          :17:33:29
 Project number                        :20024805                                                                                            
 Date of testing                       :15-Mar-2022                                                                                         
 Location                              :Hong Kong Offshore Wind Farm Project                                                                
 Test name                             :CPT-1036
 Penetrometer                          :F7.5CKE2HAW2/B/3342
 Serial no                             :1701-3342

 Table description:
 Column ID                             :Parameter name
 ___________________________________________________________________________________
 Rec                                   :Record ID, Record ID [-]
 Depth                                 :Depth, Depth [m]
 Time                                  :Time, Time [s]
 Cone                                  :Cone Resistance, Cone Resistance [MPa]
 Friction                              :Sleeve Friction, Sleeve Friction [MPa]
 Pore 2                                :Porewater Pressure, Porewater Pressure at Shoulder [MPa]
 HydroPress                            :Hydrostatic Pressure, Hydrostatic Pressure [MPa]
 qt                                    :Total Cone Resistance, Total Cone Resistance [MPa]
 Fric_ratio                            :Friction Ratio, Friction Ratio [%]
 SigmaVert                             :Vertical stress, Vertical stress [kPa] as specified in ground model
 Qnet                                  :Net Cone Resistance, Net Cone Resistance [MPa], unit weight as specified in ground model
 Bq                                    :Porewater Pressure Ratio, Porewater Pressure Ratio [-], unit weight as specified in ground model


 Data table:
  Rec    Depth      Time       Cone   Friction     Pore 2 HydroPress         qt Fric_ratio  SigmaVert       Qnet         Bq
   No        m         s        MPa        MPa        MPa        MPa        MPa          %        kPa        MPa          -
    1    0.000   2392.69     0.0000                           0.0000     0.0000                0.0000     0.0000           
    2    0.020   2393.68     0.0038                0.0002     0.0002     0.0039                0.3200     0.0036    -0.0152
    3    0.040   2394.62     0.0067                0.0004     0.0004     0.0069                0.6400     0.0063    -0.0006
    4    0.060   2395.58     0.0037     0.0011    -0.0002     0.0006     0.0037    36.6242     0.9600     0.0028    -0.2294
    5    0.080   2396.50     0.0046     0.0005    -0.0003     0.0008     0.0044    12.6428     1.2800     0.0032    -0.3628
    6    0.100   2397.53     0.0057     0.0009    -0.0003     0.0010     0.0056    17.3659     1.6000     0.0040    -0.3219
    7    0.120   2398.46     0.0099     0.0010     0.0003     0.0012     0.0099    10.8522     1.9200     0.0080    -0.1546
    8    0.140   2399.42     0.0109     0.0011     0.0003     0.0014     0.0111    10.8463     2.2400     0.0088    -0.1180
    9    0.160   2400.40     0.0100     0.0009    -0.0004     0.0016     0.0101     7.3589     2.5600     0.0075    -0.2555
   10    0.180   2401.31     0.0103     0.0013     0.0002     0.0018     0.0104    16.6307     2.8800     0.0075    -0.2621
   11    0.200   2402.27     0.0121     0.0015     0.0004     0.0020     0.0121    11.1653     3.2000     0.0089    -0.2246
   12    0.220   2403.25     0.0148     0.0016     0.0011     0.0022     0.0151    12.6294     3.5200     0.0116    -0.1225
   13    0.240   2404.23     0.0106     0.0015     0.0012     0.0024     0.0110    13.8527     3.8400     0.0072    -0.2007
   14    0.260   2405.19     0.0121     0.0012     0.0018     0.0026     0.0129     9.0687     4.1600     0.0087    -0.0935
   15    0.280   2406.15     0.0119     0.0018     0.0009     0.0028     0.0123    14.1227     4.4800     0.0079    -0.2120
   16    0.300   2407.06     0.0126     0.0013     0.0009     0.0030     0.0130    10.7905     4.8000     0.0082    -0.2482
   17    0.320   2408.03     0.0101     0.0016     0.0024     0.0032     0.0109    12.4561     5.1200     0.0058    -0.2314
   18    0.340   2408.99     0.0132     0.0017     0.0029     0.0034     0.0143    16.4575     5.4400     0.0089    -0.0698
   19    0.360   2409.95     0.0158     0.0012     0.0031     0.0036     0.0171     7.5334     5.7600     0.0113    -0.0447
   20    0.380   2410.93     0.0119     0.0015     0.0038     0.0038     0.0134    10.5972     6.0800     0.0074    -0.0262
   21    0.400   2411.90     0.0157     0.0016     0.0039     0.0040     0.0173    12.2098     6.4000     0.0109    -0.0234
   22    0.420   2412.88     0.0159     0.0015     0.0049     0.0042     0.0178     8.9604     6.7200     0.0111     0.0188
   23    0.440   2413.87     0.0156     0.0018     0.0061     0.0044     0.0180    10.9308     7.0400     0.0109     0.1292
   24    0.460   2414.77     0.0145     0.0013     0.0063     0.0046     0.0170    10.2875     7.3600     0.0097     0.1408
   25    0.480   2415.76     0.0140     0.0015     0.0065     0.0048     0.0165     9.7710     7.6800     0.0088     0.1161
   26    0.500   2416.71     0.0142     0.0014     0.0064     0.0050     0.0163     9.0763     8.0000     0.0083    -0.0124
   27    0.520   2417.64     0.0150     0.0013     0.0059     0.0052     0.0181     7.6088     8.3200     0.0098     0.2156
   28    0.540   2418.63     0.0113     0.0012     0.0074     0.0054     0.0142     9.0075     8.6400     0.0056     0.3037
   29    0.560   2419.63     0.0149     0.0014     0.0078     0.0056     0.0182     9.7866     8.9600     0.0092     0.2317
   30    0.580   2420.54     0.0157     0.0011     0.0074     0.0058     0.0188     7.0042     9.2800     0.0096     0.1763
   31    0.600   2421.51     0.0160     0.0013     0.0078     0.0060     0.0191     8.2838     9.6000     0.0095     0.1343
   32    0.620   2422.47     0.0205     0.0011     0.0100     0.0062     0.0245     5.4339     9.9200     0.0146     0.2266
   33    0.640   2424.19     0.0159     0.0011     0.0113     0.0064     0.0204     5.3421    10.2400     0.0101     0.4597
   34    0.660   2426.03     0.0155     0.0012     0.0064     0.0066     0.0187     5.7654    10.5600     0.0081     0.1489
   35    0.680   2427.03     0.0203     0.0012     0.0051     0.0068     0.0224     6.2087    10.8800     0.0115    -0.1554
   36    0.700   2427.99     0.0214     0.0015     0.0074     0.0070     0.0241     7.1193    11.2000     0.0129    -0.0535
   37    0.720   2428.95     0.0214     0.0015     0.0103     0.0072     0.0254     7.9688    11.5200     0.0139     0.1738
   38    0.740   2434.19     0.0244     0.0016     0.0110     0.0074     0.0290     6.6696    11.8400     0.0172     0.2167
   39    0.760   2450.22     0.0256     0.0018     0.0107     0.0076     0.0302     7.6318    12.1600     0.0180     0.1823
   40    0.780   2466.26     0.0268     0.0018     0.0111     0.0078     0.0313     7.6693    12.4800     0.0188     0.1479
   41    0.800   2469.42     0.0280     0.0017     0.0142     0.0080     0.0336     6.2364    12.8000     0.0208     0.2509
   42    0.820   2470.39     0.0272     0.0016     0.0148     0.0082     0.0334     5.8233    13.1200     0.0203     0.3333
   43    0.840   2471.35     0.0289     0.0014     0.0150     0.0084     0.0347     5.0129    13.4400     0.0213     0.2613
   44    0.860   2472.29     0.0285     0.0015     0.0162     0.0086     0.0353     5.2247    13.7600     0.0216     0.3535
   45    0.880   2473.25     0.0265     0.0014     0.0172     0.0088     0.0336     5.1454    14.0800     0.0195     0.4063
   46    0.900   2474.24     0.0308     0.0017     0.0171     0.0090     0.0381     6.0235    14.4000     0.0237     0.3583
   47    0.920   2475.20     0.0334     0.0016     0.0162     0.0092     0.0405     4.7839    14.7200     0.0257     0.3003
   48    0.940   2476.11     0.0324     0.0016     0.0153     0.0094     0.0388     4.8651    15.0400     0.0237     0.2445
   49    0.960   2477.08     0.0382     0.0017     0.0165     0.0096     0.0450     4.4429    15.3600     0.0296     0.2258
   50    0.980   2478.02     0.0370     0.0016     0.0156     0.0098     0.0438     4.8282    15.6800     0.0281     0.2321
   51    1.000   2478.98     0.0361     0.0016     0.0147     0.0100     0.0423     4.5958    16.0000     0.0263     0.1775
   52    1.020   2479.95     0.0363     0.0018     0.0152     0.0102     0.0426     5.4654    16.3200     0.0263     0.1825
   53    1.040   2480.93     0.0362     0.0019     0.0150     0.0104     0.0425     5.0523    16.6400     0.0259     0.1816
   54    1.060   2481.83     0.0360     0.0019     0.0148     0.0106     0.0423     5.4163    16.9600     0.0254     0.1763
   55    1.080   2482.83     0.0366     0.0018     0.0143     0.0108     0.0426     5.0622    17.2800     0.0253     0.1338
   56    1.100   2483.76     0.0386     0.0021     0.0177     0.0110     0.0456     5.4535    17.6000     0.0280     0.1998
   57    1.120   2484.70     0.0370     0.0019     0.0193     0.0112     0.0450     4.9863    17.9200     0.0270     0.2880
   58    1.140   2485.65     0.0357     0.0024     0.0167     0.0114     0.0434     6.5628    18.2400     0.0251     0.2705
   59    1.160   2486.63     0.0357     0.0016     0.0165     0.0116     0.0426     4.2935    18.5600     0.0240     0.1977
   60    1.180   2487.58     0.0374     0.0020     0.0178     0.0118     0.0446     5.4370    18.8800     0.0257     0.2034
   61    1.200   2488.52     0.0346     0.0024     0.0201     0.0120     0.0428     6.4293    19.2000     0.0236     0.3188
   62    1.220   2489.47     0.0379     0.0022     0.0213     0.0122     0.0466     6.2346    19.5200     0.0271     0.3153
   63    1.240   2490.43     0.0357     0.0020     0.0226     0.0124     0.0451     5.2343    19.8400     0.0253     0.3965
   64    1.260   2491.38     0.0364     0.0020     0.0236     0.0126     0.0462     5.7237    20.1600     0.0260     0.4150
   65    1.280   2492.33     0.0388     0.0016     0.0239     0.0128     0.0487     4.0493    20.4800     0.0282     0.3859
   66    1.300   2493.30     0.0392     0.0019     0.0243     0.0130     0.0496     4.8285    20.8000     0.0288     0.4072
   67    1.320   2494.26     0.0409     0.0019     0.0252     0.0132     0.0514     4.6469    21.1200     0.0303     0.3943
   68    1.340   2495.18     0.0416     0.0020     0.0233     0.0134     0.0518     4.8409    21.4400     0.0304     0.3565
   69    1.360   2496.17     0.0413     0.0018     0.0226     0.0136     0.0509     4.4274    21.7600     0.0291     0.3207
   70    1.380   2497.12     0.0428     0.0020     0.0230     0.0138     0.0521     4.7119    22.0800     0.0300     0.2802
   71    1.400   2498.07     0.0454     0.0017     0.0257     0.0140     0.0558     3.7599    22.4000     0.0334     0.3216
   72    1.420   2499.06     0.0425     0.0021     0.0279     0.0142     0.0540     5.2034    22.7200     0.0313     0.4240
   73    1.440   2500.02     0.0416     0.0019     0.0283     0.0144     0.0534     4.6606    23.0400     0.0304     0.4525
   74    1.460   2500.96     0.0425     0.0014     0.0292     0.0146     0.0547     3.4892    23.3600     0.0313     0.4644
   75    1.480   2501.96     0.0426     0.0017     0.0281     0.0148     0.0545     3.9052    23.6800     0.0308     0.4349
   76    1.500   2502.88     0.0466     0.0018     0.0282     0.0150     0.0585     4.0047    24.0000     0.0345     0.3903
   77    1.520   2503.86     0.0441     0.0017     0.0303     0.0152     0.0564     3.5609    24.3200     0.0321     0.4449
   78    1.540   2504.83     0.0449     0.0021     0.0302     0.0154     0.0577     4.8591    24.6400     0.0331     0.4586
   79    1.560   2505.77     0.0453     0.0019     0.0315     0.0156     0.0581     4.2236    24.9600     0.0332     0.4511
   80    1.580   2506.74     0.0466     0.0019     0.0323     0.0158     0.0602     4.2151    25.2800     0.0349     0.4732
   81    1.600   2507.71     0.0503     0.0019     0.0338     0.0160     0.0643     3.8730    25.6000     0.0387     0.4424
   82    1.620   2508.67     0.0567     0.0019     0.0335     0.0162     0.0707     3.6665    25.9200     0.0447     0.3809
   83    1.640   2509.63     0.0623     0.0017     0.0342     0.0164     0.0764     2.8477    26.2400     0.0502     0.3459
   84    1.660   2510.56     0.0682     0.0018     0.0342     0.0166     0.0828     2.7900    26.5600     0.0563     0.3228
   85    1.680   2511.54     0.0739     0.0023     0.0313     0.0168     0.0876     3.2059    26.8800     0.0608     0.2615
   86    1.700   2512.50     0.0780     0.0023     0.0320     0.0170     0.0910     3.0123    27.2000     0.0638     0.2206
   87    1.720   2513.46     0.0830     0.0026     0.0327     0.0172     0.0968     3.1484    27.5200     0.0693     0.2268
   88    1.740   2514.39     0.0859     0.0028     0.0349     0.0174     0.0999     3.3246    27.8400     0.0720     0.2197
   89    1.760   2515.38     0.0882     0.0030     0.0297     0.0176     0.1025     3.4410    28.1600     0.0743     0.2199
   90    1.780   2516.29     0.0888     0.0028     0.0283     0.0178     0.1005     3.1835    28.4800     0.0720     0.1390
   91    1.800   2517.27     0.0891     0.0028     0.0319     0.0180     0.1020     3.1522    28.8000     0.0732     0.1710
   92    1.820   2518.24     0.0897     0.0030     0.0351     0.0182     0.1041     3.3704    29.1200     0.0750     0.2146
   93    1.840   2519.23     0.0883     0.0028     0.0385     0.0184     0.1041     3.1807    29.4400     0.0747     0.2583
   94    1.860   2520.18     0.0865     0.0028     0.0377     0.0186     0.1032     3.2317    29.7600     0.0734     0.2876
   95    1.880   2521.13     0.0822     0.0026     0.0309     0.0188     0.0958     3.0502    30.0800     0.0657     0.2062
   96    1.900   2522.06     0.0811     0.0026     0.0298     0.0190     0.0934     3.1644    30.4000     0.0630     0.1634
   97    1.920   2523.03     0.0717     0.0024     0.0345     0.0192     0.0854     3.1934    30.7200     0.0547     0.2501
   98    1.940   2523.96     0.0680     0.0022     0.0388     0.0194     0.0837     3.2242    31.0400     0.0526     0.3408
   99    1.960   2524.96     0.0711     0.0025     0.0425     0.0196     0.0885     3.6098    31.3600     0.0571     0.3788
  100    1.980   2525.95     0.0769     0.0026     0.0461     0.0198     0.0957     3.4504    31.6800     0.0641     0.3912
  101    2.000   2526.87     0.0851     0.0021     0.0497     0.0200     0.1053     2.5793    32.0000     0.0733     0.3852
  102    2.020   2527.84     0.0917     0.0022     0.0526     0.0202     0.1135     2.4072    32.3200     0.0812     0.3905
  103    2.040   2528.78     0.0926     0.0027     0.0560     0.0204     0.1156     3.0359    32.6400     0.0830     0.4160
  104    2.060   2529.71     0.0968     0.0025     0.0585     0.0206     0.1211     2.5419    32.9600     0.0881     0.4215
  105    2.080   2530.68     0.1019     0.0026     0.0570     0.0208     0.1268     2.5486    33.2800     0.0936     0.4121
  106    2.100   2531.64     0.1097     0.0028     0.0495     0.0210     0.1315     2.6273    33.6000     0.0979     0.3149
  107    2.120   2532.63     0.1039     0.0027     0.0523     0.0212     0.1251     2.4872    33.9200     0.0912     0.3225
  108    2.140   2533.54     0.0945     0.0024     0.0550     0.0214     0.1170     2.4205    34.2400     0.0827     0.3894
  109    2.160   2534.54     0.0970     0.0023     0.0596     0.0216     0.1217     2.3395    34.5600     0.0871     0.4264
  110    2.180   2535.51     0.0996     0.0027     0.0624     0.0218     0.1255     2.7149    34.8800     0.0906     0.4385
  111    2.200   2536.47     0.1083     0.0028     0.0602     0.0220     0.1341     2.8262    35.2000     0.0989     0.3993
  112    2.220   2537.43     0.1057     0.0030     0.0570     0.0222     0.1302     2.8415    35.5200     0.0946     0.3800
  113    2.240   2538.38     0.1150     0.0031     0.0519     0.0224     0.1381     2.7713    35.8400     0.1022     0.3189
  114    2.260   2539.31     0.1187     0.0030     0.0519     0.0226     0.1404     2.4622    36.1600     0.1042     0.2780
  115    2.280   2540.30     0.1015     0.0034     0.0529     0.0228     0.1243     3.1429    36.4800     0.0878     0.3595
  116    2.300   2541.26     0.0934     0.0035     0.0559     0.0230     0.1164     3.6419    36.8000     0.0796     0.4000
  117    2.320   2542.24     0.0958     0.0029     0.0569     0.0232     0.1190     3.0246    37.1200     0.0819     0.3929
  118    2.340   2543.18     0.0998     0.0029     0.0615     0.0234     0.1250     3.0341    37.4400     0.0876     0.4171
  119    2.360   2544.13     0.1042     0.0029     0.0631     0.0236     0.1306     2.8727    37.7600     0.0929     0.4240
  120    2.380   2545.11     0.1108     0.0025     0.0684     0.0238     0.1387     2.2325    38.0800     0.1006     0.4216
  121    2.400   2546.07     0.1171     0.0026     0.0722     0.0240     0.1471     2.2569    38.4000     0.1087     0.4380
  122    2.420   2547.03     0.1206     0.0025     0.0735     0.0242     0.1514     2.1049    38.7200     0.1127     0.4360
  123    2.440   2547.99     0.1248     0.0028     0.0732     0.0244     0.1558     2.2367    39.0400     0.1168     0.4228
  124    2.460   2548.97     0.1314     0.0028     0.0693     0.0246     0.1608     2.1332    39.3600     0.1214     0.3739
  125    2.480   2549.93     0.1333     0.0030     0.0678     0.0248     0.1621     2.2068    39.6800     0.1224     0.3568
  126    2.500   2550.88     0.1321     0.0030     0.0678     0.0250     0.1606     2.2747    40.0000     0.1206     0.3554
  127    2.520   2551.86     0.1291     0.0027     0.0680     0.0252     0.1576     2.0885    40.3200     0.1172     0.3630
  128    2.540   2552.79     0.1236     0.0026     0.0706     0.0254     0.1528     2.0959    40.6400     0.1121     0.3934
  129    2.560   2553.76     0.1204     0.0029     0.0736     0.0256     0.1512     2.3935    40.9600     0.1103     0.4341
  130    2.580   2554.71     0.1120     0.0031     0.0751     0.0258     0.1432     2.6428    41.2800     0.1019     0.4744
  131    2.600   2555.68     0.1101     0.0033     0.0760     0.0260     0.1423     2.9757    41.6000     0.1007     0.5027
  132    2.620   2556.67     0.1102     0.0034     0.0773     0.0262     0.1427     3.1295    41.9200     0.1008     0.5091
  133    2.640   2557.57     0.1133     0.0032     0.0744     0.0264     0.1445     2.8676    42.2400     0.1023     0.4689
  134    2.660   2558.53     0.1142     0.0031     0.0772     0.0266     0.1461     2.7143    42.5600     0.1036     0.4773
  135    2.680   2564.61     0.1145     0.0030     0.0790     0.0268     0.1476     2.6378    42.8800     0.1047     0.4951
  136    2.700   2580.24     0.1163     0.0029     0.0800     0.0270     0.1498     2.5337    43.2000     0.1066     0.4941
  137    2.720   2595.67     0.1181     0.0031     0.0825     0.0272     0.1520     2.7062    43.5200     0.1085     0.4934
  138    2.740   2596.61     0.1191     0.0032     0.0857     0.0274     0.1551     2.6452    43.8400     0.1112     0.5237
  139    2.760   2597.56     0.1253     0.0028     0.0823     0.0276     0.1605     2.2005    44.1600     0.1163     0.4823
  140    2.780   2598.54     0.1365     0.0030     0.0799     0.0278     0.1705     2.3011    44.4800     0.1260     0.4229
  141    2.800   2599.49     0.1435     0.0033     0.0743     0.0280     0.1754     2.3156    44.8000     0.1306     0.3677
  142    2.820   2600.43     0.1446     0.0033     0.0703     0.0282     0.1746     2.1971    45.1200     0.1295     0.3336
  143    2.840   2601.39     0.1395     0.0032     0.0696     0.0284     0.1690     2.2860    45.4400     0.1236     0.3399
  144    2.860   2602.35     0.1369     0.0035     0.0684     0.0286     0.1657     2.5096    45.7600     0.1200     0.3341
  145    2.880   2603.31     0.1339     0.0032     0.0695     0.0288     0.1626     2.3655    46.0800     0.1165     0.3392
  146    2.900   2604.25     0.1305     0.0030     0.0745     0.0290     0.1612     2.2577    46.4000     0.1148     0.3841
  147    2.920   2605.28     0.1304     0.0030     0.0770     0.0292     0.1625     2.3316    46.7200     0.1158     0.4090
  148    2.940   2606.23     0.1329     0.0032     0.0783     0.0294     0.1658     2.5102    47.0400     0.1187     0.4106
  149    2.960   2607.19     0.1352     0.0031     0.0737     0.0296     0.1664     2.2855    47.3600     0.1191     0.3755
  150    2.980   2608.13     0.1334     0.0032     0.0713     0.0298     0.1639     2.3585    47.6800     0.1162     0.3668
  151    3.000   2609.09     0.1389     0.0034     0.0672     0.0300     0.1677     2.4205    48.0000     0.1197     0.3223
  152    3.020   2610.04     0.1386     0.0034     0.0675     0.0302     0.1667     2.4021    48.3200     0.1183     0.3087
  153    3.040   2611.02     0.1395     0.0031     0.0704     0.0304     0.1689     2.2625    48.6400     0.1203     0.3291
  154    3.060   2611.98     0.1421     0.0033     0.0689     0.0306     0.1712     2.3326    48.9600     0.1222     0.3153
  155    3.080   2612.92     0.1407     0.0036     0.0683     0.0308     0.1696     2.5472    49.2800     0.1203     0.3159
  156    3.100   2613.85     0.1393     0.0036     0.0678     0.0310     0.1678     2.5703    49.6000     0.1182     0.3124
  157    3.120   2614.81     0.1330     0.0035     0.0707     0.0312     0.1623     2.5503    49.9200     0.1124     0.3426
  158    3.140   2615.77     0.1315     0.0031     0.0657     0.0314     0.1605     2.3618    50.2400     0.1103     0.3407
  159    3.160   2616.74     0.1243     0.0031     0.0690     0.0316     0.1524     2.4536    50.5600     0.1019     0.3466
  160    3.180   2617.71     0.1268     0.0030     0.0694     0.0318     0.1556     2.4127    50.8800     0.1048     0.3529
  161    3.200   2618.66     0.1282     0.0033     0.0730     0.0320     0.1583     2.6519    51.2000     0.1071     0.3701
  162    3.220   2619.63     0.1271     0.0035     0.0763     0.0322     0.1588     2.7743    51.5200     0.1073     0.4042
  163    3.240   2620.61     0.1308     0.0036     0.0787     0.0324     0.1635     2.7202    51.8400     0.1117     0.4071
  164    3.260   2621.52     0.1316     0.0031     0.0796     0.0326     0.1652     2.3844    52.1600     0.1130     0.4188
  165    3.280   2622.51     0.1371     0.0037     0.0771     0.0328     0.1696     2.7547    52.4800     0.1171     0.3802
  166    3.300   2623.47     0.1453     0.0036     0.0797     0.0330     0.1784     2.4817    52.8000     0.1256     0.3647
  167    3.320   2624.44     0.1504     0.0038     0.0815     0.0332     0.1847     2.5243    53.1200     0.1315     0.3687
  168    3.340   2625.41     0.1549     0.0037     0.0768     0.0334     0.1877     2.3961    53.4400     0.1342     0.3318
  169    3.360   2626.36     0.1537     0.0037     0.0761     0.0336     0.1852     2.3918    53.7600     0.1315     0.3158
  170    3.380   2627.32     0.1493     0.0035     0.0815     0.0338     0.1824     2.2978    54.0800     0.1283     0.3516
  171    3.400   2628.28     0.1510     0.0033     0.0867     0.0340     0.1867     2.1881    54.4000     0.1323     0.3858
  172    3.420   2629.27     0.1480     0.0034     0.0903     0.0342     0.1857     2.2643    54.7200     0.1310     0.4234
  173    3.440   2630.24     0.1486     0.0031     0.0920     0.0344     0.1871     2.1006    55.0400     0.1320     0.4324
  174    3.460   2631.20     0.1458     0.0030     0.0908     0.0346     0.1845     2.0370    55.3600     0.1291     0.4452
  175    3.480   2632.11     0.1473     0.0031     0.0878     0.0348     0.1845     2.1335    55.6800     0.1288     0.4162
  176    3.500   2633.10     0.1467     0.0035     0.0901     0.0350     0.1841     2.3473    56.0000     0.1281     0.4209
  177    3.520   2634.08     0.1460     0.0028     0.0894     0.0352     0.1840     1.8983    56.3200     0.1276     0.4321
  178    3.540   2635.01     0.1488     0.0030     0.0873     0.0354     0.1860     2.0025    56.6400     0.1294     0.4110
  179    3.560   2635.98     0.1537     0.0029     0.0841     0.0356     0.1890     1.8837    56.9600     0.1320     0.3672
  180    3.580   2636.96     0.1567     0.0030     0.0885     0.0358     0.1931     1.9316    57.2800     0.1358     0.3745
  181    3.600   2637.91     0.1615     0.0034     0.0890     0.0360     0.1992     2.1294    57.6000     0.1416     0.3800
  182    3.620   2638.86     0.1680     0.0036     0.0848     0.0362     0.2041     2.2092    57.9200     0.1462     0.3409
  183    3.640   2639.83     0.1699     0.0037     0.0844     0.0364     0.2050     2.1644    58.2400     0.1467     0.3206
  184    3.660   2640.81     0.1764     0.0043     0.0882     0.0366     0.2126     2.4468    58.5600     0.1541     0.3224
  185    3.680   2641.77     0.1844     0.0042     0.0930     0.0368     0.2229     2.3214    58.8800     0.1640     0.3344
  186    3.700   2642.71     0.1913     0.0044     0.0952     0.0370     0.2313     2.3490    59.2000     0.1721     0.3390
  187    3.720   2643.68     0.2007     0.0050     0.0911     0.0372     0.2393     2.4928    59.5200     0.1798     0.3044
  188    3.740   2644.67     0.2042     0.0050     0.0909     0.0374     0.2427     2.4420    59.8400     0.1829     0.2978
  189    3.760   2645.63     0.2026     0.0055     0.0889     0.0376     0.2403     2.6668    60.1600     0.1801     0.2885
  190    3.780   2646.57     0.1998     0.0052     0.0874     0.0378     0.2367     2.6003    60.4800     0.1762     0.2839
  191    3.800   2647.55     0.1989     0.0051     0.0865     0.0380     0.2354     2.5609    60.8000     0.1746     0.2800
  192    3.820   2648.49     0.1883     0.0051     0.0877     0.0382     0.2247     2.6990    61.1200     0.1636     0.2968
  193    3.840   2649.45     0.1811     0.0055     0.0927     0.0384     0.2192     2.9974    61.4400     0.1577     0.3314
  194    3.860   2650.42     0.1770     0.0048     0.0945     0.0386     0.2168     2.7257    61.7600     0.1550     0.3616
  195    3.880   2651.40     0.1783     0.0045     0.0965     0.0388     0.2185     2.5656    62.0800     0.1564     0.3647
  196    3.900   2652.36     0.1813     0.0047     0.0989     0.0390     0.2224     2.6321    62.4000     0.1600     0.3682
  197    3.920   2653.33     0.1830     0.0047     0.0990     0.0392     0.2252     2.5779    62.7200     0.1624     0.3766
  198    3.940   2654.31     0.1923     0.0047     0.0971     0.0394     0.2335     2.4735    63.0400     0.1704     0.3443
  199    3.960   2655.22     0.2000     0.0046     0.0918     0.0396     0.2395     2.3460    63.3600     0.1761     0.3087
  200    3.980   2656.20     0.1985     0.0046     0.0858     0.0398     0.2353     2.3036    63.6800     0.1716     0.2778
  201    4.000   2657.17     0.2015     0.0044     0.0868     0.0400     0.2380     2.1746    64.0000     0.1740     0.2692
  202    4.020   2658.11     0.2028     0.0044     0.0841     0.0402     0.2387     2.1576    64.3200     0.1744     0.2602
  203    4.040   2659.06     0.1959     0.0047     0.0845     0.0404     0.2311     2.3648    64.6400     0.1665     0.2613
  204    4.060   2660.07     0.1915     0.0045     0.0843     0.0406     0.2269     2.3251    64.9600     0.1620     0.2709
  205    4.080   2661.01     0.1875     0.0045     0.0849     0.0408     0.2230     2.4036    65.2800     0.1577     0.2776
  206    4.100   2661.97     0.1883     0.0046     0.0868     0.0410     0.2244     2.4544    65.6000     0.1588     0.2840
  207    4.120   2662.92     0.1875     0.0045     0.0885     0.0412     0.2244     2.3881    65.9200     0.1585     0.2945
  208    4.140   2663.86     0.1881     0.0045     0.0907     0.0414     0.2260     2.3766    66.2400     0.1597     0.3047
  209    4.160   2664.84     0.1869     0.0044     0.0905     0.0416     0.2248     2.3695    66.5600     0.1582     0.3069
  210    4.180   2665.81     0.1832     0.0041     0.0942     0.0418     0.2226     2.2111    66.8800     0.1557     0.3338
  211    4.200   2666.75     0.1761     0.0037     0.0952     0.0420     0.2161     2.1028    67.2000     0.1489     0.3565
  212    4.220   2667.72     0.1800     0.0040     0.0946     0.0422     0.2196     2.2652    67.5200     0.1520     0.3424
  213    4.240   2668.69     0.1792     0.0042     0.0916     0.0424     0.2185     2.3129    67.8400     0.1507     0.3389
  214    4.260   2669.64     0.1790     0.0043     0.0892     0.0426     0.2168     2.3886    68.1600     0.1487     0.3197
  215    4.280   2670.59     0.1725     0.0047     0.0879     0.0428     0.2099     2.7124    68.4800     0.1414     0.3278
  216    4.300   2671.57     0.1764     0.0041     0.0810     0.0430     0.2112     2.3373    68.8000     0.1424     0.2801
  217    4.320   2672.48     0.1771     0.0047     0.0807     0.0432     0.2107     2.6053    69.1200     0.1416     0.2601
  218    4.340   2673.46     0.1754     0.0045     0.0847     0.0434     0.2103     2.5357    69.4400     0.1409     0.2825
  219    4.360   2674.42     0.1726     0.0041     0.0861     0.0436     0.2090     2.3583    69.7600     0.1392     0.3101
  220    4.380   2675.40     0.1698     0.0045     0.0855     0.0438     0.2050     2.6186    70.0800     0.1349     0.2960
  221    4.400   2676.38     0.1729     0.0045     0.0912     0.0440     0.2104     2.6485    70.4000     0.1400     0.3242
  222    4.420   2677.34     0.1760     0.0041     0.0957     0.0442     0.2156     2.2897    70.7200     0.1449     0.3462
  223    4.440   2678.28     0.1722     0.0034     0.0971     0.0444     0.2128     1.9746    71.0400     0.1418     0.3685
  224    4.460   2679.24     0.1740     0.0032     0.0980     0.0446     0.2146     1.8483    71.3600     0.1433     0.3640
  225    4.480   2680.21     0.1713     0.0033     0.1007     0.0448     0.2130     1.8855    71.6800     0.1413     0.3857
  226    4.500   2681.13     0.1749     0.0032     0.1037     0.0450     0.2185     1.8253    72.0000     0.1465     0.4006
  227    4.520   2682.12     0.1831     0.0039     0.0979     0.0452     0.2261     2.1360    72.3200     0.1538     0.3719
  228    4.540   2683.09     0.1869     0.0043     0.0779     0.0454     0.2217     2.2824    72.6400     0.1491     0.2521
  229    4.560   2684.04     0.1916     0.0046     0.0665     0.0456     0.2202     2.4287    72.9600     0.1472     0.1523
  230    4.580   2685.02     0.1911     0.0053     0.0663     0.0458     0.2197     2.7606    73.2800     0.1465     0.1525
  231    4.600   2685.98     0.1786     0.0053     0.0640     0.0460     0.2050     2.9149    73.6000     0.1314     0.1275
  232    4.620   2686.94     0.1595     0.0051     0.0728     0.0462     0.1888     3.0958    73.9200     0.1149     0.2052
  233    4.640   2697.28     0.1530     0.0057     0.0800     0.0464     0.1856     3.6395    74.2400     0.1113     0.2803
  234    4.660   2710.62     0.1493     0.0050     0.0871     0.0466     0.1848     3.1893    74.5600     0.1103     0.3459
  235    4.680   2719.93     0.1468     0.0044     0.0940     0.0468     0.1853     2.9797    74.8800     0.1105     0.4065
  236    4.700   2720.89     0.1507     0.0046     0.0973     0.0470     0.1914     3.1464    75.2000     0.1162     0.4304
  237    4.720   2721.84     0.1575     0.0043     0.0992     0.0472     0.1987     2.7525    75.5200     0.1232     0.4146
  238    4.740   2722.84     0.1579     0.0044     0.0998     0.0474     0.1999     2.7598    75.8400     0.1240     0.4242
  239    4.760   2723.80     0.1586     0.0037     0.1007     0.0476     0.2009     2.3170    76.1600     0.1247     0.4253
  240    4.780   2724.76     0.1561     0.0042     0.0968     0.0478     0.1970     2.6818    76.4800     0.1205     0.4120
  241    4.800   2725.70     0.1560     0.0045     0.0938     0.0480     0.1958     2.8964    76.8000     0.1190     0.3921
  242    4.820   2726.64     0.1574     0.0044     0.0935     0.0482     0.1967     2.7900    77.1200     0.1196     0.3786
  243    4.840   2727.59     0.1573     0.0051     0.0986     0.0484     0.1977     3.1620    77.4400     0.1203     0.3973
  244    4.860   2728.56     0.1583     0.0047     0.1037     0.0486     0.2014     3.0270    77.7600     0.1237     0.4363
  245    4.880   2729.54     0.1558     0.0051     0.1046     0.0488     0.1995     3.2236    78.0800     0.1214     0.4550
  246    4.900   2730.51     0.1533     0.0045     0.1073     0.0490     0.1981     2.8720    78.4000     0.1197     0.4813
  247    4.920   2731.47     0.1555     0.0048     0.1084     0.0492     0.2008     3.1089    78.7200     0.1221     0.4809
  248    4.940   2732.43     0.1530     0.0048     0.1112     0.0494     0.1992     3.0567    79.0400     0.1202     0.5048
  249    4.960   2733.39     0.1579     0.0048     0.1153     0.0496     0.2059     3.0881    79.3600     0.1266     0.5110
  250    4.980   2734.32     0.1590     0.0047     0.1173     0.0498     0.2080     2.9688    79.6800     0.1284     0.5216
  251    5.000   2735.30     0.1633     0.0048     0.1102     0.0500     0.2102     2.9336    80.0000     0.1302     0.4727
  252    5.020   2736.26     0.1609     0.0048     0.1109     0.0502     0.2070     2.9396    80.3200     0.1266     0.4701
  253    5.040   2737.24     0.1662     0.0052     0.1134     0.0504     0.2125     3.1442    80.6400     0.1318     0.4532
  254    5.060   2738.18     0.1684     0.0053     0.1163     0.0506     0.2172     3.1476    80.9600     0.1362     0.4810
  255    5.080   2739.11     0.1750     0.0054     0.1152     0.0508     0.2237     3.0996    81.2800     0.1424     0.4574
  256    5.100   2740.10     0.1744     0.0055     0.1153     0.0510     0.2225     3.1331    81.6000     0.1409     0.4506
  257    5.120   2741.04     0.1720     0.0056     0.1173     0.0512     0.2211     3.2350    81.9200     0.1392     0.4718
  258    5.140   2742.00     0.1682     0.0054     0.1201     0.0514     0.2179     3.1604    82.2400     0.1357     0.4944
  259    5.160   2742.99     0.1682     0.0058     0.1258     0.0516     0.2204     3.4516    82.5600     0.1378     0.5263
  260    5.180   2743.95     0.1633     0.0055     0.1266     0.0518     0.2166     3.3106    82.8800     0.1337     0.5622
  261    5.200   2744.90     0.1602     0.0055     0.1238     0.0520     0.2125     3.4668    83.2000     0.1293     0.5613
  262    5.220   2745.84     0.1579     0.0053     0.1238     0.0522     0.2102     3.3663    83.5200     0.1267     0.5716
  263    5.240   2746.81     0.1605     0.0054     0.1221     0.0524     0.2122     3.3952    83.8400     0.1284     0.5516
  264    5.260   2747.79     0.1675     0.0051     0.1224     0.0526     0.2190     3.1064    84.1600     0.1349     0.5191
  265    5.280   2748.75     0.1717     0.0056     0.1244     0.0528     0.2231     3.2758    84.4800     0.1386     0.5024
  266    5.300   2749.72     0.1663     0.0055     0.1235     0.0530     0.2186     3.2900    84.8000     0.1338     0.5338
  267    5.320   2750.68     0.1709     0.0055     0.1234     0.0532     0.2227     3.2192    85.1200     0.1376     0.5100
  268    5.340   2751.61     0.1698     0.0053     0.1182     0.0534     0.2199     3.1052    85.4400     0.1345     0.4895
  269    5.360   2752.59     0.1696     0.0059     0.1209     0.0536     0.2199     3.4657    85.7600     0.1341     0.4928
  270    5.380   2753.55     0.1612     0.0058     0.1221     0.0538     0.2126     3.5260    86.0800     0.1265     0.5425
  271    5.400   2754.54     0.1625     0.0053     0.1226     0.0540     0.2136     3.2388    86.4000     0.1272     0.5320
  272    5.420   2755.50     0.1630     0.0049     0.1252     0.0542     0.2152     3.0647    86.7200     0.1285     0.5460
  273    5.440   2756.50     0.1635     0.0051     0.1294     0.0544     0.2172     3.0919    87.0400     0.1302     0.5648
  274    5.460   2757.43     0.1651     0.0053     0.1303     0.0546     0.2199     3.1998    87.3600     0.1325     0.5718
  275    5.480   2758.37     0.1734     0.0054     0.1343     0.0548     0.2290     3.2075    87.6800     0.1413     0.5490
  276    5.500   2759.33     0.1765     0.0052     0.1374     0.0550     0.2339     2.9855    88.0000     0.1459     0.5590
  277    5.520   2760.30     0.1774     0.0047     0.1374     0.0552     0.2351     2.6573    88.3200     0.1468     0.5607
  278    5.540   2761.14     0.1754     0.0044     0.1360     0.0554     0.2328     2.4677    88.6400     0.1441     0.5628
  279    5.560   2762.05     0.1735     0.0045     0.1368     0.0556     0.2308     2.5375    88.9600     0.1418     0.5698
  280    5.580   2763.01     0.1760     0.0048     0.1376     0.0558     0.2336     2.7243    89.2800     0.1443     0.5645
  281    5.600   2763.97     0.1773     0.0049     0.1368     0.0560     0.2350     2.7592    89.6000     0.1454     0.5593
  282    5.620   2764.96     0.1760     0.0049     0.1337     0.0562     0.2329     2.7829    89.9200     0.1430     0.5545
  283    5.640   2765.93     0.1799     0.0051     0.1282     0.0564     0.2342     2.7838    90.2400     0.1440     0.5072
  284    5.660   2766.92     0.1838     0.0050     0.1283     0.0566     0.2374     2.7308    90.5600     0.1468     0.4838
  285    5.680   2767.88     0.1826     0.0049     0.1313     0.0568     0.2373     2.6992    90.8800     0.1465     0.5015
  286    5.700   2768.85     0.1819     0.0051     0.1346     0.0570     0.2377     2.8169    91.2000     0.1465     0.5187
  287    5.720   2769.80     0.1785     0.0056     0.1338     0.0572     0.2352     3.1536    91.5200     0.1437     0.5412
  288    5.740   2770.81     0.1796     0.0053     0.1318     0.0574     0.2361     2.9297    91.8400     0.1442     0.5339
  289    5.760   2771.79     0.1838     0.0055     0.1261     0.0576     0.2370     3.0642    92.1600     0.1449     0.4776
  290    5.780   2772.75     0.1805     0.0053     0.1296     0.0578     0.2339     2.9278    92.4800     0.1414     0.4895
  291    5.800   2773.59     0.1763     0.0052     0.1322     0.0580     0.2317     2.9662    92.8000     0.1389     0.5308
  292    5.820   2774.38     0.1737     0.0056     0.1343     0.0582     0.2297     3.1795    93.1200     0.1366     0.5505
  293    5.840   2775.19     0.1724     0.0053     0.1362     0.0584     0.2297     3.0634    93.4400     0.1362     0.5721
  294    5.860   2776.09     0.1651     0.0051     0.1381     0.0586     0.2228     3.0491    93.7600     0.1291     0.6113
  295    5.880   2777.08     0.1637     0.0052     0.1384     0.0588     0.2220     3.1802    94.0800     0.1279     0.6255
  296    5.900   2778.03     0.1688     0.0054     0.1370     0.0590     0.2265     3.1705    94.4000     0.1321     0.5932
  297    5.920   2779.05     0.1699     0.0054     0.1373     0.0592     0.2275     3.1683    94.7200     0.1328     0.5878
  298    5.940   2780.01     0.1742     0.0055     0.1398     0.0594     0.2327     3.1893    95.0400     0.1376     0.5807
  299    5.960   2780.98     0.1794     0.0056     0.1367     0.0596     0.2372     3.1269    95.3600     0.1418     0.5496
  300    5.980   2781.96     0.1773     0.0053     0.1364     0.0598     0.2348     2.9701    95.6800     0.1392     0.5547
  301    6.000   2782.95     0.1767     0.0054     0.1361     0.0600     0.2338     3.0519    96.0000     0.1378     0.5505
  302    6.020   2783.85     0.1736     0.0051     0.1369     0.0602     0.2308     2.9003    96.3200     0.1345     0.5652
  303    6.040   2784.85     0.1748     0.0057     0.1402     0.0604     0.2328     3.2547    96.6400     0.1362     0.5711
  304    6.060   2785.80     0.1744     0.0056     0.1427     0.0606     0.2341     3.2314    96.9600     0.1371     0.5937
  305    6.080   2786.76     0.1803     0.0053     0.1438     0.0608     0.2408     2.9723    97.2800     0.1436     0.5810
  306    6.100   2787.75     0.1804     0.0053     0.1387     0.0610     0.2396     2.9380    97.6000     0.1420     0.5644
  307    6.120   2788.72     0.1894     0.0051     0.1358     0.0612     0.2469     2.7416    97.9200     0.1490     0.5092
  308    6.140   2789.68     0.1853     0.0053     0.1369     0.0614     0.2427     2.8467    98.2400     0.1444     0.5204
  309    6.160   2790.64     0.1803     0.0056     0.1388     0.0616     0.2392     3.0837    98.5600     0.1406     0.5590
  310    6.180   2791.59     0.1838     0.0058     0.1373     0.0618     0.2415     3.1673    98.8800     0.1426     0.5300
  311    6.200   2792.56     0.1828     0.0056     0.1411     0.0620     0.2412     3.0785    99.2000     0.1420     0.5425
  312    6.220   2793.54     0.1857     0.0055     0.1405     0.0622     0.2451     3.0129    99.5200     0.1455     0.5445
  313    6.240   2794.53     0.1925     0.0058     0.1429     0.0624     0.2524     3.0706    99.8400     0.1525     0.5255
  314    6.260   2795.46     0.1936     0.0058     0.1411     0.0626     0.2527     3.0169   100.1600     0.1526     0.5132
  315    6.280   2796.41     0.1972     0.0058     0.1466     0.0628     0.2578     2.9331   100.4800     0.1574     0.5182
  316    6.300   2797.40     0.2026     0.0054     0.1517     0.0630     0.2657     2.6834   100.8000     0.1649     0.5294
  317    6.320   2798.35     0.2049     0.0059     0.1568     0.0632     0.2702     2.8735   101.1200     0.1691     0.5465
  318    6.340   2799.33     0.2120     0.0060     0.1597     0.0634     0.2791     2.8598   101.4400     0.1777     0.5427
  319    6.360   2800.29     0.2124     0.0064     0.1620     0.0636     0.2801     3.0365   101.7600     0.1784     0.5481
  320    6.380   2801.28     0.2148     0.0067     0.1563     0.0638     0.2817     3.1427   102.0800     0.1796     0.5313
  321    6.400   2802.24     0.2135     0.0067     0.1487     0.0640     0.2771     3.1340   102.4000     0.1747     0.5007
  322    6.420   2803.20     0.2103     0.0064     0.1463     0.0642     0.2720     3.0292   102.7200     0.1693     0.4882
  323    6.440   2804.20     0.2131     0.0066     0.1494     0.0644     0.2755     3.1459   103.0400     0.1725     0.4880
  324    6.460   2805.16     0.2167     0.0070     0.1521     0.0646     0.2801     3.2920   103.3600     0.1767     0.4881
  325    6.480   2806.07     0.2116     0.0073     0.1564     0.0648     0.2765     3.4382   103.6800     0.1728     0.5198
  326    6.500   2807.04     0.2167     0.0070     0.1614     0.0650     0.2840     3.2669   104.0000     0.1800     0.5298
  327    6.520   2808.05     0.2145     0.0066     0.1611     0.0652     0.2823     3.0140   104.3200     0.1780     0.5409
  328    6.540   2814.12     0.2127     0.0059     0.1597     0.0654     0.2799     2.7800   104.6400     0.1753     0.5405
  329    6.560   2830.05     0.2111     0.0059     0.1584     0.0656     0.2778     2.7702   104.9600     0.1728     0.5397
  330    6.580   2845.97     0.2095     0.0063     0.1572     0.0658     0.2757     3.0000   105.2800     0.1704     0.5388
  331    6.600   2852.81     0.2087     0.0069     0.1620     0.0660     0.2759     3.2644   105.6000     0.1703     0.5514
  332    6.620   2853.80     0.2094     0.0074     0.1659     0.0662     0.2783     3.5287   105.9200     0.1724     0.5678
  333    6.640   2854.76     0.2138     0.0072     0.1661     0.0664     0.2840     3.3832   106.2400     0.1777     0.5665
  334    6.660   2855.73     0.2202     0.0072     0.1625     0.0666     0.2890     3.2514   106.5600     0.1824     0.5326
  335    6.680   2866.69     0.2213     0.0071     0.1631     0.0668     0.2895     3.2245   106.8800     0.1827     0.5244
  336    6.700   2888.35     0.2225     0.0074     0.1645     0.0670     0.2914     3.3588   107.2000     0.1842     0.5265
  337    6.720   2910.01     0.2238     0.0078     0.1659     0.0672     0.2932     3.5519   107.5200     0.1857     0.5287
  338    6.740   2926.32     0.2253     0.0074     0.1694     0.0674     0.2957     3.2723   107.8400     0.1879     0.5338
  339    6.760   2926.96     0.2244     0.0073     0.1700     0.0676     0.2959     3.2348   108.1600     0.1877     0.5465
  340    6.780   2927.58     0.2202     0.0070     0.1667     0.0678     0.2904     3.1381   108.4800     0.1819     0.5456
  341    6.800   2928.20     0.2168     0.0070     0.1713     0.0680     0.2878     3.2133   108.8000     0.1790     0.5643
  342    6.820   2928.86     0.2110     0.0065     0.1797     0.0682     0.2851     3.0276   109.1200     0.1760     0.6149
  343    6.840   2929.49     0.2123     0.0068     0.1841     0.0684     0.2891     3.2427   109.4400     0.1797     0.6371
  344    6.860   2930.15     0.2079     0.0070     0.1835     0.0686     0.2857     3.3683   109.7600     0.1760     0.6632
  345    6.880   2930.80     0.2078     0.0068     0.1788     0.0688     0.2834     3.2603   110.0800     0.1733     0.6413
  346    6.900   2931.47     0.2036     0.0066     0.1770     0.0690     0.2782     3.2056   110.4000     0.1678     0.6469
  347    6.920   2932.13     0.2056     0.0065     0.1801     0.0692     0.2807     3.1509   110.7200     0.1699     0.6449
  348    6.940   2932.76     0.2232     0.0071     0.1772     0.0694     0.2991     3.2449   111.0400     0.1881     0.5914
  349    6.960   2933.39     0.2114     0.0065     0.1725     0.0696     0.2843     3.0397   111.3600     0.1729     0.6007
  350    6.980   2934.04     0.2091     0.0064     0.1754     0.0698     0.2825     3.0863   111.6800     0.1708     0.6139
  351    7.000   2953.98     0.2199     0.0069     0.1726     0.0700     0.2928     3.2574   112.0000     0.1808     0.5762
  352    7.020   2979.35     0.2322     0.0070     0.1698     0.0702     0.3040     3.3296   112.3200     0.1916     0.5274
  353    7.040   2992.64     0.2472     0.0073     0.1735     0.0704     0.3201     3.0100   112.6400     0.2074     0.4971
  354    7.060   2993.59     0.2494     0.0069     0.1642     0.0706     0.3201     2.7397   112.9600     0.2071     0.4718
  355    7.080   2994.61     0.2522     0.0064     0.1591     0.0708     0.3196     2.5400   113.2800     0.2063     0.4350
  356    7.100   2995.58     0.2393     0.0070     0.1627     0.0710     0.3075     2.8517   113.6000     0.1939     0.4712
  357    7.120   2996.54     0.2289     0.0069     0.1626     0.0712     0.2969     2.9591   113.9200     0.1830     0.4958
  358    7.140   2997.50     0.2270     0.0073     0.1642     0.0714     0.2959     3.1947   114.2400     0.1816     0.5104
  359    7.160   2998.44     0.2288     0.0064     0.1616     0.0716     0.2972     2.8131   114.5600     0.1827     0.5002
  360    7.180   2999.43     0.2253     0.0057     0.1615     0.0718     0.2928     2.5255   114.8800     0.1780     0.4996
  361    7.200   3000.42     0.2184     0.0056     0.1662     0.0720     0.2875     2.5417   115.2000     0.1723     0.5376
  362    7.220   3001.40     0.2249     0.0060     0.1607     0.0722     0.2936     2.6562   115.5200     0.1781     0.5131
  363    7.240   3002.36     0.2220     0.0059     0.1576     0.0724     0.2884     2.6539   115.8400     0.1726     0.4970
  364    7.260   3003.33     0.2253     0.0058     0.1552     0.0726     0.2911     2.5916   116.1600     0.1749     0.4804
  365    7.280   3004.27     0.2285     0.0058     0.1405     0.0728     0.2897     2.5239   116.4800     0.1732     0.4204
  366    7.300   3005.24     0.2167     0.0057     0.1347     0.0730     0.2747     2.5816   116.8000     0.1579     0.4125
  367    7.320   3006.24     0.2073     0.0053     0.1270     0.0732     0.2621     2.5196   117.1200     0.1450     0.3940
  368    7.340   3007.24     0.2015     0.0048     0.1187     0.0734     0.2523     2.3319   117.4400     0.1349     0.3523
  369    7.360   3008.20     0.1872     0.0045     0.1166     0.0736     0.2361     2.3657   117.7600     0.1183     0.3606
  370    7.380   3009.16     0.1733     0.0041     0.1153     0.0738     0.2225     2.3284   118.0800     0.1044     0.4152
  371    7.400   3010.12     0.1574     0.0041     0.1131     0.0740     0.2046     2.5707   118.4000     0.0862     0.4453
  372    7.420   3011.10     0.1484     0.0040     0.1152     0.0742     0.1965     2.7005   118.7200     0.0778     0.5184
  373    7.440   3012.08     0.1457     0.0037     0.1162     0.0744     0.1945     2.5362   119.0400     0.0754     0.5528
  374    7.460   3013.06     0.1364     0.0040     0.1126     0.0746     0.1838     2.8658   119.3600     0.0645     0.5955
  375    7.480   3014.02     0.1334     0.0038     0.1155     0.0748     0.1815     2.8206   119.6800     0.0618     0.6432
  376    7.500   3015.00     0.1271     0.0038     0.1138     0.0750     0.1760     2.9059   120.0000     0.0560     0.7397
  377    7.520   3016.01     0.1226     0.0034     0.1093     0.0752     0.1685     2.7828   120.3200     0.0482     0.7111
  378    7.540   3016.97     0.1211     0.0036     0.1054     0.0754     0.1666     2.9466   120.6400     0.0459     0.7172
  379    7.560   3017.91     0.1179     0.0033     0.1027     0.0756     0.1601     2.6854   120.9600     0.0391     0.6426
  380    7.580   3018.87     0.1075     0.0029     0.1117     0.0758     0.1534     2.6949   121.2800     0.0321     1.0411
  381    7.600   3019.84     0.1088     0.0028     0.1165     0.0760     0.1570     2.5670   121.6000     0.0354     1.1007
  382    7.620   3020.85     0.1110     0.0027     0.1205     0.0762     0.1611     2.5254   121.9200     0.0392     1.0989
  383    7.640   3021.82     0.1085     0.0028     0.1234     0.0764     0.1599     2.5782   122.2400     0.0377     1.2250
  384    7.660   3022.76     0.1084     0.0027     0.1262     0.0766     0.1610     2.5167   122.5600     0.0385     1.2654
  385    7.680   3023.77     0.1090     0.0028     0.1291     0.0768     0.1628     2.5512   122.8800     0.0399     1.2845
  386    7.700   3024.69     0.1109     0.0029     0.1314     0.0770     0.1657     2.5991   123.2000     0.0425     1.2573
  387    7.720   3025.64     0.1108     0.0031     0.1339     0.0772     0.1666     2.8224   123.5200     0.0430     1.2924
  388    7.740   3026.65     0.1070     0.0028     0.1364     0.0774     0.1639     2.5893   123.8400     0.0401     1.4489
  389    7.760   3027.67     0.1110     0.0029     0.1387     0.0776     0.1688     2.6381   124.1600     0.0447     1.3464
  390    7.780   3028.63     0.1122     0.0028     0.1409     0.0778     0.1711     2.4740   124.4800     0.0466     1.3394
  391    7.800   3029.59     0.1118     0.0028     0.1430     0.0780     0.1716     2.5333   124.8000     0.0468     1.3738
  392    7.820   3030.54     0.1123     0.0029     0.1451     0.0782     0.1729     2.6172   125.1200     0.0478     1.3814
  393    7.840   3031.53     0.1129     0.0024     0.1473     0.0784     0.1745     2.0846   125.4400     0.0491     1.3891
  394    7.860   3032.55     0.1163     0.0024     0.1502     0.0786     0.1789     1.9963   125.7600     0.0531     1.3273
  395    7.880   3033.52     0.1241     0.0020     0.1536     0.0788     0.1882     1.6947   126.0800     0.0621     1.1907
  396    7.900   3034.50     0.1276     0.0028     0.1446     0.0790     0.1896     2.2321   126.4000     0.0632     1.0863
  397    7.920   3035.47     0.1281     0.0027     0.1539     0.0792     0.1913     2.0541   126.7200     0.0646     1.1029
  398    7.940   3036.44     0.1564     0.0035     0.1572     0.0794     0.2228     2.3655   127.0400     0.0958     0.8315
  399    7.960   3037.43     0.1831     0.0041     0.1542     0.0796     0.2473     2.2751   127.3600     0.1199     0.6117
  400    7.980   3038.38     0.2210     0.0062     0.1566     0.0798     0.2863     2.9165   127.6800     0.1586     0.4799
  401    8.000   3039.40     0.2833     0.0080     0.1555     0.0800     0.3501     3.1004   128.0000     0.2221     0.3583
  402    8.020   3040.37     0.3249     0.0091     0.1368     0.0802     0.3849     2.8735   128.3200     0.2566     0.2441
  403    8.040   3041.34     0.3396     0.0097     0.1346     0.0804     0.3955     2.9043   128.6400     0.2668     0.1973
  404    8.060   3042.31     0.3327     0.0105     0.1218     0.0806     0.3871     3.1304   128.9600     0.2581     0.1894
  405    8.080   3043.29     0.3375     0.0114     0.1192     0.0808     0.3875     3.3766   129.2800     0.2583     0.1482
  406    8.100   3044.25     0.3217     0.0115     0.1255     0.0810     0.3742     3.5141   129.6000     0.2446     0.1797
  407    8.120   3045.18     0.3294     0.0103     0.1335     0.0812     0.3839     3.1377   129.9200     0.2540     0.1909
  408    8.140   3046.17     0.3516     0.0100     0.1445     0.0814     0.4100     2.9262   130.2400     0.2797     0.2062
  409    8.160   3047.14     0.3792     0.0110     0.1537     0.0816     0.4437     2.9026   130.5600     0.3131     0.2294
  410    8.180   3048.13     0.3951     0.0119     0.1552     0.0818     0.4594     3.0364   130.8800     0.3285     0.2166
  411    8.200   3049.14     0.3832     0.0130     0.1398     0.0820     0.4440     3.3301   131.2000     0.3128     0.2001
  412    8.220   3050.07     0.3663     0.0143     0.1360     0.0822     0.4237     3.8488   131.5200     0.2922     0.1865
  413    8.240   3051.07     0.3405     0.0141     0.1286     0.0824     0.3960     4.0512   131.8400     0.2642     0.1887
  414    8.260   3052.04     0.3286     0.0142     0.1124     0.0826     0.3781     4.3130   132.1600     0.2460     0.1429
  415    8.280   3053.02     0.3065     0.0151     0.1056     0.0828     0.3516     4.7887   132.4800     0.2191     0.1128
  416    8.300   3053.99     0.3167     0.0153     0.1045     0.0830     0.3600     4.8584   132.8000     0.2272     0.0886
  417    8.320   3054.99     0.3701     0.0161     0.1067     0.0832     0.4159     4.5037   133.1200     0.2827     0.0909
  418    8.340   3055.99     0.3933     0.0166     0.1015     0.0834     0.4352     4.2396   133.4400     0.3018     0.0544
  419    8.360   3056.94     0.4315     0.0176     0.1205     0.0836     0.4788     4.1338   133.7600     0.3450     0.0839
  420    8.380   3057.93     0.4993     0.0168     0.1342     0.0838     0.5548     3.3946   134.0800     0.4207     0.1146
  421    8.400   3058.91     0.5783     0.0160     0.1779     0.0840     0.6446     2.8486   134.4000     0.5102     0.1440
  422    8.420   3059.89     0.6315     0.0143     0.2248     0.0842     0.7196     2.2568   134.7200     0.5849     0.2147
  423    8.440   3060.90     0.5900     0.0127     0.2489     0.0844     0.6923     2.0733   135.0400     0.5573     0.2867
  424    8.460   3061.88     0.5374     0.0101     0.2651     0.0846     0.6465     1.9161   135.3600     0.5112     0.3431
  425    8.480   3062.86     0.5445     0.0112     0.2780     0.0848     0.6605     2.3783   135.6800     0.5249     0.3673
  426    8.500   3063.82     0.4846     0.0126     0.2696     0.0850     0.6024     2.8687   136.0000     0.4664     0.4208
  427    8.520   3064.80     0.4343     0.0146     0.2678     0.0852     0.5418     3.4960   136.3200     0.4055     0.4222
  428    8.540   3065.76     0.5350     0.0161     0.2983     0.0854     0.6571     3.0480   136.6400     0.5205     0.3943
  429    8.560   3066.76     0.5547     0.0179     0.3090     0.0856     0.6844     3.2399   136.9600     0.5474     0.4077
  430    8.580   3075.84     0.6112     0.0184     0.3213     0.0858     0.7442     3.1694   137.2800     0.6069     0.3819
  431    8.600   3091.22     0.6676     0.0178     0.3348     0.0860     0.8063     3.0685   137.6000     0.6687     0.3670
  432    8.620   3104.78     0.7136     0.0179     0.3503     0.0862     0.8582     2.6753   137.9200     0.7202     0.3583
  433    8.640   3105.74     0.6904     0.0187     0.3798     0.0864     0.8461     2.6888   138.2400     0.7079     0.4017
  434    8.660   3106.68     0.6590     0.0184     0.3955     0.0866     0.8232     2.7704   138.5600     0.6846     0.4444
  435    8.680   3107.64     0.5850     0.0168     0.4060     0.0868     0.7539     2.8342   138.8800     0.6150     0.5127
  436    8.700   3108.66     0.6132     0.0139     0.4185     0.0870     0.7876     2.3032   139.2000     0.6484     0.5062
  437    8.720   3109.64     0.6382     0.0105     0.4333     0.0872     0.8180     1.6633   139.5200     0.6785     0.5025
  438    8.740   3110.61     0.6510     0.0089     0.4314     0.0874     0.8353     1.3636   139.8400     0.6954     0.5053
  439    8.760   3111.58     0.6784     0.0099     0.4221     0.0876     0.8547     1.4874   140.1600     0.7146     0.4652
  440    8.780   3112.56     0.7107     0.0104     0.4004     0.0878     0.8862     1.4811   140.4800     0.7457     0.4426
  441    8.800   3113.54     0.7230     0.0092     0.2900     0.0880     0.8618     1.2651   140.8000     0.7210     0.3358
  442    8.820   3114.52     0.6853     0.0107     0.2236     0.0882     0.7852     1.5392   141.1200     0.6441     0.2319
  443    8.840   3115.47     0.6801     0.0148     0.2308     0.0884     0.7732     2.2494   141.4400     0.6318     0.2111
  444    8.860   3116.44     0.8543     0.0195     0.2732     0.0886     0.9638     2.4185   141.7600     0.8220     0.2091
  445    8.880   3117.38     1.0488     0.0187     0.2706     0.0888     1.1653     1.8712   142.0800     1.0232     0.1848
  446    8.900   3118.37     1.0931     0.0189     0.2056     0.0890     1.1901     1.7040   142.4000     1.0477     0.1351
  447    8.920   3119.35     1.0462     0.0215     0.1503     0.0892     1.1190     2.0495   142.7200     0.9763     0.0861
  448    8.940   3120.35     0.9980     0.0264     0.2055     0.0894     1.0754     2.5651   143.0400     0.9323     0.1022
  449    8.960   3121.32     0.9100     0.0277     0.2429     0.0896     1.0047     2.9960   143.3600     0.8613     0.1580
  450    8.980   3122.24     0.8763     0.0281     0.2477     0.0898     0.9825     3.1778   143.6800     0.8388     0.1944
  451    9.000   3123.20     0.9504     0.0262     0.2120     0.0900     1.0443     2.8840   144.0000     0.9003     0.1487
  452    9.020   3124.19     1.1289     0.0244     0.2172     0.0902     1.2168     2.2523   144.3200     1.0724     0.1109
  453    9.040   3125.15     1.1059     0.0239     0.2028     0.0904     1.1997     2.1221   144.6400     1.0551     0.1261
  454    9.060   3126.17     1.0408     0.0236     0.1447     0.0906     1.1045     2.2532   144.9600     0.9596     0.0637
  455    9.080   3127.13     1.0818     0.0223     0.1835     0.0908     1.1526     2.0820   145.2800     1.0074     0.0772
  456    9.100   3128.09     1.0923     0.0204     0.2425     0.0910     1.1853     1.8690   145.6000     1.0397     0.1254
  457    9.120   3129.04     1.0949     0.0193     0.3109     0.0912     1.2153     1.7540   145.9200     1.0694     0.1826
  458    9.140   3130.00     1.0907     0.0204     0.3585     0.0914     1.2346     1.8668   146.2400     1.0884     0.2309
  459    9.160   3130.97     1.0710     0.0210     0.4287     0.0916     1.2408     1.9532   146.5600     1.0942     0.2856
  460    9.180   3131.94     1.0913     0.0211     0.4697     0.0918     1.2847     1.9428   146.8800     1.1378     0.3241
  461    9.200   3132.92     1.1284     0.0207     0.4853     0.0920     1.3323     1.8232   147.2000     1.1851     0.3320
  462    9.220   3133.94     1.1273     0.0220     0.5024     0.0922     1.3335     1.9564   147.5200     1.1860     0.3361
  463    9.240   3134.92     1.1667     0.0253     0.5279     0.0924     1.3848     2.2019   147.8400     1.2369     0.3451
  464    9.260   3135.89     1.2091     0.0272     0.5465     0.0926     1.4373     2.2505   148.1600     1.2891     0.3496
  465    9.280   3136.84     1.2263     0.0276     0.5613     0.0928     1.4610     2.2559   148.4800     1.3125     0.3551
  466    9.300   3137.78     1.2336     0.0289     0.5645     0.0930     1.4671     2.3549   148.8000     1.3183     0.3513
  467    9.320   3138.80     1.2835     0.0289     0.6100     0.0932     1.5342     2.2655   149.1200     1.3851     0.3636
  468    9.340   3139.81     1.2950     0.0297     0.6611     0.0934     1.5644     2.2959   149.4400     1.4150     0.3873
  469    9.360   3140.78     1.3092     0.0305     0.6937     0.0936     1.5961     2.3386   149.7600     1.4463     0.4076
  470    9.380   3141.77     1.3280     0.0300     0.7022     0.0938     1.6216     2.2622   150.0800     1.4716     0.4114
  471    9.400   3142.76     1.3403     0.0282     0.7240     0.0940     1.6397     2.1054   150.4000     1.4893     0.4155
  472    9.420   3143.72     1.3286     0.0281     0.7289     0.0942     1.6361     2.1138   150.7200     1.4854     0.4295
  473    9.440   3144.69     1.3666     0.0273     0.7458     0.0944     1.6789     2.0125   151.0400     1.5279     0.4250
  474    9.460   3145.64     1.3799     0.0263     0.7441     0.0946     1.6999     1.8994   151.3600     1.5485     0.4308
  475    9.480   3146.63     1.3592     0.0255     0.7405     0.0948     1.6687     1.8682   151.6800     1.5170     0.4232
  476    9.500   3147.61     1.3656     0.0243     0.7205     0.0950     1.6736     1.7940   152.0000     1.5216     0.4195
  477    9.520   3148.58     1.3769     0.0231     0.7503     0.0952     1.6901     1.6666   152.3200     1.5378     0.4230
  478    9.540   3149.58     1.3348     0.0223     0.7863     0.0954     1.6597     1.6497   152.6400     1.5070     0.4499
  479    9.560   3150.57     1.3404     0.0218     0.8116     0.0956     1.6785     1.6427   152.9600     1.5255     0.4651
  480    9.580   3151.53     1.3669     0.0223     0.8178     0.0958     1.7112     1.6400   153.2800     1.5579     0.4646
  481    9.600   3152.51     1.3922     0.0240     0.7862     0.0960     1.7264     1.7352   153.6000     1.5728     0.4448
  482    9.620   3153.48     1.4016     0.0254     0.7597     0.0962     1.7243     1.8099   153.9200     1.5704     0.4281
  483    9.640   3154.44     1.4086     0.0264     0.7794     0.0964     1.7331     1.8874   154.2400     1.5789     0.4283
  484    9.660   3155.39     1.4661     0.0271     0.7526     0.0966     1.7878     1.8571   154.5600     1.6332     0.4098
  485    9.680   3156.36     1.4841     0.0273     0.7516     0.0968     1.7970     1.8391   154.8800     1.6421     0.3947
  486    9.700   3157.36     1.5072     0.0274     0.7124     0.0970     1.8118     1.8283   155.2000     1.6566     0.3793
  487    9.720   3158.38     1.4945     0.0284     0.7360     0.0972     1.8002     1.8840   155.5200     1.6446     0.3834
  488    9.740   3159.35     1.4775     0.0271     0.8015     0.0974     1.8030     1.8403   155.8400     1.6472     0.4113
  489    9.760   3160.30     1.5566     0.0251     0.7778     0.0976     1.8875     1.6299   156.1600     1.7313     0.3987
  490    9.780   3161.24     1.5909     0.0244     0.7257     0.0978     1.8951     1.5351   156.4800     1.7386     0.3603
  491    9.800   3162.19     1.5519     0.0255     0.6857     0.0980     1.8515     1.6344   156.8000     1.6947     0.3631
  492    9.820   3163.20     1.4504     0.0269     0.7333     0.0982     1.7505     1.8255   157.1200     1.5934     0.3868
  493    9.840   3164.21     1.4762     0.0273     0.7464     0.0984     1.7817     1.8743   157.4400     1.6242     0.3872
  494    9.860   3165.21     1.6269     0.0289     0.7148     0.0986     1.9375     1.8198   157.7600     1.7798     0.3602
  495    9.880   3166.20     1.6143     0.0289     0.6347     0.0988     1.8780     1.7823   158.0800     1.7199     0.3076
  496    9.900   3167.14     1.5932     0.0300     0.6919     0.0990     1.8789     1.8868   158.4000     1.7205     0.3377
  497    9.920   3168.13     1.6033     0.0313     0.7161     0.0992     1.8965     1.9566   158.7200     1.7378     0.3447
  498    9.940   3169.10     1.6210     0.0323     0.7311     0.0994     1.9301     2.0028   159.0400     1.7711     0.3595
  499    9.960   3170.06     1.6173     0.0310     0.7264     0.0996     1.9209     1.9134   159.3600     1.7615     0.3539
  500    9.980   3171.02     1.6048     0.0296     0.7297     0.0998     1.9141     1.8369   159.6800     1.7545     0.3630
  501   10.000   3172.00     1.5473     0.0287     0.7453     0.1000     1.8538     1.8384   160.0000     1.6938     0.3719
  502   10.020   3173.00     1.5062     0.0275     0.7934     0.1002     1.8332     1.8223   160.3200     1.6729     0.4054
  503   10.040   3173.98     1.5192     0.0267     0.7578     0.1004     1.8423     1.7716   160.6400     1.6817     0.3978
  504   10.060   3174.97     1.5166     0.0251     0.7767     0.1006     1.8427     1.6550   160.9600     1.6818     0.4019
  505   10.080   3175.92     1.4615     0.0244     0.7551     0.1008     1.7783     1.6479   161.2800     1.6170     0.4041
  506   10.100   3176.88     1.3996     0.0251     0.7737     0.1010     1.7238     1.7631   161.6000     1.5622     0.4296
  507   10.120   3177.84     1.3038     0.0244     0.8440     0.1012     1.6517     1.8577   161.9200     1.4898     0.4881
  508   10.140   3178.82     1.3010     0.0223     0.8619     0.1014     1.6587     1.7169   162.2400     1.4965     0.5014
  509   10.160   3179.78     1.3408     0.0205     0.8620     0.1016     1.7045     1.5427   162.5600     1.5420     0.4958
  510   10.180   3180.77     1.3825     0.0226     0.7984     0.1018     1.7269     1.6369   162.8800     1.5640     0.4592
  511   10.200   3181.74     1.3334     0.0249     0.7994     0.1020     1.6692     1.8488   163.2000     1.5060     0.4632
  512   10.220   3182.73     1.3336     0.0265     0.8386     0.1022     1.6799     2.0009   163.5200     1.5164     0.4764
  513   10.240   3183.75     1.4123     0.0269     0.8036     0.1024     1.7582     1.9296   163.8400     1.5944     0.4525
  514   10.260   3184.69     1.4801     0.0263     0.7538     0.1026     1.7950     1.7975   164.1600     1.6309     0.3969
  515   10.280   3185.65     1.4035     0.0279     0.7423     0.1028     1.7165     1.9599   164.4800     1.5520     0.4139
  516   10.300   3186.63     1.3503     0.0281     0.7701     0.1030     1.6696     2.0656   164.8000     1.5048     0.4368
  517   10.320   3187.61     1.3140     0.0270     0.8136     0.1032     1.6516     2.0527   165.1200     1.4864     0.4713
  518   10.340   3188.61     1.3130     0.0233     0.8208     0.1034     1.6612     1.7684   165.4400     1.4957     0.4852
  519   10.360   3189.53     1.3270     0.0211     0.8125     0.1036     1.6661     1.5952   165.7600     1.5004     0.4690
  520   10.380   3190.54     1.3226     0.0206     0.8190     0.1038     1.6693     1.5569   166.0800     1.5032     0.4801
  521   10.400   3191.54     1.3347     0.0216     0.8117     0.1040     1.6754     1.6162   166.4000     1.5090     0.4686
  522   10.420   3192.53     1.3310     0.0217     0.8020     0.1042     1.6691     1.6307   166.7200     1.5024     0.4666
  523   10.440   3193.51     1.3313     0.0197     0.7869     0.1044     1.6629     1.4745   167.0400     1.4958     0.4580
  524   10.460   3194.46     1.3122     0.0192     0.7748     0.1046     1.6418     1.4536   167.3600     1.4745     0.4613
  525   10.480   3195.46     1.3038     0.0209     0.7410     0.1048     1.6185     1.5863   167.6800     1.4509     0.4442
  526   10.500   3196.43     1.2403     0.0214     0.7527     0.1050     1.5545     1.7026   168.0000     1.3865     0.4639
  527   10.520   3197.41     1.2057     0.0282     0.7925     0.1052     1.5325     2.1849   168.3200     1.3642     0.4932
  528   10.540   3198.36     1.3150     0.0365     0.7820     0.1054     1.6480     2.6584   168.6400     1.4793     0.4657
  529   10.560   3199.35     1.5794     0.0404     0.6513     0.1056     1.8737     2.6333   168.9600     1.7047     0.3496
  530   10.580   3200.30     1.5849     0.0413     0.4953     0.1058     1.8081     2.5843   169.2800     1.6388     0.2596
  531   10.600   3201.32     1.5533     0.0447     0.4176     0.1060     1.7290     2.8676   169.6000     1.5594     0.2002
  532   10.620   3204.90     1.4765     0.0453     0.5044     0.1062     1.6770     3.8320   169.9200     1.5071     0.2457
  533   10.640   3221.08     1.5126     0.0427     0.5828     0.1064     1.7461     3.7156   170.2400     1.5758     0.2835
  534   10.660   3235.28     1.5563     0.0346     0.6321     0.1066     1.8193     2.4014   170.5600     1.6487     0.3152
  535   10.680   3236.24     1.6418     0.0304     0.5684     0.1068     1.8922     1.8748   170.8800     1.7213     0.2842
  536   10.700   3237.23     1.6710     0.0302     0.5397     0.1070     1.9022     1.8148   171.2000     1.7310     0.2561
  537   10.720   3238.23     1.6530     0.0288     0.5224     0.1072     1.8710     1.7255   171.5200     1.6995     0.2425
  538   10.740   3239.19     1.5786     0.0240     0.5211     0.1074     1.7926     1.5068   171.8400     1.6207     0.2481
  539   10.760   3240.20     1.5348     0.0231     0.5478     0.1076     1.7666     1.5102   172.1600     1.5944     0.2786
  540   10.780   3241.12     1.5715     0.0256     0.5373     0.1078     1.7965     1.6387   172.4800     1.6240     0.2635
  541   10.800   3242.11     1.4865     0.0217     0.6077     0.1080     1.7335     1.4363   172.8000     1.5607     0.3077
  542   10.820   3243.07     1.4964     0.0208     0.5870     0.1082     1.7514     1.3988   173.1200     1.5783     0.3161
  543   10.840   3244.09     1.5093     0.0213     0.4647     0.1084     1.7213     1.4030   173.4400     1.5478     0.2559
  544   10.860   3245.06     1.4438     0.0256     0.4245     0.1086     1.6229     1.7676   173.7600     1.4491     0.2193
  545   10.880   3245.99     1.5326     0.0298     0.4560     0.1088     1.7186     1.9764   174.0800     1.5446     0.2163
  546   10.900   3247.01     2.1383     0.0349     0.4139     0.1090     2.3239     1.7779   174.4000     2.1495     0.1570
  547   10.920   3247.98     3.2707     0.0384     0.2965     0.1092     3.4155     1.2917   174.7200     3.2408     0.0745
  548   10.940   3249.02     4.6061     0.0340     0.1252     0.1094     4.6805     0.7761   175.0400     4.5054     0.0157
  549   10.960   3250.01     5.6920     0.0321     0.0310     0.1096     5.7215     0.6238   175.3600     5.5461    -0.0070
  550   10.980   3250.98     6.5472     0.0304    -0.0671     0.1098     6.5275     0.5210   175.6800     6.3519    -0.0246
  551   11.000   3251.96     7.2711     0.0287    -0.0942     0.1100     7.2373     0.4182   176.0000     7.0613    -0.0269
  552   11.020   3252.93     7.7837     0.0270    -0.1700     0.1102     7.7224     0.3493   176.3200     7.5461    -0.0339
  553   11.040   3253.93     8.0283     0.0303    -0.1814     0.1104     7.9526     0.3774   176.6400     7.7760    -0.0374
  554   11.060   3255.50     7.8920     0.0369    -0.1542     0.1106     7.8191     0.4633   176.9600     7.6421    -0.0371
  555   11.080   3258.81     7.6518     0.0436    -0.0974     0.1108     7.6027     0.5481   177.2800     7.4254    -0.0302
  556   11.100   3262.12     7.4116     0.0491    -0.0405     0.1110     7.3863     0.6172   177.6000     7.2087    -0.0234
  557   11.120   3264.91     7.2023     0.0464    -0.0107     0.1112     7.1965     0.6426   177.9200     7.0186    -0.0178
  558   11.140   3265.89     7.2162     0.0445     0.0006     0.1114     7.2145     0.6197   178.2400     7.0363    -0.0164
  559   11.160   3266.89     7.4447     0.0431     0.0093     0.1116     7.4475     0.5834   178.5600     7.2690    -0.0144
  560   11.180   3267.86     7.6940     0.0413    -0.0079     0.1118     7.6970     0.5397   178.8800     7.5181    -0.0139
  561   11.200   3268.88     7.8508     0.0395    -0.0395     0.1120     7.8365     0.5048   179.2000     7.6573    -0.0191
  562   11.220   3269.87     7.9517     0.0410    -0.0358     0.1122     7.9354     0.5162   179.5200     7.7558    -0.0195
  563   11.240   3270.81     8.0164     0.0438    -0.0311     0.1124     8.0014     0.5466   179.8400     7.8216    -0.0189
  564   11.260   3271.83     7.9657     0.0500    -0.0105     0.1126     7.9592     0.6262   180.1600     7.7791    -0.0165
  565   11.280   3272.86     7.8613     0.0522     0.0039     0.1128     7.8611     0.6630   180.4800     7.6807    -0.0147
  566   11.300   3273.81     7.7724     0.0527     0.0129     0.1130     7.7767     0.6775   180.8000     7.5959    -0.0135
  567   11.320   3274.78     7.7012     0.0527     0.0237     0.1132     7.7107     0.6830   181.1200     7.5296    -0.0120
  568   11.340   3275.78     7.6656     0.0522     0.0322     0.1134     7.6777     0.6800   181.4400     7.4962    -0.0113
  569   11.360   3276.79     7.6018     0.0488     0.0481     0.1136     7.6183     0.6406   181.7600     7.4366    -0.0100
  570   11.380   3277.80     7.4953     0.0449     0.0550     0.1138     7.5165     0.5968   182.0800     7.3344    -0.0086
  571   11.400   3278.79     7.3362     0.0410     0.0419     0.1140     7.3545     0.5552   182.4000     7.1721    -0.0098
  572   11.420   3279.78     7.1308     0.0378     0.0422     0.1142     7.1478     0.5282   182.7200     6.9651    -0.0106
  573   11.440   3280.71     6.8743     0.0365     0.0484     0.1144     6.8932     0.5271   183.0400     6.7102    -0.0103
  574   11.460   3281.70     6.6113     0.0335     0.0518     0.1146     6.6325     0.5026   183.3600     6.4491    -0.0100
  575   11.480   3282.72     6.2913     0.0341     0.0591     0.1148     6.3148     0.5366   183.6800     6.1312    -0.0096
  576   11.500   3283.71     6.0010     0.0364     0.0600     0.1150     6.0257     0.6011   184.0000     5.8417    -0.0096
  577   11.520   3284.69     5.7236     0.0379     0.0630     0.1152     5.7492     0.6561   184.3200     5.5649    -0.0097
  578   11.540   3285.68     5.4784     0.0367     0.0589     0.1154     5.5031     0.6630   184.6400     5.3184    -0.0107
  579   11.560   3286.62     5.2142     0.0331     0.0768     0.1156     5.2439     0.6273   184.9600     5.0589    -0.0089
  580   11.580   3287.60     4.8656     0.0330     0.0874     0.1158     4.9015     0.6666   185.2800     4.7162    -0.0064
  581   11.600   3288.60     4.5019     0.0333     0.0927     0.1160     4.5415     0.7317   185.6000     4.3559    -0.0050
  582   11.620   3289.59     4.0999     0.0331     0.0984     0.1162     4.1396     0.7902   185.9200     3.9536    -0.0055
  583   11.640   3290.58     3.7210     0.0342     0.1223     0.1164     3.7680     0.9027   186.2400     3.5818    -0.0012
  584   11.660   3291.54     3.3497     0.0289     0.1589     0.1166     3.4104     0.8503   186.5600     3.2238     0.0087
  585   11.680   3292.52     2.9784     0.0261     0.2044     0.1168     3.0584     0.8664   186.8800     2.8715     0.0258
  586   11.700   3293.49     2.7630     0.0238     0.2574     0.1170     2.8626     0.8604   187.2000     2.6754     0.0449
  587   11.720   3294.50     2.9646     0.0243     0.2522     0.1172     3.0763     0.8407   187.5200     2.8888     0.0515
  588   11.740   3295.49     3.9917     0.0268     0.2010     0.1174     4.0882     0.6996   187.8400     3.9004     0.0289
  589   11.760   3296.55     5.4347     0.0398     0.0290     0.1176     5.4683     0.7705   188.1600     5.2801    -0.0066
  590   11.780   3297.53     6.5102     0.0615    -0.0272     0.1178     6.5007     0.9591   188.4800     6.3123    -0.0222
  591   11.800   3298.49     6.5551     0.0750    -0.0475     0.1180     6.5410     1.1351   188.8000     6.3522    -0.0239
  592   11.820   3299.44     5.8216     0.0701    -0.0698     0.1182     5.7941     1.1811   189.1200     5.6050    -0.0329
  593   11.840   3300.45     4.5339     0.0707    -0.0771     0.1184     4.5017     1.4920   189.4400     4.3122    -0.0455
  594   11.860   3301.48     3.7708     0.0626    -0.0168     0.1186     3.7491     1.6453   189.7600     3.5594    -0.0477
  595   11.880   3302.46     4.0542     0.0516     0.1324     0.1188     4.0958     1.2932   190.0800     3.9057    -0.0055
  596   11.900   3303.47     5.5911     0.0487     0.1082     0.1190     5.6410     0.9248   190.4000     5.4506     0.0001
  597   11.920   3304.44     7.5505     0.0410    -0.0728     0.1192     7.5540     0.5608   190.7200     7.3632    -0.0146
  598   11.940   3305.43     8.4672     0.0354    -0.1408     0.1194     8.4132     0.4207   191.0400     8.2222    -0.0302
  599   11.960   3306.43     8.7094     0.0388    -0.1431     0.1196     8.6479     0.4464   191.3600     8.4566    -0.0315
  600   11.980   3307.43     8.7473     0.0493    -0.1456     0.1198     8.6879     0.5636   191.6800     8.4962    -0.0308
  601   12.000   3308.44     8.5489     0.0615    -0.1568     0.1200     8.4841     0.7143   192.0000     8.2921    -0.0331
  602   12.020   3309.45     8.5384     0.0653    -0.1630     0.1202     8.4711     0.7682   192.3200     8.2788    -0.0339
  603   12.040   3310.40     8.7330     0.0447    -0.1397     0.1204     8.6694     0.5188   192.6400     8.4768    -0.0321
  604   12.060   3311.37     8.9450     0.0339    -0.1535     0.1206     8.8884     0.3850   192.9600     8.6954    -0.0294
  605   12.080   3312.37     9.0696     0.0304    -0.1715     0.1208     8.9983     0.3362   193.2800     8.8050    -0.0330
  606   12.100   3313.32     9.0797     0.0284    -0.1854     0.1210     9.0095     0.3120   193.6000     8.8159    -0.0327
  607   12.120   3314.33     8.8366     0.0358    -0.2303     0.1212     8.7473     0.4020   193.9200     8.5534    -0.0390
  608   12.140   3315.50     8.3518     0.0393    -0.2332     0.1214     8.2517     0.5328   194.2400     8.0575    -0.0447
  609   12.160   3318.72     8.0411     0.0407    -0.2073     0.1216     7.9503     0.5689   194.5600     7.7558    -0.0435
  610   12.180   3321.79     7.7844     0.0352    -0.1920     0.1218     7.7035     0.4581   194.8800     7.5087    -0.0419
  611   12.200   3322.76     7.5652     0.0395    -0.2059     0.1220     7.4815     0.5190   195.2000     7.2863    -0.0441
  612   12.220   3323.77     7.3757     0.0469    -0.2031     0.1222     7.2890     0.6335   195.5200     7.0935    -0.0463
  613   12.240   3324.72     7.3769     0.0522    -0.1830     0.1224     7.2984     0.7094   195.8400     7.1026    -0.0435
  614   12.260   3325.74     7.5493     0.0587    -0.1862     0.1226     7.4718     0.7789   196.1600     7.2757    -0.0422
  615   12.280   3326.74     7.6765     0.0620    -0.2080     0.1228     7.5942     0.8082   196.4800     7.3977    -0.0431
  616   12.300   3327.72     7.4971     0.0562    -0.2257     0.1230     7.4036     0.7444   196.8000     7.2068    -0.0479
  617   12.320   3328.72     7.3123     0.0478    -0.2285     0.1232     7.2181     0.6518   197.1200     7.0210    -0.0495
  618   12.340   3329.73     7.2660     0.0470    -0.2202     0.1234     7.1700     0.6386   197.4400     6.9726    -0.0505
  619   12.360   3330.71     7.3446     0.0500    -0.2068     0.1236     7.2597     0.6608   197.7600     7.0620    -0.0461
  620   12.380   3331.74     7.8049     0.0531    -0.2415     0.1238     7.7073     0.6830   198.0800     7.5092    -0.0474
  621   12.400   3332.67     7.7342     0.0585    -0.2720     0.1240     7.6248     0.7544   198.4000     7.4264    -0.0518
  622   12.420   3333.66     6.4483     0.0683    -0.2898     0.1242     6.3274     1.0543   198.7200     6.1287    -0.0673
  623   12.440   3334.62     4.8972     0.0704    -0.2590     0.1244     4.7748     1.3761   199.0400     4.5758    -0.0912
  624   12.460   3351.72     4.1523     0.0754    -0.1380     0.1246     4.0768     1.5780   199.3600     3.8775    -0.0739
  625   12.480   3370.16     3.4752     0.0820    -0.0170     0.1248     3.4506     1.7173   199.6800     3.2509    -0.0528
  626   12.500   3379.25     2.8493     0.0840    -0.0272     0.1250     2.8488     2.7797   200.0000     2.6488    -0.0480
  627   12.520   3380.24     2.4896     0.0757    -0.0184     0.1252     2.4691     2.9748   200.3200     2.2688    -0.0766
  628   12.540   3381.21     2.2340     0.0567    -0.0062     0.1254     2.2362     2.4135   200.6400     2.0356    -0.0591
  629   12.560   3382.17     1.9179     0.0461    -0.0045     0.1256     1.9153     2.3116   200.9600     1.7144    -0.0769
  630   12.580   3383.16     1.4668     0.0383     0.0569     0.1258     1.4791     2.3978   201.2800     1.2779    -0.0752
  631   12.600   3384.11     1.2007     0.0311     0.1161     0.1260     1.2404     2.5090   201.6000     1.0388    -0.0299
  632   12.620   3385.03     1.0422     0.0248     0.2023     0.1262     1.1145     2.3252   201.9200     0.9126     0.0509
  633   12.640   3386.06     1.0033     0.0178     0.2519     0.1264     1.1021     1.7713   202.2400     0.8998     0.1208
  634   12.660   3387.03     0.9700     0.0125     0.3041     0.1266     1.0905     1.2766   202.5600     0.8880     0.1807
  635   12.680   3388.05     0.9456     0.0116     0.3477     0.1268     1.0857     1.2196   202.8800     0.8828     0.2342
  636   12.700   3388.99     0.9506     0.0116     0.3788     0.1270     1.1062     1.2234   203.2000     0.9030     0.2696
  637   12.720   3389.96     0.9347     0.0111     0.3738     0.1272     1.0940     1.1772   203.5200     0.8904     0.2830
  638   12.740   3390.92     0.9002     0.0112     0.4029     0.1274     1.0649     1.2406   203.8400     0.8610     0.3075
  639   12.760   3391.89     0.8918     0.0115     0.4278     0.1276     1.0692     1.2867   204.1600     0.8650     0.3406
  640   12.780   3392.85     0.8936     0.0121     0.4410     0.1278     1.0771     1.3520   204.4800     0.8726     0.3541
  641   12.800   3393.86     0.8939     0.0121     0.4459     0.1280     1.0809     1.3570   204.8000     0.8761     0.3622
  642   12.820   3394.84     0.8873     0.0122     0.4516     0.1282     1.0769     1.3769   205.1200     0.8718     0.3708
  643   12.840   3395.85     0.8909     0.0134     0.4575     0.1284     1.0823     1.5002   205.4400     0.8769     0.3734
  644   12.860   3396.83     0.8915     0.0137     0.4576     0.1286     1.0833     1.5334   205.7600     0.8775     0.3739
  645   12.880   3397.82     0.8686     0.0136     0.4678     0.1288     1.0650     1.5614   206.0800     0.8589     0.3944
  646   12.900   3398.79     0.8535     0.0141     0.4788     0.1290     1.0538     1.6388   206.4000     0.8474     0.4105
  647   12.920   3399.75     0.8389     0.0140     0.4855     0.1292     1.0420     1.6686   206.7200     0.8353     0.4242
  648   12.940   3400.69     0.8473     0.0140     0.4900     0.1294     1.0524     1.6519   207.0400     0.8454     0.4245
  649   12.960   3401.64     0.8389     0.0140     0.5019     0.1296     1.0488     1.6602   207.3600     0.8414     0.4399
  650   12.980   3402.67     0.8244     0.0146     0.5006     0.1298     1.0345     1.7707   207.6800     0.8268     0.4479
  651   13.000   3403.68     0.8350     0.0148     0.5073     0.1300     1.0465     1.7734   208.0000     0.8385     0.4455
  652   13.020   3404.64     0.8187     0.0145     0.5124     0.1302     1.0328     1.7614   208.3200     0.8244     0.4602
  653   13.040   3405.64     0.8099     0.0150     0.5138     0.1304     1.0262     1.8461   208.6400     0.8175     0.4703
  654   13.060   3406.57     0.8220     0.0150     0.5173     0.1306     1.0379     1.8434   208.9600     0.8290     0.4628
  655   13.080   3407.58     0.8225     0.0152     0.5269     0.1308     1.0426     1.8373   209.2800     0.8333     0.4717
  656   13.100   3408.53     0.8176     0.0152     0.5293     0.1310     1.0401     1.8488   209.6000     0.8305     0.4802
  657   13.120   3409.50     0.8100     0.0149     0.5288     0.1312     1.0317     1.8392   209.9200     0.8218     0.4829
  658   13.140   3410.48     0.8036     0.0153     0.5328     0.1314     1.0273     1.9002   210.2400     0.8171     0.4910
  659   13.160   3411.47     0.8076     0.0156     0.5362     0.1316     1.0320     1.9377   210.5600     0.8214     0.4901
  660   13.180   3412.40     0.8023     0.0156     0.5382     0.1318     1.0284     1.9406   210.8800     0.8175     0.4973
  661   13.200   3413.38     0.7936     0.0157     0.5399     0.1320     1.0197     1.9711   211.2000     0.8085     0.5026
  662   13.220   3414.38     0.7885     0.0153     0.5358     0.1322     1.0138     1.9415   211.5200     0.8023     0.5039
  663   13.240   3415.37     0.7887     0.0157     0.5423     0.1324     1.0152     1.9809   211.8400     0.8034     0.5065
  664   13.260   3416.35     0.7842     0.0159     0.5496     0.1326     1.0141     2.0247   212.1600     0.8019     0.5173
  665   13.280   3417.31     0.7826     0.0162     0.5500     0.1328     1.0128     2.0639   212.4800     0.8003     0.5187
  666   13.300   3418.27     0.7780     0.0164     0.5510     0.1330     1.0107     2.1050   212.8000     0.7979     0.5277
  667   13.320   3419.20     0.7770     0.0167     0.5556     0.1332     1.0099     2.1444   213.1200     0.7968     0.5287
  668   13.340   3420.23     0.7647     0.0167     0.5589     0.1334     0.9992     2.1738   213.4400     0.7857     0.5407
  669   13.360   3421.23     0.7657     0.0169     0.5565     0.1336     0.9994     2.1982   213.7600     0.7856     0.5381
  670   13.380   3422.24     0.7658     0.0166     0.5623     0.1338     1.0009     2.1715   214.0800     0.7868     0.5413
  671   13.400   3423.20     0.7674     0.0164     0.5708     0.1340     1.0071     2.1432   214.4000     0.7927     0.5511
  672   13.420   3424.15     0.7659     0.0161     0.5744     0.1342     1.0069     2.1008   214.7200     0.7922     0.5548
  673   13.440   3425.11     0.7704     0.0164     0.5785     0.1344     1.0130     2.1270   215.0400     0.7980     0.5553
  674   13.460   3426.07     0.7689     0.0165     0.5851     0.1346     1.0136     2.1477   215.3600     0.7983     0.5613
  675   13.480   3427.03     0.7813     0.0168     0.5901     0.1348     1.0284     2.1593   215.6800     0.8128     0.5582
  676   13.500   3428.02     0.7772     0.0170     0.5921     0.1350     1.0258     2.1891   216.0000     0.8098     0.5643
  677   13.520   3428.99     0.7709     0.0171     0.5952     0.1352     1.0198     2.2188   216.3200     0.8035     0.5692
  678   13.540   3430.00     0.7795     0.0169     0.6053     0.1354     1.0327     2.1864   216.6400     0.8161     0.5728
  679   13.560   3430.99     0.7911     0.0168     0.6142     0.1356     1.0474     2.1288   216.9600     0.8305     0.5716
  680   13.580   3431.96     0.7849     0.0166     0.6224     0.1358     1.0457     2.1085   217.2800     0.8284     0.5857
  681   13.600   3432.92     0.7989     0.0169     0.6220     0.1360     1.0595     2.1268   217.6000     0.8419     0.5756
  682   13.620   3433.87     0.8084     0.0169     0.6251     0.1362     1.0708     2.1003   217.9200     0.8529     0.5730
  683   13.640   3434.83     0.8231     0.0169     0.6333     0.1364     1.0879     2.0542   218.2400     0.8697     0.5682
  684   13.660   3435.83     0.8225     0.0172     0.6369     0.1366     1.0897     2.0853   218.5600     0.8711     0.5734
  685   13.680   3436.82     0.8291     0.0174     0.6443     0.1368     1.0991     2.1044   218.8800     0.8802     0.5748
  686   13.700   3437.78     0.8312     0.0171     0.6494     0.1370     1.1028     2.0516   219.2000     0.8836     0.5767
  687   13.720   3438.79     0.8184     0.0177     0.6385     0.1372     1.0904     2.1487   219.5200     0.8709     0.5861
  688   13.740   3439.79     0.8120     0.0173     0.6261     0.1374     1.0749     2.1333   219.8400     0.8550     0.5713
  689   13.760   3440.75     0.8174     0.0173     0.6357     0.1376     1.0831     2.1180   220.1600     0.8629     0.5738
  690   13.780   3441.71     0.8048     0.0174     0.6486     0.1378     1.0753     2.1535   220.4800     0.8548     0.5921
  691   13.800   3442.71     0.8094     0.0173     0.6533     0.1380     1.0836     2.1457   220.8000     0.8628     0.5968
  692   13.820   3443.67     0.8160     0.0177     0.6553     0.1382     1.0907     2.1680   221.1200     0.8696     0.5931
  693   13.840   3444.65     0.8144     0.0179     0.6611     0.1384     1.0916     2.2033   221.4400     0.8701     0.5992
  694   13.860   3445.65     0.8171     0.0174     0.6584     0.1386     1.0933     2.1366   221.7600     0.8716     0.5956
  695   13.880   3446.63     0.8259     0.0172     0.6601     0.1388     1.1027     2.0884   222.0800     0.8806     0.5908
  696   13.900   3447.60     0.8295     0.0176     0.6607     0.1390     1.1068     2.1242   222.4000     0.8844     0.5894
  697   13.920   3448.61     0.8288     0.0177     0.6611     0.1392     1.1066     2.1332   222.7200     0.8838     0.5908
  698   13.940   3449.57     0.8305     0.0175     0.6620     0.1394     1.1088     2.1069   223.0400     0.8858     0.5907
  699   13.960   3450.54     0.8418     0.0177     0.6604     0.1396     1.1193     2.1085   223.3600     0.8959     0.5816
  700   13.980   3451.49     0.8431     0.0180     0.6615     0.1398     1.1210     2.1342   223.6800     0.8973     0.5817
  701   14.000   3452.44     0.8380     0.0179     0.6603     0.1400     1.1143     2.1319   224.0000     0.8903     0.5817
  702   14.020   3453.47     0.8274     0.0174     0.6664     0.1402     1.1072     2.1017   224.3200     0.8829     0.5957
  703   14.040   3454.46     0.8293     0.0170     0.6552     0.1404     1.1060     2.0488   224.6400     0.8814     0.5881
  704   14.060   3455.42     0.8275     0.0176     0.6644     0.1406     1.1052     2.1154   224.9600     0.8803     0.5915
  705   14.080   3456.41     0.8259     0.0174     0.6715     0.1408     1.1074     2.1043   225.2800     0.8821     0.6001
  706   14.100   3457.35     0.8218     0.0173     0.6742     0.1410     1.1051     2.1051   225.6000     0.8795     0.6066
  707   14.120   3458.30     0.8217     0.0170     0.6759     0.1412     1.1052     2.0688   225.9200     0.8792     0.6071
  708   14.140   3459.30     0.8169     0.0172     0.6699     0.1414     1.0992     2.1055   226.2400     0.8730     0.6081
  709   14.160   3460.31     0.8294     0.0173     0.6699     0.1416     1.1114     2.0932   226.5600     0.8848     0.5988
  710   14.180   3461.29     0.8326     0.0173     0.6704     0.1418     1.1148     2.0784   226.8800     0.8879     0.5970
  711   14.200   3462.27     0.8236     0.0173     0.6725     0.1420     1.1057     2.1016   227.2000     0.8785     0.6029
  712   14.220   3463.29     0.8322     0.0172     0.6620     0.1422     1.1131     2.0786   227.5200     0.8856     0.5945
  713   14.240   3464.27     0.8439     0.0175     0.6558     0.1424     1.1155     2.0767   227.8400     0.8877     0.5679
  714   14.260   3465.22     0.8353     0.0173     0.6676     0.1426     1.1150     2.0731   228.1600     0.8869     0.5901
  715   14.280   3466.20     0.8306     0.0175     0.6710     0.1428     1.1130     2.1008   228.4800     0.8845     0.5986
  716   14.300   3467.16     0.8365     0.0174     0.6651     0.1430     1.1190     2.0903   228.8000     0.8902     0.5948
  717   14.320   3468.12     0.8346     0.0177     0.6724     0.1432     1.1164     2.1133   229.1200     0.8872     0.5948
  718   14.340   3469.19     0.8346     0.0178     0.6799     0.1434     1.1191     2.1271   229.4400     0.8897     0.6003
  719   14.360   3470.21     0.8279     0.0177     0.6872     0.1436     1.1153     2.1322   229.7600     0.8855     0.6106
  720   14.380   3471.15     0.8378     0.0180     0.6924     0.1438     1.1279     2.1597   230.0800     0.8978     0.6092
  721   14.400   3472.17     0.8571     0.0178     0.6993     0.1440     1.1489     2.0905   230.4000     0.9185     0.5996
  722   14.420   3473.11     0.8476     0.0180     0.7064     0.1442     1.1441     2.1115   230.7200     0.9134     0.6150
  723   14.440   3474.05     0.8454     0.0179     0.7039     0.1444     1.1418     2.1299   231.0400     0.9108     0.6162
  724   14.460   3475.01     0.8477     0.0191     0.6997     0.1446     1.1416     2.2699   231.3600     0.9102     0.6100
  725   14.480   3476.04     0.8421     0.0199     0.7029     0.1448     1.1372     2.3675   231.6800     0.9055     0.6160
  726   14.500   3477.00     0.8458     0.0195     0.7039     0.1450     1.1408     2.3060   232.0000     0.9088     0.6133
  727   14.520   3478.03     0.8515     0.0196     0.7140     0.1452     1.1495     2.3061   232.3200     0.9172     0.6153
  728   14.540   3478.98     0.8576     0.0196     0.7138     0.1454     1.1600     2.4295   232.6400     0.9274     0.6197
  729   14.560   3491.85     0.8643     0.0195     0.7079     0.1456     1.1625     2.6787   232.9600     0.9295     0.6071
  730   14.580   3508.28     0.8649     0.0192     0.7063     0.1458     1.1605     2.4896   233.2800     0.9273     0.6020
  731   14.600   3511.53     0.8659     0.0190     0.7148     0.1460     1.1657     2.2063   233.6000     0.9321     0.6092
  732   14.620   3512.50     0.8632     0.0185     0.7138     0.1462     1.1630     2.1466   233.9200     0.9291     0.6110
  733   14.640   3513.47     0.8694     0.0188     0.7149     0.1464     1.1695     2.1646   234.2400     0.9352     0.6073
  734   14.660   3514.48     0.8849     0.0208     0.7187     0.1466     1.1859     2.3852   234.5600     0.9513     0.5992
  735   14.680   3515.48     0.9130     0.0207     0.7211     0.1468     1.2167     2.2638   234.8800     0.9818     0.5869
  736   14.700   3516.44     0.9132     0.0205     0.7120     0.1470     1.2138     2.2529   235.2000     0.9786     0.5811
  737   14.720   3517.42     0.9436     0.0211     0.6606     0.1472     1.2316     2.2566   235.5200     0.9961     0.5406
  738   14.740   3518.37     0.9439     0.0210     0.6315     0.1474     1.2114     2.2233   235.8400     0.9755     0.5017
  739   14.760   3519.31     0.9107     0.0211     0.6787     0.1476     1.1887     2.2977   236.1600     0.9525     0.5399
  740   14.780   3520.29     0.8894     0.0219     0.7024     0.1478     1.1823     2.4602   236.4800     0.9458     0.5812
  741   14.800   3521.28     0.8926     0.0205     0.7201     0.1480     1.1929     2.2926   236.8000     0.9561     0.5931
  742   14.820   3522.28     0.8820     0.0198     0.7299     0.1482     1.1865     2.2350   237.1200     0.9494     0.6076
  743   14.840   3523.25     0.8681     0.0201     0.7298     0.1484     1.1757     2.3039   237.4400     0.9382     0.6223
  744   14.860   3524.23     0.8754     0.0196     0.7394     0.1486     1.1849     2.2473   237.7600     0.9471     0.6211
  745   14.880   3525.19     0.8761     0.0200     0.7504     0.1488     1.1899     2.2709   238.0800     0.9518     0.6286
  746   14.900   3526.16     0.8698     0.0196     0.7596     0.1490     1.1884     2.2470   238.4000     0.9500     0.6417
  747   14.920   3527.14     0.8794     0.0198     0.7572     0.1492     1.1977     2.2623   238.7200     0.9589     0.6346
  748   14.940   3528.10     0.8887     0.0196     0.7603     0.1494     1.2079     2.2019   239.0400     0.9689     0.6304
  749   14.960   3529.08     0.8923     0.0193     0.7530     0.1496     1.2105     2.1656   239.3600     0.9712     0.6262
  750   14.980   3530.05     0.8816     0.0191     0.7463     0.1498     1.1959     2.1619   239.6800     0.9562     0.6259
  751   15.000   3531.05     0.8782     0.0191     0.7380     0.1500     1.1881     2.1767   240.0000     0.9481     0.6201
  752   15.020   3532.04     0.8668     0.0192     0.7441     0.1502     1.1786     2.2071   240.3200     0.9383     0.6312
  753   15.040   3533.00     0.8674     0.0195     0.7466     0.1504     1.1808     2.2495   240.6400     0.9401     0.6337
  754   15.060   3533.99     0.8686     0.0189     0.7477     0.1506     1.1826     2.1634   240.9600     0.9416     0.6339
  755   15.080   3534.96     0.8587     0.0194     0.7474     0.1508     1.1724     2.2635   241.2800     0.9311     0.6402
  756   15.100   3535.92     0.8578     0.0193     0.7536     0.1510     1.1738     2.2489   241.6000     0.9322     0.6453
  757   15.120   3536.86     0.8556     0.0195     0.7601     0.1512     1.1735     2.2733   241.9200     0.9316     0.6502
  758   15.140   3537.87     0.8527     0.0194     0.7607     0.1514     1.1726     2.2788   242.2400     0.9303     0.6559
  759   15.160   3538.83     0.8539     0.0193     0.7586     0.1516     1.1730     2.2560   242.5600     0.9305     0.6536
  760   15.180   3539.79     0.8446     0.0194     0.7583     0.1518     1.1635     2.2858   242.8800     0.9206     0.6598
  761   15.200   3540.82     0.8427     0.0190     0.7541     0.1520     1.1596     2.2549   243.2000     0.9164     0.6575
  762   15.220   3541.81     0.8386     0.0191     0.7510     0.1522     1.1548     2.2772   243.5200     0.9113     0.6591
  763   15.240   3542.80     0.8434     0.0192     0.7368     0.1524     1.1564     2.2944   243.8400     0.9126     0.6499
  764   15.260   3543.78     0.8907     0.0189     0.7372     0.1526     1.2001     2.1449   244.1600     0.9560     0.6110
  765   15.280   3544.73     0.8846     0.0188     0.7422     0.1528     1.1964     2.1191   244.4800     0.9519     0.6192
  766   15.300   3545.69     0.8812     0.0191     0.7016     0.1530     1.1906     2.1581   244.8000     0.9458     0.6169
  767   15.320   3546.65     0.8858     0.0192     0.6625     0.1532     1.1614     2.1592   245.1200     0.9163     0.5489
  768   15.340   3547.66     0.8633     0.0193     0.7063     0.1534     1.1548     2.2167   245.4400     0.9093     0.5946
  769   15.360   3548.69     0.8471     0.0196     0.7248     0.1536     1.1504     2.3021   245.7600     0.9047     0.6285
  770   15.380   3549.67     0.8486     0.0194     0.7312     0.1538     1.1542     2.2971   246.0800     0.9081     0.6319
  771   15.400   3550.63     0.8579     0.0190     0.7412     0.1540     1.1677     2.2190   246.4000     0.9213     0.6335
  772   15.420   3551.61     0.8675     0.0185     0.7434     0.1542     1.1798     2.1459   246.7200     0.9330     0.6315
  773   15.440   3552.60     0.8659     0.0179     0.7470     0.1544     1.1800     2.0563   247.0400     0.9329     0.6361
  774   15.460   3553.56     0.8671     0.0183     0.7467     0.1546     1.1794     2.1045   247.3600     0.9320     0.6320
  775   15.480   3554.51     0.8775     0.0170     0.7538     0.1548     1.1938     1.9449   247.6800     0.9461     0.6324
  776   15.500   3555.49     0.8834     0.0167     0.7547     0.1550     1.2006     1.8966   248.0000     0.9526     0.6300
  777   15.520   3556.47     0.9140     0.0169     0.7459     0.1552     1.2285     1.8724   248.3200     0.9802     0.6058
  778   15.540   3557.50     0.9802     0.0149     0.7207     0.1554     1.2863     1.5571   248.6400     1.0376     0.5528
  779   15.560   3558.46     1.0037     0.0169     0.7321     0.1556     1.3103     1.6957   248.9600     1.0613     0.5412
  780   15.580   3559.42     1.0730     0.0181     0.6954     0.1558     1.3730     1.7294   249.2800     1.1237     0.4975
  781   15.600   3560.42     1.1553     0.0203     0.6559     0.1560     1.4355     1.7865   249.6000     1.1859     0.4310
  782   15.620   3561.39     1.2373     0.0199     0.6488     0.1562     1.5140     1.6382   249.9200     1.2641     0.3979
  783   15.640   3562.36     1.3280     0.0207     0.5801     0.1564     1.5782     1.5713   250.2400     1.3279     0.3308
  784   15.660   3563.34     1.3630     0.0201     0.5609     0.1566     1.5968     1.4676   250.5600     1.3462     0.2971
  785   15.680   3564.33     1.3179     0.0197     0.5656     0.1568     1.5554     1.4898   250.8800     1.3045     0.3132
  786   15.700   3565.29     1.3219     0.0219     0.5998     0.1570     1.5667     1.6693   251.2000     1.3155     0.3237
  787   15.720   3566.31     1.5627     0.0217     0.6078     0.1572     1.8179     1.4407   251.5200     1.5664     0.2887
  788   15.740   3567.27     2.1712     0.0213     0.5449     0.1574     2.4180     1.0414   251.8400     2.1662     0.2008
  789   15.760   3568.28     3.3078     0.0186     0.3956     0.1576     3.5022     0.5905   252.1600     3.2501     0.0947
  790   15.780   3569.28     4.1640     0.0181     0.2760     0.1578     4.2975     0.4476   252.4800     4.0450     0.0397
  791   15.800   3570.26     4.7103     0.0168     0.1976     0.1580     4.8024     0.3622   252.8000     4.5496     0.0135
  792   15.820   3571.28     4.9414     0.0153     0.1860     0.1582     5.0164     0.3109   253.1200     4.7633     0.0042
  793   15.840   3572.26     5.0581     0.0163     0.1949     0.1584     5.1408     0.3243   253.4400     4.8874     0.0079
  794   15.860   3573.30     5.2183     0.0222     0.1884     0.1586     5.2987     0.4278   253.7600     5.0449     0.0065
  795   15.880   3574.26     5.3190     0.0254     0.1671     0.1588     5.3931     0.4781   254.0800     5.1390     0.0034
  796   15.900   3575.21     5.2662     0.0267     0.1565     0.1590     5.3300     0.5055   254.4000     5.0756    -0.0014
  797   15.920   3576.22     5.1231     0.0277     0.1515     0.1592     5.1854     0.5369   254.7200     4.9307    -0.0022
  798   15.940   3577.21     5.0507     0.0332     0.1715     0.1594     5.1186     0.6572   255.0400     4.8636     0.0005
  799   15.960   3578.23     5.1056     0.0423     0.2066     0.1596     5.1884     0.8296   255.3600     4.9330     0.0076
  800   15.980   3579.23     4.9835     0.0450     0.1560     0.1598     5.0572     0.8963   255.6800     4.8015     0.0032
  801   16.000   3580.22     4.7204     0.0393     0.1541     0.1600     4.7832     0.8224   256.0000     4.5272    -0.0024
  802   16.020   3581.20     4.2943     0.0374     0.1679     0.1602     4.3608     0.8547   256.3200     4.1044    -0.0005
  803   16.040   3582.18     4.0115     0.0329     0.1814     0.1604     4.0878     0.8088   256.6400     3.8312     0.0056
  804   16.060   3583.18     3.7888     0.0249     0.1724     0.1606     3.8646     0.6486   256.9600     3.6077     0.0055
  805   16.080   3584.17     3.6177     0.0214     0.1729     0.1608     3.6858     0.5860   257.2800     3.4285     0.0004
  806   16.100   3585.15     3.4718     0.0238     0.1925     0.1610     3.5508     0.6826   257.6000     3.2932     0.0082
  807   16.120   3586.10     3.2780     0.0217     0.2548     0.1612     3.3758     0.6555   257.9200     3.1178     0.0230
  808   16.140   3587.09     3.2762     0.0157     0.3065     0.1614     3.3968     0.4822   258.2400     3.1386     0.0401
  809   16.160   3588.09     3.7931     0.0116     0.3477     0.1616     3.9407     0.3164   258.5600     3.6821     0.0515
  810   16.180   3589.10     4.8950     0.0257     0.3133     0.1618     5.0319     0.5342   258.8800     4.7730     0.0346
  811   16.200   3590.10     6.0056     0.0420     0.1428     0.1620     6.0973     0.7110   259.2000     5.8381     0.0099
  812   16.220   3591.09     6.5294     0.0513     0.0198     0.1622     6.5479     0.7876   259.5200     6.2884    -0.0187
  813   16.240   3592.05     6.4190     0.0563     0.0226     0.1624     6.4263     0.8758   259.8400     6.1664    -0.0235
  814   16.260   3593.03     6.1994     0.0646     0.0525     0.1626     6.2099     1.0416   260.1600     5.9497    -0.0232
  815   16.280   3594.06     6.9159     0.0725     0.0985     0.1628     6.9584     1.0716   260.4800     6.6980    -0.0093
  816   16.300   3595.08     8.7821     0.0719     0.0550     0.1630     8.8132     0.8496   260.8000     8.5524    -0.0104
  817   16.320   3596.11    10.4514     0.0730     0.0197     0.1632    10.4633     0.7132   261.1200    10.2022    -0.0132
  818   16.340   3597.12    11.0902     0.0693    -0.0232     0.1634    11.0883     0.6276   261.4400    10.8268    -0.0155
  819   16.360   3598.09    10.9318     0.0695    -0.0482     0.1636    10.9136     0.6323   261.7600    10.6519    -0.0194
  820   16.380   3599.06    10.5047     0.0851    -0.0501     0.1638    10.4835     0.8066   262.0800    10.2214    -0.0210
  821   16.400   3600.02     9.9300     0.0963    -0.0301     0.1640     9.9130     0.9633   262.4000     9.6506    -0.0212
  822   16.420   3601.06     9.5629     0.0963     0.0069     0.1642     9.5602     0.9937   262.7200     9.2975    -0.0183
  823   16.440   3602.06     9.3849     0.0939     0.0595     0.1644     9.4009     0.9908   263.0400     9.1378    -0.0138
  824   16.460   3603.02     9.2579     0.0913     0.1009     0.1646     9.2954     0.9848   263.3600     9.0320    -0.0083
  825   16.480   3604.03     9.1660     0.0904     0.1478     0.1648     9.2249     0.9841   263.6800     8.9612    -0.0027
  826   16.500   3605.05    10.3173     0.0882     0.0756     0.1650    10.3628     0.9341   264.0000    10.0988    -0.0055
  827   16.520   3610.71    11.9134     0.0863     0.0074     0.1652    11.9254     0.8502   264.3200    11.6611    -0.0115
  828   16.540   3625.13    12.8629     0.0843    -0.0539     0.1654    12.8491     0.7663   264.6400    12.5845    -0.0153
  829   16.560   3639.55    13.8124     0.0783    -0.1132     0.1656    13.7730     0.6760   264.9600    13.5080    -0.0190
  830   16.580   3644.33    13.4470     0.0849    -0.1365     0.1658    13.3922     0.6232   265.2800    13.1269    -0.0226
  831   16.600   3645.37    11.9526     0.0943    -0.1211     0.1660    11.8930     0.7751   265.6000    11.6274    -0.0264
  832   16.620   3648.34    11.1328     0.0958    -0.0608     0.1662    11.0985     0.7976   265.9200    10.8326    -0.0222
  833   16.640   3651.31    10.3130     0.1012    -0.0006     0.1664    10.3040     0.8424   266.2400    10.0378    -0.0180
  834   16.660   3654.20     9.5165     0.1061     0.0408     0.1666     9.5320     1.0357   266.5600     9.2654    -0.0140
  835   16.680   3655.28     9.4071     0.1008     0.0952     0.1668     9.4379     1.0448   266.8800     9.1710    -0.0102
  836   16.700   3656.24     9.5931     0.0932     0.1119     0.1670     9.6354     0.9473   267.2000     9.3682    -0.0071
  837   16.720   3657.24    10.0991     0.0853     0.1089     0.1672    10.1475     0.8469   267.5200     9.8800    -0.0053
  838   16.740   3658.20    11.0268     0.0742     0.0327     0.1674    11.0509     0.6747   267.8400    10.7831    -0.0102
  839   16.760   3659.16    12.3226     0.0637    -0.0402     0.1676    12.3169     0.5283   268.1600    12.0487    -0.0150
  840   16.780   3661.03    14.0008     0.0592    -0.0674     0.1678    13.9743     0.4453   268.4800    13.7058    -0.0170
  841   16.800   3664.27    15.6838     0.0668    -0.0793     0.1680    15.6523     0.5026   268.8000    15.3835    -0.0160
  842   16.820   3667.51    17.3668     0.0763    -0.0911     0.1682    17.3302     0.5743   269.1200    17.0611    -0.0150
  843   16.840   3669.30    19.0514     0.0753    -0.1122     0.1684    19.0065     0.4099   269.4400    18.7371    -0.0147
  844   16.860   3670.23    21.0780     0.0673    -0.0979     0.1686    21.0369     0.3317   269.7600    20.7671    -0.0128
  845   16.880   3671.19    23.3293     0.0529    -0.1134     0.1688    23.2825     0.2383   270.0800    23.0124    -0.0122
  846   16.900   3672.18    25.7627     0.0420    -0.1267     0.1690    25.7156     0.1710   270.4000    25.4452    -0.0110
  847   16.920   3673.10    28.4445     0.0373    -0.2336     0.1692    28.3590     0.1364   270.7200    28.0883    -0.0132
  848   16.940   3674.07    31.1912     0.0310    -0.2472     0.1694    31.0862     0.1010   271.0400    30.8151    -0.0136
  849   16.960   3675.02    33.6397     0.0326    -0.2307     0.1696    33.5413     0.0974   271.3600    33.2700    -0.0121
  850   16.980   3675.94    34.7199     0.0498    -0.2411     0.1698    34.6208     0.1435   271.6800    34.3491    -0.0118
  851   17.000   3676.86    34.6292     0.0685    -0.2445     0.1700    34.5268     0.1973   272.0000    34.2548    -0.0121
  852   17.020   3677.80    33.9429     0.0830    -0.2456     0.1702    33.8386     0.2428   272.3200    33.5663    -0.0125
  853   17.040   3678.70    32.1976     0.0934    -0.2372     0.1704    32.0968     0.2853   272.6400    31.8241    -0.0129
  854   17.060   3679.57    28.7360     0.1065    -0.2205     0.1706    28.6410     0.3614   272.9600    28.3681    -0.0140
  855   17.080   3680.50    24.0118     0.1122    -0.1925     0.1708    23.9262     0.4575   273.2800    23.6529    -0.0159
  856   17.100   3681.36    18.8547     0.1201    -0.1698     0.1710    18.7800     0.5626   273.6000    18.5064    -0.0189
  857   17.120   3682.25    14.3050     0.1328    -0.1415     0.1712    14.2410     0.8266   273.9200    13.9671    -0.0232
  858   17.140   3683.15    10.6108     0.1459    -0.1175     0.1714    10.5583     1.2537   274.2400    10.2841    -0.0289
  859   17.160   3684.05     6.6944     0.1314    -0.0815     0.1716     6.6526     1.8443   274.5600     6.3781    -0.0429
  860   17.180   3685.03     4.6826     0.1121    -0.0219     0.1718     4.6640     2.2998   274.8800     4.3891    -0.0493
  861   17.200   3685.99     3.7223     0.0991     0.1137     0.1720     3.7455     2.5923   275.2000     3.4703    -0.0333
  862   17.220   3686.98     3.2486     0.0926     0.1814     0.1722     3.3254     2.8063   275.5200     3.0499     0.0035
  863   17.240   3687.95     2.6145     0.0679     0.1721     0.1724     2.6853     2.5317   275.8400     2.4095    -0.0017
  864   17.260   3688.99     2.1102     0.0495     0.4085     0.1726     2.2339     2.2997   276.1600     1.9577     0.0629
  865   17.280   3689.99     1.9732     0.0302     0.6831     0.1728     2.2293     1.5182   276.4800     1.9528     0.2235
  866   17.300   3690.99     1.8878     0.0177     0.7479     0.1730     2.1983     0.9213   276.8000     1.9215     0.2949
  867   17.320   3691.95     1.7924     0.0143     0.7703     0.1732     2.1104     0.7898   277.1200     1.8333     0.3185
  868   17.340   3692.97     1.7733     0.0138     0.8334     0.1734     2.1136     0.7796   277.4400     1.8361     0.3469
  869   17.360   3693.94     1.7192     0.0138     0.8907     0.1736     2.0905     0.8006   277.7600     1.8127     0.3919
  870   17.380   3694.89     1.7163     0.0141     0.8636     0.1738     2.0805     0.8190   278.0800     1.8024     0.3847
  871   17.400   3695.89     1.6651     0.0151     0.9078     0.1740     2.0422     0.9007   278.4000     1.7638     0.4105
  872   17.420   3696.88     1.5595     0.0153     0.9460     0.1742     1.9507     0.9712   278.7200     1.6720     0.4531
  873   17.440   3697.89     1.4812     0.0157     0.9842     0.1744     1.8923     1.0558   279.0400     1.6133     0.4986
  874   17.460   3698.92     1.4684     0.0159     1.0012     0.1746     1.8867     1.0829   279.3600     1.6074     0.5110
  875   17.480   3699.89     1.4673     0.0153     1.0109     0.1748     1.8898     1.0427   279.6800     1.6101     0.5162
  876   17.500   3700.89     1.4844     0.0147     1.0230     0.1750     1.9113     0.9952   280.0000     1.6313     0.5158
  877   17.520   3701.89     1.5156     0.0158     1.0405     0.1752     1.9518     1.0509   280.3200     1.6715     0.5167
  878   17.540   3702.83     1.5997     0.0164     0.9943     0.1754     2.0256     1.0220   280.6400     1.7450     0.4806
  879   17.560   3703.82     1.5335     0.0159     0.9640     0.1756     1.9368     1.0313   280.9600     1.6558     0.4740
  880   17.580   3704.78     1.5104     0.0177     0.9838     0.1758     1.9250     1.1694   281.2800     1.6437     0.4936
  881   17.600   3705.81     1.5313     0.0169     0.9858     0.1760     1.9418     1.1129   281.6000     1.6602     0.4827
  882   17.620   3706.78     1.5809     0.0160     0.9401     0.1762     1.9860     1.0104   281.9200     1.7040     0.4626
  883   17.640   3707.78     1.5148     0.0138     0.8117     0.1764     1.8705     0.9048   282.2400     1.5883     0.4221
  884   17.660   3708.79     1.4540     0.0148     0.8204     0.1766     1.7904     1.0085   282.5600     1.5078     0.4142
  885   17.680   3709.76     1.3933     0.0225     0.8570     0.1768     1.7378     1.6090   282.8800     1.4549     0.4422
  886   17.700   3710.71     1.3701     0.0307     0.9292     0.1770     1.7537     2.2446   283.2000     1.4705     0.5008
  887   17.720   3711.70     1.5361     0.0321     0.9684     0.1772     1.9382     2.1127   283.5200     1.6547     0.4716
  888   17.740   3712.68     1.7421     0.0330     0.9007     0.1774     2.1456     1.9018   283.8400     1.8618     0.4208
  889   17.760   3713.68     1.9858     0.0370     0.8306     0.1776     2.3385     1.8977   284.1600     2.0543     0.3223
  890   17.780   3714.72     2.9144     0.0426     0.8350     0.1778     3.2582     1.6099   284.4800     2.9737     0.2155
  891   17.800   3715.72     5.2697     0.0515     0.6841     0.1780     5.5885     1.1577   284.8000     5.3037     0.1097
  892   17.820   3716.72     8.9530     0.0602     0.2623     0.1782     9.1343     0.7962   285.1200     8.8492     0.0291
  893   17.840   3717.71    11.5333     0.0680     0.0930     0.1784    11.5808     0.6408   285.4400    11.2953    -0.0058
  894   17.860   3718.69    13.1131     0.0782     0.0668     0.1786    13.1465     0.6271   285.7600    12.8608    -0.0077
  895   17.880   3719.65    13.8715     0.0869     0.0446     0.1788    13.8949     0.6334   286.0800    13.6088    -0.0090
  896   17.900   3720.57    14.4642     0.1033     0.0252     0.1790    14.4761     0.7153   286.4000    14.1897    -0.0106
  897   17.920   3721.53    14.5369     0.1179     0.0343     0.1792    14.5496     0.8097   286.7200    14.2629    -0.0104
  898   17.940   3722.44    14.1636     0.1221     0.0434     0.1794    14.1800     0.8596   287.0400    13.8930    -0.0101
  899   17.960   3723.33    13.5663     0.1207     0.0660     0.1796    13.5936     0.8883   287.3600    13.3062    -0.0086
  900   17.980   3724.24    13.1294     0.1151     0.0870     0.1798    13.1615     0.8561   287.6800    12.8738    -0.0080
  901   18.000   3725.14    13.1456     0.1053     0.1271     0.1800    13.1915     0.7742   288.0000    12.9035    -0.0055
  902   18.020   3726.05    13.7707     0.0955     0.1408     0.1802    13.8368     0.6922   288.3200    13.5485    -0.0017
  903   18.040   3726.99    14.7240     0.0832    -0.0341     0.1804    14.7343     0.5810   288.6400    14.4457    -0.0107
  904   18.060   3727.94    15.3057     0.0765    -0.1273     0.1806    15.2655     0.5064   288.9600    14.9765    -0.0184
  905   18.080   3729.52    15.5169     0.0769    -0.1545     0.1808    15.4442     0.4969   289.2800    15.1549    -0.0233
  906   18.100   3734.16    15.2750     0.0812    -0.1004     0.1810    15.2249     0.5218   289.6000    14.9353    -0.0200
  907   18.120   3738.80    15.0330     0.0940    -0.0464     0.1812    15.0057     0.6041   289.9200    14.7158    -0.0166
  908   18.140   3743.26    14.7742     0.0979    -0.0222     0.1814    14.7681     0.6592   290.2400    14.4779    -0.0135
  909   18.160   3744.17    14.1631     0.1020    -0.0212     0.1816    14.1548     0.7195   290.5600    13.8643    -0.0145
  910   18.180   3745.03    13.3257     0.1066    -0.0155     0.1818    13.3176     0.7764   290.8800    13.0267    -0.0154
  911   18.200   3745.96    12.2103     0.1167     0.0067     0.1820    12.2095     0.9160   291.2000    11.9183    -0.0154
  912   18.220   3746.88    10.7625     0.1296     0.0146     0.1822    10.7672     1.1646   291.5200    10.4757    -0.0163
  913   18.240   3747.79     9.3361     0.1339     0.0140     0.1824     9.3420     1.3870   291.8400     9.0502    -0.0186
  914   18.260   3748.76     7.5382     0.1300     0.0298     0.1826     7.5496     1.6735   292.1600     7.2575    -0.0214
  915   18.280   3749.77     6.1706     0.1180     0.0613     0.1828     6.1899     1.8602   292.4800     5.8974    -0.0232
  916   18.300   3750.75     5.6549     0.1041     0.1794     0.1830     5.7174     1.8232   292.8000     5.4246    -0.0063
  917   18.320   3751.68     5.6017     0.0978     0.1871     0.1832     5.6789     1.7538   293.1200     5.3858     0.0001
  918   18.340   3752.72     5.9327     0.0885     0.1322     0.1834     5.9876     1.5163   293.4400     5.6942    -0.0092
  919   18.360   3753.74     7.1147     0.0712     0.0566     0.1836     7.1514     1.1018   293.7600     6.8577    -0.0140
  920   18.380   3754.75     8.4033     0.0577    -0.0141     0.1838     8.4014     0.7307   294.0800     8.1074    -0.0232
  921   18.400   3755.70     9.2960     0.0527    -0.0230     0.1840     9.2858     0.5941   294.4000     8.9914    -0.0232
  922   18.420   3756.65     9.8241     0.0580    -0.0079     0.1842     9.8185     0.6070   294.7200     9.5238    -0.0207
  923   18.440   3757.60     9.9473     0.0656    -0.0283     0.1844     9.9386     0.6952   295.0400     9.6435    -0.0213
  924   18.460   3758.51     9.4235     0.0732    -0.0362     0.1846     9.4088     0.7833   295.3600     9.1134    -0.0241
  925   18.480   3759.41     9.2100     0.0744    -0.0284     0.1848     9.1959     0.8080   295.6800     8.9002    -0.0245
  926   18.500   3760.33     9.3169     0.0712     0.0130     0.1850     9.3163     0.7696   296.0000     9.0203    -0.0207
  927   18.520   3761.96     9.8244     0.0661     0.0282     0.1852     9.8378     0.6753   296.3200     9.5415    -0.0160
  928   18.540   3777.20    10.1322     0.0629     0.0170     0.1854    10.1410     0.6415   296.6400     9.8443    -0.0167
  929   18.560   3792.44    10.4401     0.0736     0.0057     0.1856    10.4441     0.7501   296.9600    10.1472    -0.0173
  930   18.580   3803.93    10.6742     0.0810    -0.0128     0.1858    10.6719     0.7735   297.2800    10.3747    -0.0184
  931   18.600   3804.85    10.2843     0.0988    -0.0230     0.1860    10.2771     0.9404   297.6000     9.9795    -0.0204
  932   18.620   3805.83     9.0632     0.1080    -0.0451     0.1862     9.0444     1.1351   297.9200     8.7464    -0.0265
  933   18.640   3806.75     7.6500     0.1059    -0.0261     0.1864     7.6354     1.3275   298.2400     7.3371    -0.0301
  934   18.660   3807.73     6.8619     0.0995     0.0202     0.1866     6.8619     1.4245   298.5600     6.5634    -0.0284
  935   18.680   3808.68     7.2230     0.0941     0.1560     0.1868     7.2670     1.3344   298.8800     6.9681    -0.0118
  936   18.700   3809.67     8.1805     0.0877     0.1694     0.1870     8.2571     1.1015   299.2000     7.9579    -0.0006
  937   18.720   3810.63     8.6883     0.0866     0.0469     0.1872     8.7194     1.0005   299.5200     8.4199    -0.0134
  938   18.740   3811.60     8.6726     0.0853     0.0285     0.1874     8.6895     0.9845   299.8400     8.3896    -0.0176
  939   18.760   3812.64     8.4817     0.0908     0.0227     0.1876     8.4913     1.0663   300.1600     8.1912    -0.0201
  940   18.780   3813.60     7.8919     0.0948     0.0097     0.1878     7.8972     1.1815   300.4800     7.5968    -0.0231
  941   18.800   3814.60     7.2022     0.0914     0.0206     0.1880     7.2060     1.2525   300.8000     6.9052    -0.0259
  942   18.820   3815.58     6.8212     0.0887     0.0621     0.1882     6.8417     1.2922   301.1200     6.5406    -0.0213
  943   18.840   3816.61     6.8144     0.0853     0.0939     0.1884     6.8526     1.2541   301.4400     6.5512    -0.0149
  944   18.860   3817.58     7.1834     0.0823     0.0543     0.1886     7.2127     1.1551   301.7600     6.9110    -0.0172
  945   18.880   3818.55     6.9734     0.0768    -0.0340     0.1888     6.9709     1.0940   302.0800     6.6689    -0.0293
  946   18.900   3819.54     6.6888     0.0609    -0.0324     0.1890     6.6720     0.9044   302.4000     6.3696    -0.0359
  947   18.920   3820.49     6.4154     0.0465    -0.0217     0.1892     6.4056     0.7216   302.7200     6.1029    -0.0348
  948   18.940   3821.49     6.2164     0.0524    -0.0260     0.1894     6.2070     0.8365   303.0400     5.9040    -0.0359
  949   18.960   3822.50     5.7517     0.0596    -0.0401     0.1896     5.7349     1.0200   303.3600     5.4316    -0.0423
  950   18.980   3823.52     5.3824     0.0642    -0.0148     0.1898     5.3724     1.1823   303.6800     5.0687    -0.0422
  951   19.000   3824.51     5.2282     0.0525     0.0029     0.1900     5.2270     1.0008   304.0000     4.9230    -0.0392
  952   19.020   3825.49     5.2757     0.0514     0.0378     0.1902     5.2858     0.9816   304.3200     4.9815    -0.0334
  953   19.040   3826.45     5.6965     0.0532     0.0485     0.1904     5.7168     0.9561   304.6400     5.4122    -0.0263
  954   19.060   3827.42     7.0205     0.0535     0.0240     0.1906     7.0406     0.7912   304.9600     6.7357    -0.0211
  955   19.080   3828.43     8.7169     0.0552    -0.0612     0.1908     8.7028     0.6546   305.2800     8.3975    -0.0267
  956   19.100   3829.42     9.2647     0.0531    -0.1069     0.1910     9.2232     0.5698   305.6000     8.9176    -0.0325
  957   19.120   3830.41     8.4918     0.0595    -0.1266     0.1912     8.4418     0.6817   305.9200     8.1359    -0.0382
  958   19.140   3831.39     7.4625     0.0799    -0.1376     0.1914     7.4072     1.0429   306.2400     7.1009    -0.0456
  959   19.160   3832.37     6.3219     0.1024    -0.1455     0.1916     6.2618     1.5726   306.5600     5.9553    -0.0563
  960   19.180   3833.34     5.4351     0.1052    -0.1483     0.1918     5.3726     1.9017   306.8800     5.0657    -0.0673
  961   19.200   3834.30     4.8599     0.0943    -0.1325     0.1920     4.8015     1.9241   307.2000     4.4943    -0.0737
  962   19.220   3835.31     4.6917     0.0859    -0.1047     0.1922     4.6427     1.8299   307.5200     4.3352    -0.0713
  963   19.240   3836.31     5.1443     0.0769    -0.0382     0.1924     5.1205     1.5329   307.8400     4.8127    -0.0519
  964   19.260   3837.32     5.8814     0.0719    -0.0038     0.1926     5.8809     1.2544   308.1600     5.5727    -0.0348
  965   19.280   3838.34     7.0906     0.0660    -0.0033     0.1928     7.0905     0.9718   308.4800     6.7820    -0.0285
  966   19.300   3839.30     8.1816     0.0568    -0.0212     0.1930     8.1693     0.7191   308.8000     7.8605    -0.0283
  967   19.320   3840.26     9.0170     0.0460     0.0031     0.1932     9.0169     0.5216   309.1200     8.7078    -0.0222
  968   19.340   3841.27     9.1009     0.0474    -0.0015     0.1934     9.0984     0.5188   309.4400     8.7889    -0.0227
  969   19.360   3842.25     9.0886     0.0531     0.0209     0.1936     9.0972     0.5872   309.7600     8.7875    -0.0197
  970   19.380   3843.21     9.2085     0.0539     0.0215     0.1938     9.2144     0.5879   310.0800     8.9043    -0.0202
  971   19.400   3844.18     9.3828     0.0566     0.0183     0.1940     9.3928     0.6063   310.4000     9.0824    -0.0187
  972   19.420   3845.13     9.1787     0.0633     0.0065     0.1942     9.1819     0.6854   310.7200     8.8712    -0.0211
  973   19.440   3846.08     9.0250     0.0701     0.0129     0.1944     9.0278     0.7729   311.0400     8.7168    -0.0215
  974   19.460   3847.01     8.8986     0.0699     0.0302     0.1946     8.9098     0.7849   311.3600     8.5985    -0.0195
  975   19.480   3848.00     9.0587     0.0692     0.0554     0.1948     9.0771     0.7679   311.6800     8.7654    -0.0172
  976   19.500   3849.01     9.3996     0.0696     0.0721     0.1950     9.4279     0.7474   312.0000     9.1159    -0.0140
  977   19.520   3850.03     9.7582     0.0731     0.0831     0.1952     9.7920     0.7529   312.3200     9.4797    -0.0121
  978   19.540   3850.97     9.7940     0.0784     0.0572     0.1954     9.8236     0.7994   312.6400     9.5109    -0.0132
  979   19.560   3851.97     9.5838     0.0817     0.0155     0.1956     9.5977     0.8453   312.9600     9.2848    -0.0175
  980   19.580   3852.95     9.0771     0.0873    -0.0140     0.1958     9.0743     0.9478   313.2800     8.7611    -0.0231
  981   19.600   3853.91     8.7115     0.0946    -0.0290     0.1960     8.7004     1.0758   313.6000     8.3868    -0.0265
  982   19.620   3854.91     8.4483     0.0952    -0.0190     0.1962     8.4360     1.1217   313.9200     8.1221    -0.0278
  983   19.640   3855.89     8.7057     0.0981     0.0438     0.1964     8.7160     1.1476   314.2400     8.4018    -0.0205
  984   19.660   3856.88     9.7090     0.0935     0.0497     0.1966     9.7312     1.0218   314.5600     9.4166    -0.0153
  985   19.680   3857.87    11.4123     0.0879     0.0330     0.1968    11.4282     0.8374   314.8800    11.1133    -0.0143
  986   19.700   3858.81    13.3360     0.0856    -0.0523     0.1970    13.3322     0.7210   315.2000    13.0170    -0.0158
  987   19.720   3859.76    15.1142     0.0833    -0.1316     0.1972    15.0653     0.6045   315.5200    14.7498    -0.0213
  988   19.740   3860.68    16.1141     0.0854    -0.1482     0.1974    16.0589     0.5325   315.8400    15.7430    -0.0209
  989   19.760   3861.58    16.1062     0.1107    -0.1707     0.1976    16.0367     0.6826   316.1600    15.7206    -0.0231
  990   19.780   3862.52    15.5701     0.1424    -0.1656     0.1978    15.4944     0.8983   316.4800    15.1779    -0.0249
  991   19.800   3866.41    14.2991     0.1808    -0.0812     0.1980    14.2528     1.1687   316.8000    13.9360    -0.0214
  992   19.820   3870.81    12.9321     0.1938     0.0032     0.1982    12.9212     1.2530   317.1200    12.6041    -0.0170
  993   19.840   3874.80    11.5902     0.1923     0.0459     0.1984    11.6102     1.4746   317.4400    11.2928    -0.0134
  994   19.860   3875.79    10.2681     0.1803     0.0666     0.1986    10.2919     1.6815   317.7600     9.9742    -0.0142
  995   19.880   3876.75     8.8277     0.1476     0.0954     0.1988     8.8633     1.5993   318.0800     8.5452    -0.0133
  996   19.900   3877.71     7.5233     0.1249     0.1979     0.1990     7.5929     1.5805   318.4000     7.2745    -0.0046
  997   19.920   3878.66     9.9931     0.1025     0.2202     0.1992    10.0898     1.1368   318.7200     9.7711     0.0032
  998   19.940   3879.62    15.6633     0.0930     0.2060     0.1994    15.7537     0.7072   319.0400    15.4346     0.0010
  999   19.960   3880.59    22.7435     0.0894     0.0854     0.1996    22.8062     0.4365   319.3600    22.4868    -0.0022
 1000   19.980   3881.56    27.0021     0.0833    -0.0705     0.1998    26.9898     0.3238   319.6800    26.6701    -0.0086
 1001   20.000   3882.50    29.8419     0.0853    -0.1017     0.2000    29.7982     0.2969   320.0000    29.4782    -0.0103
 1002   20.020   3883.48    32.9741     0.0838    -0.0711     0.2002    32.9412     0.2669   320.3200    32.6209    -0.0085
 1003   20.040   3884.43    35.1458     0.1003    -0.0379     0.2004    35.1227     0.2914   320.6400    34.8020    -0.0073
 1004   20.060   3885.37    35.5615     0.1151    -0.0156     0.2006    35.5512     0.3242   320.9600    35.2303    -0.0064
 1005   20.080   3886.30    35.4031     0.1192     0.0240     0.2008    35.4064     0.3353   321.2800    35.0852    -0.0055
 1006   20.100   3887.23    34.7030     0.1124     0.0588     0.2010    34.7206     0.3201   321.6000    34.3990    -0.0046
 1007   20.120   3888.15    34.0233     0.1089     0.0851     0.2012    34.0524     0.3167   321.9200    33.7304    -0.0039
 1008   20.140   3889.10    32.7286     0.1097     0.1275     0.2014    32.7779     0.3296   322.2400    32.4557    -0.0026
 1009   20.160   3890.06    31.2027     0.1201     0.1310     0.2016    31.2549     0.3783   322.5600    30.9324    -0.0025
 1010   20.180   3891.02    29.8366     0.1315     0.1547     0.2018    29.8994     0.4344   322.8800    29.5766    -0.0018
 1011   20.200   3891.93    28.8964     0.1317     0.1752     0.2020    28.9690     0.4517   323.2000    28.6458    -0.0010
 1012   20.220   3892.86    29.0486     0.1179     0.1910     0.2022    29.1256     0.4092   323.5200    28.8021    -0.0007
 1013   20.240   3893.85    30.8373     0.0995     0.1934     0.2024    30.9154     0.3315   323.8400    30.5916    -0.0005
 1014   20.260   3894.82    33.0959     0.0847     0.1750     0.2026    33.1770     0.2635   324.1600    32.8529    -0.0003
 1015   20.280   3895.85    35.5553     0.0661    -0.0193     0.2028    35.5828     0.1920   324.4800    35.2584    -0.0039
 1016   20.300   3896.79    36.5064     0.0453    -0.1240     0.2030    36.4603     0.1250   324.8000    36.1355    -0.0087
 1017   20.320   3897.73    35.9980     0.0313    -0.1395     0.2032    35.9386     0.0860   325.1200    35.6135    -0.0097
 1018   20.340   3898.62    34.8705     0.0290    -0.1355     0.2034    34.8132     0.0819   325.4400    34.4877    -0.0099
 1019   20.360   3899.57    33.4108     0.0420    -0.1288     0.2036    33.3585     0.1234   325.7600    33.0327    -0.0099
 1020   20.380   3900.49    31.7760     0.0531    -0.1523     0.2038    31.7147     0.1642   326.0800    31.3886    -0.0111
 1021   20.400   3901.44    30.3395     0.0630    -0.1555     0.2040    30.2726     0.2052   326.4000    29.9462    -0.0121
 1022   20.420   3902.40    29.9640     0.0764    -0.1437     0.2042    29.9023     0.2522   326.7200    29.5756    -0.0119
 1023   20.440   3903.36    30.1112     0.0903    -0.0979     0.2044    30.0630     0.2999   327.0400    29.7359    -0.0107
 1024   20.460   3904.32    30.3026     0.0915    -0.0768     0.2046    30.2661     0.3030   327.3600    29.9387    -0.0097
 1025   20.480   3905.28    30.8389     0.0932    -0.0237     0.2048    30.8203     0.3051   327.6800    30.4926    -0.0082
 1026   20.500   3906.21    32.4263     0.0846     0.0257     0.2050    32.4319     0.2664   328.0000    32.1039    -0.0060
 1027   20.520   3915.70    33.4461     0.0789     0.0514     0.2052    33.4643     0.2382   328.3200    33.1360    -0.0049
 1028   20.540   3934.57    34.1446     0.0746     0.0751     0.2054    34.1728     0.2252   328.6400    33.8441    -0.0041
 1029   20.560   3945.57    34.8359     0.0753     0.0504     0.2056    34.8593     0.2163   328.9600    34.5304    -0.0043
 1030   20.580   3946.51    34.5070     0.0794     0.0743     0.2058    34.5359     0.2299   329.2800    34.2066    -0.0040
 1031   20.600   3947.46    33.6713     0.0866     0.0872     0.2060    33.7046     0.2534   329.6000    33.3750    -0.0038
 1032   20.620   3948.40    32.2774     0.0857     0.1123     0.2062    32.3219     0.2601   329.9200    31.9920    -0.0031
 1033   20.640   3949.29    30.3660     0.0975     0.1143     0.2064    30.4087     0.3121   330.2400    30.0785    -0.0035
 1034   20.660   3950.24    27.9590     0.1131     0.1160     0.2066    28.0077     0.3923   330.5600    27.6771    -0.0033
 1035   20.680   3951.15    25.9574     0.1065     0.1396     0.2068    26.0110     0.4008   330.8800    25.6801    -0.0031
 1036   20.700   3952.11    24.6876     0.0971     0.1486     0.2070    24.7489     0.3906   331.2000    24.4177    -0.0025
 1037   20.720   3953.09    25.5366     0.0914     0.1791     0.2072    25.6061     0.3661   331.5200    25.2745    -0.0017
 1038   20.740   3954.05    27.4937     0.0889     0.1998     0.2074    27.5767     0.3298   331.8400    27.2449    -0.0004
 1039   20.760   3955.01    30.0843     0.0890     0.1850     0.2076    30.1660     0.3051   332.1600    29.8339    -0.0004
 1040   20.780   3956.00    34.0857     0.0815     0.1045     0.2078    34.1431     0.2482   332.4800    33.8106    -0.0021
 1041   20.800   3956.95    37.5977     0.0750     0.1018     0.2080    37.6349     0.2034   332.8000    37.3021    -0.0032
 1042   20.820   3957.95    39.2140     0.0783     0.0808     0.2082    39.2496     0.2017   333.1200    38.9164    -0.0032
 1043   20.840   3958.89    40.0103     0.0860     0.0604     0.2084    40.0386     0.2156   333.4400    39.7051    -0.0036
 1044   20.860   3959.88    39.8251     0.0945     0.0652     0.2086    39.8518     0.2367   333.7600    39.5180    -0.0037
 1045   20.880   3960.83    39.6313     0.1040     0.0835     0.2088    39.6609     0.2617   334.0800    39.3268    -0.0035
 1046   20.900   3961.81    39.0484     0.1151     0.1030     0.2090    39.0880     0.2932   334.4000    38.7536    -0.0030
 1047   20.920   3962.74    38.2367     0.1165     0.1419     0.2092    38.2834     0.3024   334.7200    37.9487    -0.0026
 1048   20.940   3963.69    37.6737     0.1179     0.1592     0.2094    37.7283     0.3118   335.0400    37.3933    -0.0021
 1049   20.960   3964.61    37.2459     0.1169     0.1464     0.2096    37.3088     0.3130   335.3600    36.9734    -0.0016
 1050   20.980   3965.62    36.9164     0.1194     0.1763     0.2098    36.9879     0.3225   335.6800    36.6522    -0.0011
 1051   21.000   3966.61    36.9397     0.1234     0.1725     0.2100    37.0111     0.3346   336.0000    36.6751    -0.0011
 1052   21.020   3967.54    37.3072     0.1251     0.1815     0.2102    37.3823     0.3372   336.3200    37.0459    -0.0009
 1053   21.040   3968.49    38.0490     0.1289     0.1858     0.2104    38.1284     0.3409   336.6400    37.7918    -0.0006
 1054   21.060   3969.45    38.5365     0.1343     0.2127     0.2106    38.6182     0.3495   336.9600    38.2813    -0.0004
 1055   21.080   3970.44    38.6367     0.1395     0.1763     0.2108    38.7149     0.3612   337.2800    38.3776    -0.0006
 1056   21.100   3971.39    38.3219     0.1466     0.1642     0.2110    38.3946     0.3805   337.6000    38.0570    -0.0010
 1057   21.120   3972.37    37.7432     0.1439     0.1645     0.2112    37.8118     0.3784   337.9200    37.4738    -0.0013
 1058   21.140   3973.27    36.6877     0.1377     0.1760     0.2114    36.7550     0.3709   338.2400    36.4168    -0.0014
 1059   21.160   3974.26    35.4762     0.1366     0.1861     0.2116    35.5482     0.3803   338.5600    35.2096    -0.0011
 1060   21.180   3975.18    34.7198     0.1356     0.1897     0.2118    34.7954     0.3874   338.8800    34.4565    -0.0009
 1061   21.200   3976.10    33.8265     0.1384     0.1836     0.2120    33.9056     0.4047   339.2000    33.5664    -0.0007
 1062   21.220   3977.06    33.0862     0.1357     0.1934     0.2122    33.1674     0.4073   339.5200    32.8279    -0.0006
 1063   21.240   3978.03    32.6135     0.1263     0.1741     0.2124    32.6885     0.3853   339.8400    32.3486    -0.0010
 1064   21.260   3979.01    32.0304     0.1262     0.1831     0.2126    32.1052     0.3916   340.1600    31.7650    -0.0011
 1065   21.280   3979.94    31.0216     0.1264     0.1888     0.2128    31.1006     0.3998   340.4800    30.7601    -0.0008
 1066   21.300   3980.92    30.0179     0.1244     0.1983     0.2130    30.1005     0.4019   340.8000    29.7597    -0.0006
 1067   21.320   3981.86    30.1426     0.1223     0.1711     0.2132    30.2184     0.4040   341.1200    29.8773    -0.0011
 1068   21.340   3982.82    31.8211     0.1109     0.1464     0.2134    31.8814     0.3531   341.4400    31.5400    -0.0022
 1069   21.360   3983.76    36.0157     0.1100     0.1305     0.2136    36.0786     0.3224   341.7600    35.7368    -0.0018
 1070   21.380   3984.89    37.9153     0.1082     0.1317     0.2138    37.9695     0.2901   342.0800    37.6274    -0.0023
 1071   21.400   3991.66    38.5209     0.1118     0.1397     0.2140    38.5784     0.2977   342.4000    38.2360    -0.0020
 1072   21.420   3998.42    39.1265     0.1154     0.1478     0.2142    39.1874     0.3053   342.7200    38.8447    -0.0018
 1073   21.440   4003.49    39.7604     0.1176     0.1583     0.2144    39.8306     0.2992   343.0400    39.4876    -0.0012
 1074   21.460   4006.45    37.6899     0.1252     0.1630     0.2146    37.7664     0.3457   343.3600    37.4231    -0.0008
 1075   21.480   4007.47    39.1895     0.1344     0.1607     0.2148    39.2578     0.3423   343.6800    38.9142    -0.0013
 1076   21.500   4009.32    38.2968     0.1362     0.1701     0.2150    38.3668     0.3482   344.0000    38.0228    -0.0013
 1077   21.520   4011.33    37.2858     0.1348     0.1795     0.2152    37.3598     0.3445   344.3200    37.0155    -0.0010
 1078   21.540   4013.26    36.2297     0.1368     0.1796     0.2154    36.3069     0.3554   344.6400    35.9623    -0.0009
 1079   21.560   4014.21    34.9099     0.1326     0.1844     0.2156    34.9881     0.3739   344.9600    34.6431    -0.0008
 1080   21.580   4015.17    33.8333     0.1247     0.1804     0.2158    33.9114     0.3678   345.2800    33.5661    -0.0009
 1081   21.600   4016.10    32.4761     0.1221     0.1694     0.2160    32.5480     0.3746   345.6000    32.2024    -0.0014
 1082   21.620   4017.02    30.8931     0.1138     0.1745     0.2162    30.9656     0.3660   345.9200    30.6197    -0.0014
 1083   21.640   4017.95    28.9135     0.1130     0.1808     0.2164    28.9876     0.3903   346.2400    28.6414    -0.0014
 1084   21.660   4018.90    26.7024     0.1243     0.1796     0.2166    26.7776     0.4640   346.5600    26.4311    -0.0014
 1085   21.680   4019.82    24.5869     0.1346     0.1695     0.2168    24.6563     0.5422   346.8800    24.3094    -0.0021
 1086   21.700   4020.69    22.9232     0.1237     0.1693     0.2170    22.9940     0.5226   347.2000    22.6468    -0.0021
 1087   21.720   4021.62    21.1615     0.1193     0.1843     0.2172    21.2362     0.5487   347.5200    20.8886    -0.0019
 1088   21.740   4022.53    20.4886     0.1191     0.2118     0.2174    20.5729     0.5771   347.8400    20.2250    -0.0008
 1089   21.760   4023.49    19.6363     0.1267     0.2185     0.2176    19.7298     0.6439   348.1600    19.3816     0.0003
 1090   21.780   4024.42    17.6675     0.1459     0.1133     0.2178    17.7363     0.8145   348.4800    17.3878    -0.0032
 1091   21.800   4025.38    15.8510     0.1643     0.0845     0.2180    15.8994     1.0257   348.8000    15.5506    -0.0066
 1092   21.820   4026.28    14.1790     0.1805     0.0625     0.2182    14.2018     1.2599   349.1200    13.8527    -0.0118
 1093   21.840   4027.18    11.8035     0.1849     0.0672     0.2184    11.8340     1.5452   349.4400    11.4845    -0.0127
 1094   21.860   4028.06    10.2192     0.1933     0.1311     0.2186    10.2572     1.8815   349.7600     9.9074    -0.0129
 1095   21.880   4028.99     9.5532     0.2214     0.1947     0.2188     9.6324     2.3516   350.0800     9.2824    -0.0033
 1096   21.900   4029.89     9.4872     0.2426     0.1561     0.2190     9.5582     2.5468   350.4000     9.2078    -0.0054
 1097   21.920   4030.81     8.8155     0.2044     0.2122     0.2192     8.9079     2.2845   350.7200     8.5572     0.0001
 1098   21.940   4031.74     7.4095     0.1893     0.0398     0.2194     7.4790     2.5438   351.0400     7.1280    -0.0077
 1099   21.960   4032.67     6.0884     0.1776     0.0676     0.2196     6.0978     2.8759   351.3600     5.7464    -0.0343
 1100   21.980   4033.58     5.2256     0.1671     0.2305     0.2198     5.2947     3.1897   351.6800     4.9430    -0.0110
 1101   22.000   4034.49     4.5729     0.1627     0.4686     0.2200     4.7351     3.3797   352.0000     4.3831     0.0384
 1102   22.020   4035.37     4.1458     0.1515     0.2188     0.2202     4.3098     3.4930   352.3200     3.9575     0.0419
 1103   22.040   4036.30     4.0483     0.1403     0.4547     0.2204     4.1753     3.5757   352.6400     3.8226     0.0219
 1104   22.060   4037.23     3.5200     0.1291     0.4036     0.2206     3.7652     3.6584   352.9600     3.4122     0.1062
 1105   22.080   4038.19     3.1450     0.1073     0.2978     0.2208     3.2679     3.4041   353.2800     2.9146     0.0246
 1106   22.100   4039.20     2.7224     0.0899     0.4468     0.2210     2.8874     3.2888   353.6000     2.5338     0.0679
 1107   22.120   4041.14     2.4682     0.0772     0.6254     0.2212     2.7042     3.1120   353.9200     2.3503     0.1432
 1108   22.140   4044.10     2.4421     0.0596     0.8092     0.2214     2.7553     2.4014   354.2400     2.4011     0.2152
 1109   22.160   4047.05     2.4160     0.0572     0.9929     0.2216     2.8064     2.3066   354.5600     2.4518     0.2873
 1110   22.180   4048.79     3.1240     0.0695     0.9787     0.2218     3.5434     2.6596   354.8800     3.1885     0.2455
 1111   22.200   4049.78     4.4096     0.0685     0.7716     0.2220     4.7662     1.8116   355.2000     4.4110     0.1426
 1112   22.220   4050.75     4.9788     0.0631     0.4302     0.2222     5.2403     1.2648   355.5200     4.8848     0.0816
 1113   22.240   4051.70     5.1070     0.0828     0.3929     0.2224     5.2487     1.6906   355.8400     4.8928     0.0235
 1114   22.260   4052.66     6.9654     0.1093     0.4896     0.2226     7.1604     1.5881   356.1600     6.8042     0.0355
 1115   22.280   4053.54     9.0252     0.1575     0.4843     0.2228     9.2386     1.9298   356.4800     8.8822     0.0322
 1116   22.300   4054.45     9.7729     0.1776     0.1431     0.2230     9.8938     1.8297   356.8000     9.5370     0.0067
 1117   22.320   4055.37     9.2237     0.1736     0.0733     0.2232     9.2528     1.8289   357.1200     8.8957    -0.0173
 1118   22.340   4056.30     7.9868     0.1609     0.1558     0.2234     8.0380     1.9269   357.4400     7.6805    -0.0131
 1119   22.360   4057.24     6.5164     0.1540     0.1734     0.2236     6.5895     2.2715   357.7600     6.2317    -0.0080
 1120   22.380   4058.25     5.2655     0.1422     0.2751     0.2238     5.3721     2.4025   358.0800     5.0141     0.0060
 1121   22.400   4059.27     5.7862     0.1241     0.5195     0.2240     5.9699     1.7946   358.4000     5.6115     0.0377
 1122   22.420   4060.25     9.9533     0.1061     0.6926     0.2242    10.2178     1.1868   358.7200     9.8591     0.0411
 1123   22.440   4061.22    13.8950     0.0898     0.2429     0.2244    14.0898     0.6681   359.0400    13.7308     0.0175
 1124   22.460   4062.18    19.5844     0.0923     0.0832     0.2246    19.6399     0.4950   359.3600    19.2805    -0.0048
 1125   22.480   4063.07    21.6149     0.1421    -0.0004     0.2248    21.6161     0.6591   359.6800    21.2565    -0.0104
 1126   22.500   4074.17    20.1761     0.1837     0.0489     0.2250    20.1895     0.8454   360.0000    19.8295    -0.0095
 1127   22.520   4086.89    18.3741     0.2153     0.0982     0.2252    18.4082     0.9905   360.3200    18.0479    -0.0077
 1128   22.540   4099.22    16.5444     0.2224     0.1375     0.2254    16.5988     1.0706   360.6400    16.2382    -0.0059
 1129   22.560   4100.13    14.4800     0.2310     0.1872     0.2256    14.5475     1.5106   360.9600    14.1865    -0.0046
 1130   22.580   4101.08    14.6986     0.2270     0.3049     0.2258    14.8035     1.6048   361.2800    14.4422     0.0016
 1131   22.600   4102.05    17.0440     0.1992     0.3632     0.2260    17.1955     1.2468   361.6000    16.8339     0.0080
 1132   22.620   4102.99    19.5433     0.1669     0.2183     0.2262    19.6724     0.9061   361.9200    19.3105     0.0043
 1133   22.640   4103.92    22.4003     0.1366    -0.0676     0.2264    22.4036     0.6431   362.2400    22.0413    -0.0098
 1134   22.660   4104.84    24.5951     0.0879    -0.1238     0.2266    24.5489     0.3736   362.5600    24.1863    -0.0139
 1135   22.680   4105.82    26.2105     0.0583    -0.1148     0.2268    26.1635     0.2281   362.8800    25.8007    -0.0131
 1136   22.700   4106.79    27.5953     0.0663    -0.0925     0.2270    27.5545     0.2450   363.2000    27.1913    -0.0119
 1137   22.720   4107.76    28.7778     0.0758    -0.1025     0.2272    28.7358     0.2682   363.5200    28.3722    -0.0115
 1138   22.740   4108.67    29.5332     0.0892    -0.1223     0.2274    29.4872     0.3048   363.8400    29.1234    -0.0116
 1139   22.760   4109.59    29.5576     0.1051    -0.1572     0.2276    29.4952     0.3547   364.1600    29.1311    -0.0129
 1140   22.780   4110.51    29.0542     0.1128    -0.1683     0.2278    28.9846     0.3871   364.4800    28.6202    -0.0137
 1141   22.800   4111.44    28.6071     0.1181    -0.1695     0.2280    28.5357     0.4093   364.8000    28.1709    -0.0141
 1142   22.820   4112.43    28.1040     0.1151    -0.1549     0.2282    28.0364     0.4086   365.1200    27.6713    -0.0141
 1143   22.840   4113.34    27.8466     0.1085    -0.1318     0.2284    27.7876     0.3883   365.4400    27.4222    -0.0134
 1144   22.860   4114.27    27.6257     0.1031    -0.0949     0.2286    27.5806     0.3717   365.7600    27.2149    -0.0123
 1145   22.880   4115.22    27.4316     0.1023    -0.0579     0.2288    27.4016     0.3714   366.0800    27.0355    -0.0111
 1146   22.900   4116.09    27.4166     0.1031    -0.0207     0.2290    27.4027     0.3763   366.4000    27.0363    -0.0097
 1147   22.920   4117.06    27.4472     0.1022     0.0082     0.2292    27.4466     0.3725   366.7200    27.0799    -0.0085
 1148   22.940   4118.02    27.5346     0.0984     0.0458     0.2294    27.5480     0.3579   367.0400    27.1810    -0.0073
 1149   22.960   4118.97    27.3856     0.0945     0.0680     0.2296    27.4122     0.3433   367.3600    27.0449    -0.0061
 1150   22.980   4119.92    27.2250     0.0920     0.0985     0.2298    27.2618     0.3380   367.6800    26.8941    -0.0053
 1151   23.000   4120.85    27.6732     0.0903     0.1306     0.2300    27.7253     0.3298   368.0000    27.3573    -0.0039
 1152   23.020   4121.77    28.4834     0.0921     0.1250     0.2302    28.5380     0.3269   368.3200    28.1697    -0.0036
 1153   23.040   4122.68    28.8558     0.0946     0.1349     0.2304    28.9096     0.3295   368.6400    28.5410    -0.0036
 1154   23.060   4123.63    29.4954     0.0985     0.1502     0.2306    29.5557     0.3382   368.9600    29.1867    -0.0030
 1155   23.080   4124.59    30.8226     0.0978     0.1711     0.2308    30.8945     0.3242   369.2800    30.5252    -0.0020
 1156   23.100   4125.56    31.8204     0.0955     0.1620     0.2310    31.8882     0.3034   369.6000    31.5186    -0.0022
 1157   23.120   4126.53    32.1244     0.0950     0.1746     0.2312    32.1954     0.2970   369.9200    31.8255    -0.0019
 1158   23.140   4127.48    32.1919     0.0928     0.1406     0.2314    32.2591     0.2880   370.2400    31.8888    -0.0022
 1159   23.160   4128.38    31.7077     0.0936     0.1230     0.2316    31.7625     0.2941   370.5600    31.3920    -0.0032
 1160   23.180   4129.26    31.1450     0.0952     0.1069     0.2318    31.1905     0.3030   370.8800    30.8196    -0.0040
 1161   23.200   4130.22    30.2523     0.0990     0.1268     0.2320    30.3026     0.3229   371.2000    29.9314    -0.0037
 1162   23.220   4131.14    29.4639     0.1046     0.1412     0.2322    29.5212     0.3504   371.5200    29.1497    -0.0033
 1163   23.240   4132.14    28.5250     0.1065     0.1500     0.2324    28.5880     0.3682   371.8400    28.2162    -0.0029
 1164   23.260   4133.08    27.5492     0.1069     0.1522     0.2326    27.6122     0.3876   372.1600    27.2401    -0.0030
 1165   23.280   4134.02    26.4560     0.1035     0.1494     0.2328    26.5194     0.3859   372.4800    26.1469    -0.0031
 1166   23.300   4134.96    25.2243     0.0997     0.1528     0.2330    25.2887     0.3904   372.8000    24.9159    -0.0032
 1167   23.320   4135.89    24.0350     0.0935     0.1609     0.2332    24.1013     0.3860   373.1200    23.7282    -0.0032
 1168   23.340   4136.76    23.1211     0.0879     0.1658     0.2334    23.1909     0.3788   373.4400    22.8174    -0.0029
 1169   23.360   4137.68    22.1668     0.0875     0.1692     0.2336    22.2381     0.3858   373.7600    21.8643    -0.0029
 1170   23.380   4138.60    20.9148     0.0857     0.1678     0.2338    20.9843     0.4092   374.0800    20.6102    -0.0033
 1171   23.400   4139.56    19.5689     0.0881     0.1694     0.2340    19.6403     0.4494   374.4000    19.2659    -0.0033
 1172   23.420   4140.48    18.3024     0.1066     0.1705     0.2342    18.3738     0.5815   374.7200    17.9991    -0.0036
 1173   23.440   4141.39    16.8347     0.1211     0.1759     0.2344    16.9064     0.7093   375.0400    16.5314    -0.0038
 1174   23.460   4142.30    15.2137     0.1073     0.1884     0.2346    15.2921     0.6681   375.3600    14.9168    -0.0032
 1175   23.480   4143.21    14.1193     0.0935     0.1684     0.2348    14.1923     0.6269   375.6800    13.8166    -0.0044
 1176   23.500   4144.14    14.4977     0.0780     0.1421     0.2350    14.5654     0.5391   376.0000    14.1895    -0.0052
 1177   23.520   4145.09    15.2561     0.0631     0.0271     0.2352    15.2875     0.4142   376.3200    14.9112    -0.0107
 1178   23.540   4145.98    16.2221     0.0530    -0.1065     0.2354    16.1942     0.3283   376.6400    15.8176    -0.0190
 1179   23.560   4149.98    16.0532     0.0556    -0.1143     0.2356    16.0064     0.3364   376.9600    15.6294    -0.0223
 1180   23.580   4155.19    15.3879     0.0602    -0.1222     0.2358    15.3377     0.3642   377.2800    14.9604    -0.0239
 1181   23.600   4160.25    14.6546     0.0755    -0.1560     0.2360    14.6002     0.5130   377.6000    14.2226    -0.0257
 1182   23.620   4161.21    11.8181     0.0997    -0.1817     0.2362    11.7440     0.7462   377.9200    11.3661    -0.0363
 1183   23.640   4162.11     8.8512     0.0984    -0.1932     0.2364     8.7710     0.9841   378.2400     8.3928    -0.0513
 1184   23.660   4163.00     6.2988     0.1021    -0.1860     0.2366     6.2186     1.4283   378.5600     5.8401    -0.0743
 1185   23.680   4163.89     4.4049     0.0844    -0.1480     0.2368     4.3360     1.8414   378.8800     3.9571    -0.1016
 1186   23.700   4164.88     3.3998     0.0663    -0.0703     0.2370     3.3593     1.8942   379.2000     2.9801    -0.1119
 1187   23.720   4165.83     2.6454     0.0480     0.0023     0.2372     2.6350     1.7639   379.5200     2.2555    -0.1160
 1188   23.740   4166.80     2.1286     0.0261     0.1253     0.2374     2.1608     1.1964   379.8400     1.7810    -0.0900
 1189   23.760   4167.82     1.9120     0.0194     0.2524     0.2376     2.0026     0.9956   380.1600     1.6224    -0.0133
 1190   23.780   4168.81     1.7647     0.0163     0.3632     0.2378     1.9000     0.9024   380.4800     1.5195     0.0558
 1191   23.800   4169.82     1.6364     0.0175     0.4810     0.2380     1.8220     1.0549   380.8000     1.4412     0.1414
 1192   23.820   4170.81     1.6348     0.0167     0.5531     0.2382     1.8598     1.0275   381.1200     1.4787     0.2013
 1193   23.840   4171.81     1.7524     0.0178     0.5951     0.2384     1.9969     1.0356   381.4400     1.6154     0.2127
 1194   23.860   4172.74     1.9540     0.0162     0.6053     0.2386     2.2067     0.8427   381.7600     1.8249     0.1990
 1195   23.880   4173.69     2.0088     0.0153     0.6219     0.2388     2.2668     0.7602   382.0800     1.8847     0.1993
 1196   23.900   4174.75     1.9762     0.0138     0.6612     0.2390     2.2449     0.6921   382.4000     1.8625     0.2152
 1197   23.920   4175.71     1.7577     0.0193     0.7361     0.2392     2.0530     1.0627   382.7200     1.6702     0.2778
 1198   23.940   4176.68     1.6488     0.0250     0.8429     0.2394     1.9916     1.5357   383.0400     1.6086     0.3586
 1199   23.960   4177.67     2.0836     0.0261     0.8010     0.2396     2.4389     1.3482   383.3600     2.0555     0.2957
 1200   23.980   4178.68     2.5784     0.0253     0.6214     0.2398     2.8672     1.0154   383.6800     2.4835     0.1806
 1201   24.000   4179.65     2.4160     0.0252     0.6437     0.2400     2.6703     1.0183   384.0000     2.2863     0.1599
 1202   24.020   4180.62     2.0145     0.0254     0.7476     0.2402     2.3123     1.2099   384.3200     1.9280     0.2442
 1203   24.040   4181.56     1.6952     0.0267     0.8443     0.2404     2.0360     1.5449   384.6400     1.6514     0.3463
 1204   24.060   4182.56     1.5166     0.0257     0.8973     0.2406     1.8906     1.6611   384.9600     1.5056     0.4318
 1205   24.080   4183.51     1.4966     0.0238     0.9169     0.2408     1.8773     1.5827   385.2800     1.4920     0.4461
 1206   24.100   4184.54     1.5074     0.0247     0.9349     0.2410     1.9009     1.6335   385.6000     1.5153     0.4592
 1207   24.120   4185.53     1.5273     0.0256     0.9202     0.2412     1.9152     1.6843   385.9200     1.5293     0.4462
 1208   24.140   4186.48     1.5385     0.0283     0.9339     0.2414     1.9263     1.8390   386.2400     1.5401     0.4429
 1209   24.160   4187.47     1.5447     0.0293     0.9500     0.2416     1.9429     1.9052   386.5600     1.5563     0.4539
 1210   24.180   4198.00     1.6009     0.0298     0.9095     0.2418     1.9919     1.8922   386.8800     1.6050     0.4296
 1211   24.200   4242.74     1.6480     0.0274     0.8478     0.2420     2.0130     1.7207   387.2000     1.6258     0.3868
 1212   24.220   4287.49     1.6951     0.0279     0.7862     0.2422     2.0342     1.7551   387.5200     1.6467     0.3439
 1213   24.240   4313.16     1.6343     0.0275     0.8411     0.2424     1.9764     1.6100   387.8400     1.5886     0.3605
 1214   24.260   4314.14     1.5090     0.0398     0.9107     0.2426     1.8835     2.5566   388.1600     1.4953     0.4340
 1215   24.280   4315.13     1.5225     0.0507     0.9177     0.2428     1.9089     3.3710   388.4800     1.5204     0.4454
 1216   24.300   4316.13     1.5583     0.0501     0.9122     0.2430     1.9401     3.2429   388.8000     1.5513     0.4293
 1217   24.320   4317.09     1.6153     0.0474     0.9142     0.2432     1.9987     3.0012   389.1200     1.6096     0.4161
 1218   24.340   4318.12     1.7235     0.0400     0.8526     0.2434     2.1033     2.4064   389.4400     1.7139     0.3859
 1219   24.360   5300.35     1.9997     0.0313     0.5930     0.2436     2.2864     2.0664   389.7600     1.8966     0.2440
 1220   24.380   6755.86     2.2927     0.0269     0.3688     0.2438     2.4703     1.5251   390.0800     2.0802     0.0920
 1221   24.400   7137.11     2.0498     0.0275     0.5238     0.2440     2.2484     1.3191   390.4000     1.8580     0.1243
 1222   24.420   7138.05     1.7281     0.0300     0.6667     0.2442     1.9865     1.7068   390.7200     1.5958     0.2327
 1223   24.440   7138.98     1.6164     0.0271     0.7631     0.2444     1.9320     1.6679   391.0400     1.5410     0.3291
 1224   24.460   7139.89     1.7199     0.0251     0.7578     0.2446     2.0376     1.4690   391.3600     1.6463     0.3110
 1225   24.480   7140.81     1.7722     0.0230     0.7579     0.2448     2.0902     1.3108   391.6800     1.6985     0.3018
 1226   24.500   7141.67     1.7913     0.0215     0.7804     0.2450     2.1158     1.1956   392.0000     1.7238     0.3061
 1227   24.520   7142.58     1.7398     0.0212     0.8073     0.2452     2.0723     1.2071   392.3200     1.6799     0.3253
 1228   24.540   7143.46     1.6243     0.0229     0.8721     0.2454     1.9833     1.4034   392.6400     1.5907     0.3830
 1229   24.560   7144.35     1.5141     0.0234     0.9204     0.2456     1.8939     1.5351   392.9600     1.5009     0.4390
 1230   24.580   7145.30     1.4164     0.0244     0.9673     0.2458     1.8173     1.7140   393.2800     1.4240     0.4978
 1231   24.600   7146.21     1.4626     0.0245     0.9394     0.2460     1.8642     1.6949   393.6000     1.4706     0.4834
 1232   24.620   7147.12     1.5783     0.0232     0.8934     0.2462     1.9633     1.4821   393.9200     1.5693     0.4273
 1233   24.640   7148.04     1.6413     0.0244     0.8505     0.2464     2.0045     1.4881   394.2400     1.6102     0.3839
 1234   24.660   7148.94     1.6407     0.0259     0.8537     0.2466     2.0022     1.5747   394.5600     1.6076     0.3820
 1235   24.680   7149.81     1.7081     0.0238     0.8664     0.2468     2.0703     1.3934   394.8800     1.6755     0.3674
 1236   24.700   7150.71     1.8140     0.0215     0.8369     0.2470     2.1716     1.1918   395.2000     1.7764     0.3405
 1237   24.720   7151.64     1.8890     0.0227     0.7761     0.2472     2.2246     1.1868   395.5200     1.8291     0.3017
 1238   24.740   7152.58     1.7044     0.0227     0.7468     0.2474     2.0144     1.3065   395.8400     1.6186     0.3036
 1239   24.760   7153.48     1.5499     0.0219     0.8089     0.2476     1.8754     1.4052   396.1600     1.4792     0.3565
 1240   24.780   7154.40     1.4619     0.0200     0.8683     0.2478     1.8203     1.3615   396.4800     1.4238     0.4253
 1241   24.800   7155.29     1.4469     0.0193     0.8996     0.2480     1.8225     1.3314   396.8000     1.4257     0.4533
 1242   24.820   7156.20     1.4800     0.0207     0.9097     0.2482     1.8595     1.3976   397.1200     1.4624     0.4482
 1243   24.840   7157.06     1.4885     0.0209     0.9047     0.2484     1.8668     1.4053   397.4400     1.4693     0.4440
 1244   24.860   7157.98     1.4284     0.0215     0.9120     0.2486     1.8096     1.4893   397.7600     1.4118     0.4668
 1245   24.880   7158.93     1.4586     0.0192     0.8998     0.2488     1.8434     1.3191   398.0800     1.4454     0.4618
 1246   24.900   7159.85     1.5470     0.0198     0.8709     0.2490     1.9176     1.2849   398.4000     1.5192     0.4170
 1247   24.920   7160.77     1.5681     0.0215     0.8715     0.2492     1.9307     1.3635   398.7200     1.5320     0.4010
 1248   24.940   7161.74     1.5614     0.0215     0.8805     0.2494     1.9302     1.3794   399.0400     1.5312     0.4106
 1249   24.960   7162.83     1.5283     0.0213     0.8745     0.2496     1.8979     1.3865   399.3600     1.4985     0.4206
 1250   24.980   7163.95     1.5741     0.0222     0.8641     0.2498     1.9408     1.4174   399.6800     1.5411     0.4044
 1251   25.000   7165.04     1.6654     0.0237     0.8496     0.2500     2.0255     1.4227   400.0000     1.6255     0.3737
 1252   25.020   7166.17     1.6583     0.0231     0.8669     0.2502     2.0194     1.3896   400.3200     1.6191     0.3766
 1253   25.040   7167.30     1.6606     0.0259     0.8525     0.2504     2.0245     1.5713   400.6400     1.6239     0.3794
 1254   25.060   7168.38     1.7130     0.0264     0.8296     0.2506     2.0611     1.5685   400.9600     1.6601     0.3482
 1255   25.080   7169.49     1.7204     0.0230     0.8201     0.2508     2.0701     1.3354   401.2800     1.6689     0.3487
 1256   25.100   7170.57     1.7893     0.0207     0.7815     0.2510     2.1208     1.1688   401.6000     1.7192     0.3131
 1257   25.120   7171.62     1.7853     0.0205     0.7745     0.2512     2.1109     1.1370   401.9200     1.7090     0.3066
 1258   25.140   7172.58     1.6765     0.0218     0.7840     0.2514     2.0032     1.2711   402.2400     1.6009     0.3288
 1259   25.160   7173.54     1.6182     0.0225     0.8195     0.2516     1.9580     1.3889   402.5600     1.5554     0.3584
 1260   25.180   7174.42     1.6938     0.0206     0.8103     0.2518     2.0352     1.2437   402.8800     1.6323     0.3437
 1261   25.200   7175.41     1.7440     0.0190     0.7864     0.2520     2.0798     1.1013   403.2000     1.6766     0.3265
 1262   25.220   7176.38     1.6933     0.0206     0.7687     0.2522     2.0188     1.1849   403.5200     1.6153     0.3237
 1263   25.240   7177.39     1.5571     0.0217     0.7712     0.2524     1.8777     1.3443   403.8400     1.4738     0.3467
 1264   25.260   7178.38     1.4365     0.0229     0.8012     0.2526     1.7661     1.5568   404.1600     1.3619     0.3907
 1265   25.280   7179.31     1.4455     0.0259     0.8357     0.2528     1.7930     1.8305   404.4800     1.3885     0.4138
 1266   25.300   7180.25     1.6067     0.0347     0.8546     0.2530     1.9645     2.2649   404.8000     1.5597     0.3844
 1267   25.320   7181.20     1.8955     0.0389     0.8124     0.2532     2.2437     2.1908   405.1200     1.8386     0.3141
 1268   25.340   7182.13     2.2221     0.0570     0.7884     0.2534     2.5531     2.7194   405.4400     2.1476     0.2495
 1269   25.360   7183.07     2.6877     0.0733     0.6336     0.2536     2.9833     2.9070   405.7600     2.5776     0.1754
 1270   25.380   7184.09     3.3056     0.0799     0.4571     0.2538     3.5034     2.6102   406.0800     3.0973     0.0703
 1271   25.400   7185.00     3.8627     0.0914     0.4930     0.2540     4.0625     2.4729   406.4000     3.6561     0.0606
 1272   25.420   7185.94     4.0619     0.0861     0.5503     0.2542     4.2739     2.1647   406.7200     3.8672     0.0648
 1273   25.440   7186.88     4.5165     0.0888     0.5436     0.2544     4.7471     2.0758   407.0400     4.3400     0.0680
 1274   25.460   7187.83     5.3794     0.1025     0.3643     0.2546     5.5930     2.0446   407.3600     5.1856     0.0492
 1275   25.480   7188.82     6.2466     0.1226     0.1014     0.2548     6.3028     2.0739   407.6800     5.8951    -0.0203
 1276   25.500   7189.79     6.3302     0.1201     0.1087     0.2550     6.3743     1.8696   408.0000     5.9663    -0.0251
 1277   25.520   7190.74     5.7125     0.1217     0.1099     0.2552     5.7566     2.0254   408.3200     5.3483    -0.0282
 1278   25.540   7191.67     4.7856     0.1212     0.2202     0.2554     4.8607     2.3374   408.6400     4.4520    -0.0169
 1279   25.560   7192.61     4.0760     0.1245     0.3401     0.2556     4.2014     2.9036   408.9600     3.7924     0.0116
 1280   25.580   7193.53     3.5614     0.1297     0.4353     0.2558     3.7383     3.4946   409.2800     3.3290     0.0497
 1281   25.600   7194.47     3.4450     0.1239     0.5465     0.2560     3.6616     3.6177   409.6000     3.2520     0.0798
 1282   25.620   7195.46     3.8571     0.1155     0.6216     0.2562     4.1109     3.0911   409.9200     3.7010     0.0941
 1283   25.640   7196.41     3.6176     0.0992     0.4902     0.2564     3.8365     2.6751   410.2400     3.4263     0.0770
 1284   25.660   7197.35     3.1949     0.0986     0.5112     0.2566     3.4283     2.9544   410.5600     3.0178     0.0995
 1285   25.680   7198.34     2.9671     0.0928     0.6059     0.2568     3.1888     3.0987   410.8800     2.7779     0.0976
 1286   25.700   7199.27     3.2066     0.0934     0.8467     0.2570     3.5245     3.1298   411.2000     3.1133     0.1602
 1287   25.720   7200.27     4.2645     0.0773     0.9484     0.2572     4.6792     1.9878   411.5200     4.2677     0.1719
 1288   25.740   7201.23     6.0209     0.0674     0.5289     0.2574     6.3050     1.2817   411.8400     5.8932     0.0730
 1289   25.760   7202.22     7.4975     0.0649     0.1647     0.2576     7.6082     0.9181   412.1600     7.1960     0.0011
 1290   25.780   7203.14     8.1963     0.0644    -0.0203     0.2578     8.1994     0.8031   412.4800     7.7869    -0.0321
 1291   25.800   7204.10     8.5424     0.0617     0.1014     0.2580     8.5735     0.7323   412.8000     8.1607    -0.0226
 1292   25.820   7205.04     8.5611     0.0620     0.0891     0.2582     8.6060     0.7195   413.1200     8.1929    -0.0185
 1293   25.840   7206.04     8.3894     0.0684     0.0804     0.2584     8.4257     0.8096   413.4400     8.0123    -0.0215
 1294   25.860   7207.03     8.1892     0.0794     0.1022     0.2586     8.2268     0.9577   413.7600     7.8131    -0.0216
 1295   25.880   7207.96     8.0490     0.0994     0.0987     0.2588     8.0979     1.2290   414.0800     7.6838    -0.0185
 1296   25.900   7208.87     7.7520     0.1180     0.0844     0.2590     7.7921     1.4967   414.4000     7.3777    -0.0222
 1297   25.920   7209.83     7.2667     0.1328     0.0064     0.2592     7.2788     1.7719   414.7200     6.8641    -0.0337
 1298   25.940   7210.76     6.6868     0.1560     0.0044     0.2594     6.6840     2.2618   415.0400     6.2690    -0.0424
 1299   25.960   7211.69     5.9352     0.1707     0.1002     0.2596     5.9636     2.7186   415.3600     5.5482    -0.0345
 1300   25.980   7212.67     4.9342     0.1749     0.2517     0.2598     5.0097     3.3199   415.6800     4.5940    -0.0168
 1301   26.000   7213.64     4.0596     0.1734     0.4203     0.2600     4.2172     3.9785   416.0000     3.8012     0.0306
 1302   26.020   7214.58     3.7494     0.1652     0.5697     0.2602     3.9971     4.3449   416.3200     3.5807     0.0921
 1303   26.040   7215.54     3.9586     0.1464     0.3763     0.2604     4.1340     3.7654   416.6400     3.7173     0.0422
 1304   26.060   7216.50     4.0331     0.1368     0.3772     0.2606     4.1839     3.4416   416.9600     3.7670     0.0261
 1305   26.080   7217.44     4.2997     0.1272     0.3974     0.2608     4.4804     3.0310   417.2800     4.0631     0.0417
 1306   26.100   7218.39     4.6759     0.1302     0.2580     0.2610     4.8079     2.8526   417.6000     4.3903     0.0122
 1307   26.120   7219.35     4.9385     0.1289     0.0364     0.2612     4.9961     2.6425   417.9200     4.5782    -0.0270
 1308   26.140   7220.31     4.8587     0.1249    -0.0633     0.2614     4.8282     2.5031   418.2400     4.4100    -0.0758
 1309   26.160   7221.28     4.2676     0.1177    -0.0220     0.2616     4.2512     2.6344   418.5600     3.8326    -0.0786
 1310   26.180   7222.22     3.5317     0.1130     0.0787     0.2618     3.5504     3.1040   418.8800     3.1315    -0.0692
 1311   26.200   7223.17     3.0653     0.1084     0.3556     0.2620     3.1661     3.4337   419.2000     2.7469    -0.0072
 1312   26.220   7224.14     3.0105     0.1112     0.6169     0.2622     3.2424     3.8034   419.5200     2.8229     0.1022
 1313   26.240   7225.09     3.5674     0.1000     0.6820     0.2624     3.8492     2.9021   419.8400     3.4294     0.1192
 1314   26.260   7226.07     3.9927     0.1228     0.6990     0.2626     4.2664     3.0249   420.1600     3.8463     0.1011
 1315   26.280   7227.09     4.4826     0.1577     0.5039     0.2628     4.7456     3.3763   420.4800     4.3251     0.0847
 1316   26.300   7228.10     5.2186     0.1926     0.3078     0.2630     5.3712     3.7277   420.8000     4.9504     0.0205
 1317   26.320   7229.12     5.7219     0.2184     0.3020     0.2632     5.8391     3.8849   421.1200     5.4180     0.0029
 1318   26.340   7230.05     5.7440     0.2066     0.3595     0.2634     5.8841     3.5909   421.4400     5.4626     0.0128
 1319   26.360   7231.53     5.6737     0.2069     0.3211     0.2636     5.8237     3.6293   421.7600     5.4020     0.0175
 1320   26.380   7250.71     6.3633     0.1921     0.2166     0.2638     6.4694     3.3975   422.0800     6.0473     0.0017
 1321   26.400   7269.89     7.0529     0.1614     0.1121     0.2640     7.1151     2.8541   422.4000     6.6927    -0.0141
 1322   26.420   7289.07     7.7424     0.1321     0.0320     0.2642     7.7608     2.1183   422.7200     7.3380    -0.0298
 1323   26.440   7290.93     8.9676     0.1107    -0.1089     0.2644     8.9378     1.2846   423.0400     8.5148    -0.0393
 1324   26.460   7291.88    10.2087     0.1043    -0.1563     0.2646    10.1460     1.0485   423.3600     9.7227    -0.0426
 1325   26.480   7292.84    11.7721     0.0926    -0.1354     0.2648    11.7095     0.8205   423.6800    11.2858    -0.0367
 1326   26.500   7293.77    13.9434     0.1008    -0.0955     0.2650    13.8977     0.7505   424.0000    13.4737    -0.0278
 1327   26.520   7294.73    16.4362     0.1182    -0.0238     0.2652    16.4131     0.7390   424.3200    15.9888    -0.0201
 1328   26.540   7295.80    19.3522     0.1315     0.0126     0.2654    19.3537     0.6967   424.6400    18.9291    -0.0138
 1329   26.560   7296.76    21.7021     0.1444     0.0082     0.2656    21.7134     0.6785   424.9600    21.2884    -0.0112
 1330   26.580   7297.73    23.3023     0.1604    -0.0266     0.2658    23.2910     0.6939   425.2800    22.8657    -0.0128
 1331   26.600   7298.72    24.1862     0.1772    -0.0244     0.2660    24.1733     0.7357   425.6000    23.7477    -0.0125
 1332   26.620   7299.71    25.1887     0.1939     0.0365     0.2662    25.1963     0.7750   425.9200    24.7704    -0.0100
 1333   26.640   7300.69    26.3624     0.2014     0.0762     0.2664    26.3857     0.7715   426.2400    25.9595    -0.0081
 1334   26.660   7301.70    27.3069     0.2080     0.1693     0.2666    27.3608     0.7665   426.5600    26.9342    -0.0051
 1335   26.680   7302.67    27.8399     0.2174     0.2373     0.2668    27.9352     0.7824   426.8800    27.5084    -0.0014
 1336   26.700   7303.70    28.3079     0.2285     0.2309     0.2670    28.4048     0.8093   427.2000    27.9776    -0.0013
 1337   26.720   7304.69    28.8911     0.2347     0.2594     0.2672    28.9922     0.8141   427.5200    28.5647    -0.0009
 1338   26.740   7305.64    29.5352     0.2419     0.2701     0.2674    29.6430     0.8204   427.8400    29.2151    -0.0004
 1339   26.760   7306.66    29.8749     0.2548     0.2700     0.2676    29.9888     0.8533   428.1600    29.5607     0.0001
 1340   26.780   7307.66    29.9656     0.2620     0.2752     0.2678    30.0794     0.8740   428.4800    29.6509     0.0001
 1341   26.800   7308.68    30.0137     0.2652     0.2539     0.2680    30.1239     0.8840   428.8000    29.6951    -0.0002
 1342   26.820   7309.68    30.1113     0.2657     0.2568     0.2682    30.2197     0.8832   429.1200    29.7906    -0.0003
 1343   26.840   7310.65    30.2004     0.2676     0.2714     0.2684    30.3113     0.8865   429.4400    29.8819    -0.0001
 1344   26.860   7311.63    30.2633     0.2704     0.2749     0.2686    30.3762     0.8938   429.7600    29.9465     0.0000
 1345   26.880   7312.62    30.4420     0.2707     0.2635     0.2688    30.5520     0.8907   430.0800    30.1219    -0.0002
 1346   26.900   7313.60    30.7636     0.2729     0.2588     0.2690    30.8752     0.8935   430.4000    30.4448    -0.0001
 1347   26.920   7314.59    30.8914     0.2743     0.2766     0.2692    31.0073     0.8922   430.7200    30.5766     0.0002
 1348   26.940   7315.64    30.8976     0.2742     0.2759     0.2694    31.0113     0.8886   431.0400    30.5803     0.0000
 1349   26.960   7316.66    31.1683     0.2755     0.2661     0.2696    31.2758     0.8858   431.3600    30.8444    -0.0004
 1350   26.980   7317.65    31.5133     0.2733     0.2669     0.2698    31.6245     0.8696   431.6800    31.1928    -0.0002
 1351   27.000   7320.00    31.7974     0.2754     0.2639     0.2700    31.9088     0.9280   432.0000    31.4768    -0.0001
 1352   27.020   7322.80    31.8478     0.2838     0.2598     0.2702    31.9576     0.9634   432.3200    31.5252    -0.0003
 1353   27.040   7325.53    31.9057     0.2758     0.2758     0.2704    32.0145     0.8759   432.6400    31.5818    -0.0004
 1354   27.060   7326.51    32.2164     0.2758     0.2521     0.2706    32.3222     0.8568   432.9600    31.8893    -0.0006
 1355   27.080   7327.49    32.5621     0.2748     0.2793     0.2708    32.6747     0.8446   433.2800    32.2414    -0.0001
 1356   27.100   7328.48    32.8734     0.2756     0.2700     0.2710    32.9869     0.8422   433.6000    32.5533     0.0000
 1357   27.120   7330.59    32.7592     0.2826     0.2365     0.2712    32.8676     0.8576   433.9200    32.4337    -0.0004
 1358   27.140   7332.51    32.8009     0.2834     0.2573     0.2714    32.9182     0.8650   434.2400    32.4840     0.0002
 1359   27.160   7333.55    33.0029     0.2852     0.2570     0.2716    33.1180     0.8649   434.5600    32.6834     0.0001
 1360   27.180   7334.58    33.5000     0.3041     0.2748     0.2718    33.6106     0.9115   434.8800    33.1757    -0.0003
 1361   27.200   7335.54    34.2128     0.2839     0.2789     0.2720    34.3243     0.8338   435.2000    33.8891    -0.0002
 1362   27.220   7336.59    34.8211     0.2884     0.2826     0.2722    34.9352     0.8311   435.5200    34.4997     0.0000
 1363   27.240   7337.56    35.1712     0.2977     0.2611     0.2724    35.2804     0.8483   435.8400    34.8446    -0.0004
 1364   27.260   7338.61    35.7725     0.3046     0.2501     0.2726    35.8827     0.8554   436.1600    35.4465    -0.0003
 1365   27.280   7340.43    35.8950     0.3124     0.2772     0.2728    36.0106     0.9204   436.4800    35.5741     0.0001
 1366   27.300   7342.95    36.5712     0.3223     0.2651     0.2730    36.6782     0.8853   436.8000    36.2414    -0.0005
 1367   27.320   7343.96    37.1716     0.3364     0.2765     0.2732    37.2874     0.9090   437.1200    36.8503     0.0001
 1368   27.340   7344.93    37.4047     0.3416     0.2613     0.2734    37.5218     0.9157   437.4400    37.0843     0.0001
 1369   27.360   7345.95    37.4968     0.3479     0.2764     0.2736    37.6123     0.9286   437.7600    37.1746     0.0000
 1370   27.380   7347.01    37.0846     0.3498     0.2858     0.2738    37.2029     0.9374   438.0800    36.7648     0.0002
 1371   27.400   7348.06    36.3514     0.3544     0.2803     0.2740    36.4723     0.9745   438.4000    36.0339     0.0004
 1372   27.420   7349.04    35.8313     0.3542     0.2498     0.2742    35.9456     0.9883   438.7200    35.5068    -0.0001
 1373   27.440   7350.08    35.7077     0.3489     0.2636     0.2744    35.8127     0.9766   439.0400    35.3736    -0.0007
 1374   27.460   7351.11    35.3986     0.3436     0.2703     0.2746    35.5133     0.9691   439.3600    35.0739     0.0000
 1375   27.480   7352.11    34.7819     0.3464     0.2686     0.2748    34.8949     0.9943   439.6800    34.4552    -0.0002
 1376   27.500   7353.12    34.0101     0.3424     0.2787     0.2750    34.1306     1.0053   440.0000    33.6906     0.0004
 1377   27.520   7354.12    33.3450     0.3359     0.2768     0.2752    33.4555     1.0046   440.3200    33.0152    -0.0004
 1378   27.540   7355.11    32.7834     0.3276     0.2731     0.2754    32.9028     0.9926   440.6400    32.4622     0.0003
 1379   27.560   7356.13    32.3204     0.3203     0.2779     0.2756    32.4342     0.9870   440.9600    31.9933    -0.0001
 1380   27.580   7357.15    31.9948     0.3187     0.2563     0.2758    32.1038     0.9923   441.2800    31.6625    -0.0005
 1381   27.600   7358.20    31.6903     0.3126     0.2803     0.2760    31.8079     0.9820   441.6000    31.3663     0.0001
 1382   27.620   7359.18    31.3119     0.3060     0.2613     0.2762    31.4216     0.9721   441.9200    30.9797    -0.0005
 1383   27.640   7361.39    30.8883     0.3040     0.2743     0.2764    31.0025     0.9877   442.2400    30.5602    -0.0001
 1384   27.660   7364.99    30.5677     0.3013     0.2815     0.2766    30.6849     0.9790   442.5600    30.2423     0.0001
 1385   27.680   7367.38    30.3062     0.3026     0.2637     0.2768    30.4145     0.9980   442.8800    29.9716    -0.0006
 1386   27.700   7368.38    30.3650     0.3028     0.2745     0.2770    30.4813     0.9975   443.2000    30.0381     0.0000
 1387   27.720   7369.35    30.4683     0.3016     0.2752     0.2772    30.5820     0.9901   443.5200    30.1385    -0.0002
 1388   27.740   7370.35    30.5422     0.3028     0.2808     0.2774    30.6593     0.9913   443.8400    30.2155     0.0000
 1389   27.760   7371.38    30.4052     0.3036     0.2763     0.2776    30.5201     0.9981   444.1600    30.0759    -0.0001
 1390   27.780   7372.41    30.2705     0.3018     0.2613     0.2778    30.3829     0.9967   444.4800    29.9384    -0.0003
 1391   27.800   7373.40    30.3817     0.3003     0.2728     0.2780    30.4980     0.9890   444.8000    30.0532     0.0000
 1392   27.820   7374.43    30.7699     0.3024     0.2833     0.2782    30.8895     0.9845   445.1200    30.4444     0.0002
 1393   27.840   7375.38    31.2899     0.3086     0.2810     0.2784    31.4079     0.9872   445.4400    30.9625     0.0001
 1394   27.860   7376.40    31.8903     0.3175     0.2728     0.2786    32.0098     0.9974   445.7600    31.5640     0.0002
 1395   27.880   7377.45    32.3825     0.3289     0.2895     0.2788    32.5028     1.0181   446.0800    32.0567     0.0002
 1396   27.900   7378.44    32.5920     0.3393     0.2817     0.2790    32.7117     1.0415   446.4000    32.2653     0.0002
 1397   27.920   7379.45    32.5293     0.3426     0.2729     0.2792    32.6490     1.0516   446.7200    32.2023     0.0002
 1398   27.940   7380.44    32.1711     0.3371     0.2651     0.2794    32.2824     1.0439   447.0400    31.8353    -0.0005
 1399   27.960   7381.38    31.4147     0.3277     0.2781     0.2796    31.5235     1.0384   447.3600    31.0761    -0.0007
 1400   27.980   7382.37    30.0377     0.3162     0.2634     0.2798    30.1502     1.0456   447.6800    29.7026    -0.0004
 1401   28.000   7383.39    28.4290     0.3024     0.2791     0.2800    28.5442     1.0515   448.0000    28.0962    -0.0002
 1402   28.020   7384.38    27.3390     0.2823     0.2562     0.2802    27.4474     1.0253   448.3200    26.9991    -0.0008
 1403   28.040   7385.36    26.5187     0.2642     0.2455     0.2804    26.6210     0.9911   448.6400    26.1724    -0.0014
 1404   28.060   7386.32    26.0105     0.2528     0.2651     0.2806    26.1198     0.9704   448.9600    25.6708    -0.0008
 1405   28.080   7387.33    25.8407     0.2473     0.2722     0.2808    25.9550     0.9565   449.2800    25.5057    -0.0003
 1406   28.100   7388.29    25.9503     0.2471     0.2581     0.2810    26.0582     0.9535   449.6000    25.6086    -0.0009
 1407   28.120   7389.27    26.2156     0.2481     0.2697     0.2812    26.3299     0.9481   449.9200    25.8799    -0.0004
 1408   28.140   7390.27    26.5715     0.2519     0.2858     0.2814    26.6889     0.9524   450.2400    26.2386    -0.0001
 1409   28.160   7391.30    26.8142     0.2557     0.2712     0.2816    26.9310     0.9566   450.5600    26.4805    -0.0001
 1410   28.180   7392.29    27.1142     0.2613     0.2868     0.2818    27.2329     0.9670   450.8800    26.7821     0.0000
 1411   28.200   7393.29    27.2615     0.2675     0.2748     0.2820    27.3769     0.9806   451.2000    26.9257    -0.0003
 1412   28.220   7394.27    26.9930     0.2713     0.2915     0.2822    27.1156     1.0012   451.5200    26.6641     0.0004
 1413   28.240   7407.97    26.3849     0.2689     0.2874     0.2824    26.5062     0.9995   451.8400    26.0544     0.0002
 1414   28.260   7424.87    25.7382     0.2629     0.2833     0.2826    25.8578     0.9772   452.1600    25.4056     0.0001
 1415   28.280   7439.14    25.0776     0.2587     0.2758     0.2828    25.1950     1.0188   452.4800    24.7425    -0.0001
 1416   28.300   7440.12    24.3744     0.2584     0.2842     0.2830    24.4943     1.0530   452.8000    24.0415     0.0001
 1417   28.320   7441.14    23.7313     0.2542     0.2645     0.2832    23.8473     1.0635   453.1200    23.3941    -0.0003
 1418   28.340   7442.12    23.3494     0.2466     0.2844     0.2834    23.4650     1.0518   453.4400    23.0116    -0.0004
 1419   28.360   7443.06    23.0655     0.2409     0.2802     0.2836    23.1822     1.0414   453.7600    22.7285    -0.0003
 1420   28.380   7444.05    22.6494     0.2371     0.2808     0.2838    22.7668     1.0418   454.0800    22.3127    -0.0002
 1421   28.400   7444.97    22.2835     0.2326     0.2840     0.2840    22.4012     1.0398   454.4000    21.9468    -0.0002
 1422   28.420   7445.98    21.9725     0.2254     0.2779     0.2842    22.0887     1.0232   454.7200    21.6339    -0.0003
 1423   28.440   7446.94    21.7675     0.2162     0.2799     0.2844    21.8854     0.9919   455.0400    21.4303    -0.0002
 1424   28.460   7447.94    21.6063     0.2108     0.2797     0.2846    21.7212     0.9742   455.3600    21.2659    -0.0005
 1425   28.480   7448.91    21.5234     0.2037     0.2883     0.2848    21.6425     0.9461   455.6800    21.1869    -0.0001
 1426   28.500   7449.90    21.6384     0.1968     0.2828     0.2850    21.7582     0.9108   456.0000    21.3022     0.0000
 1427   28.520   7450.89    22.0419     0.1946     0.2881     0.2852    22.1605     0.8851   456.3200    21.7042    -0.0001
 1428   28.540   7451.87    22.6826     0.1995     0.2875     0.2854    22.8028     0.8831   456.6400    22.3462     0.0000
 1429   28.560   7452.83    23.7147     0.2095     0.2818     0.2856    23.8374     0.8881   456.9600    23.3805     0.0003
 1430   28.580   7453.83    25.1319     0.2219     0.2720     0.2858    25.2429     0.8927   457.2800    24.7856    -0.0009
 1431   28.600   7454.89    26.5925     0.2395     0.2834     0.2860    26.7090     0.9099   457.6000    26.2514    -0.0003
 1432   28.620   7455.88    27.5495     0.2544     0.2935     0.2862    27.6708     0.9288   457.9200    27.2129     0.0001
 1433   28.640   7456.86    28.2233     0.2661     0.2787     0.2864    28.3405     0.9469   458.2400    27.8823    -0.0003
 1434   28.660   7457.86    28.5833     0.2729     0.2869     0.2866    28.7012     0.9559   458.5600    28.2427    -0.0002
 1435   28.680   7458.80    28.5171     0.2736     0.2898     0.2868    28.6402     0.9583   458.8800    28.1813     0.0002
 1436   28.700   7459.77    28.1379     0.2694     0.2785     0.2870    28.2551     0.9554   459.2000    27.7959    -0.0003
 1437   28.720   7460.79    27.7893     0.2641     0.2658     0.2872    27.9045     0.9488   459.5200    27.4449    -0.0005
 1438   28.740   7461.77    27.4128     0.2572     0.2708     0.2874    27.5254     0.9351   459.8400    27.0656    -0.0007
 1439   28.760   7462.83    26.7962     0.2521     0.2804     0.2876    26.9135     0.9342   460.1600    26.4534    -0.0003
 1440   28.780   7463.78    25.8862     0.2476     0.2825     0.2878    26.0061     0.9476   460.4800    25.5456    -0.0001
 1441   28.800   7464.78    24.8355     0.2415     0.2694     0.2880    24.9486     0.9632   460.8000    24.4878    -0.0008
 1442   28.820   7465.75    23.8599     0.2309     0.2628     0.2882    23.9697     0.9609   461.1200    23.5086    -0.0011
 1443   28.840   7466.70    22.8968     0.2268     0.2897     0.2884    23.0161     0.9870   461.4400    22.5547    -0.0002
 1444   28.860   7467.67    22.2053     0.2235     0.2888     0.2886    22.3272     1.0056   461.7600    21.8654     0.0001
 1445   28.880   7468.66    22.2080     0.2168     0.2756     0.2888    22.3285     0.9779   462.0800    21.8664    -0.0001
 1446   28.900   7469.65    22.9209     0.2140     0.2987     0.2890    23.0433     0.9386   462.4000    22.5809     0.0001
 1447   28.920   7470.67    24.0961     0.2227     0.2876     0.2892    24.2197     0.9316   462.7200    23.7570     0.0002
 1448   28.940   7471.69    25.4616     0.2343     0.2545     0.2894    25.5773     0.9306   463.0400    25.1143    -0.0006
 1449   28.960   7472.69    26.9574     0.2436     0.1962     0.2896    27.0482     0.9111   463.3600    26.5848    -0.0028
 1450   28.980   7473.69    28.1996     0.2541     0.1786     0.2898    28.2735     0.9055   463.6800    27.8099    -0.0041
 1451   29.000   7474.68    28.7143     0.2630     0.2324     0.2900    28.8001     0.9170   464.0000    28.3361    -0.0030
 1452   29.020   7475.63    28.7161     0.2670     0.2227     0.2902    28.8137     0.9292   464.3200    28.3493    -0.0020
 1453   29.040   7476.60    28.3486     0.2637     0.2045     0.2904    28.4391     0.9270   464.6400    27.9744    -0.0027
 1454   29.060   7477.62    27.5911     0.2542     0.2392     0.2906    27.6882     0.9158   464.9600    27.2233    -0.0022
 1455   29.080   7478.64    26.8521     0.2443     0.2741     0.2908    26.9618     0.9042   465.2800    26.4965    -0.0011
 1456   29.100   7479.60    26.1754     0.2339     0.2578     0.2910    26.2862     0.8899   465.6000    25.8206    -0.0010
 1457   29.120   7480.53    25.5310     0.2239     0.2658     0.2912    25.6436     0.8744   465.9200    25.1777    -0.0009
 1458   29.140   7481.56    24.9845     0.2145     0.2810     0.2914    25.1026     0.8573   466.2400    24.6364    -0.0004
 1459   29.160   7482.54    24.9002     0.2090     0.2955     0.2916    25.0205     0.8398   466.5600    24.5540    -0.0002
 1460   29.180   7483.55    25.2150     0.2056     0.2895     0.2918    25.3353     0.8168   466.8800    24.8684    -0.0002
 1461   29.200   7484.51    26.0526     0.2040     0.2966     0.2920    26.1772     0.7840   467.2000    25.7100     0.0002
 1462   29.220   7485.54    27.1587     0.2031     0.2938     0.2922    27.2819     0.7503   467.5200    26.8143     0.0000
 1463   29.240   7486.55    28.6037     0.2029     0.2940     0.2924    28.7266     0.7270   467.8400    28.2588     0.0000
 1464   29.260   7487.55    30.2895     0.2039     0.2678     0.2926    30.4056     0.6898   468.1600    29.9374    -0.0005
 1465   29.280   7488.54    32.2233     0.2085     0.2624     0.2928    32.3347     0.6626   468.4800    31.8662    -0.0009
 1466   29.300   7489.62    34.6716     0.2210     0.1924     0.2930    34.7637     0.6528   468.8000    34.2949    -0.0021
 1467   29.320   7490.62    36.8469     0.2438     0.1697     0.2932    36.9187     0.6724   469.1200    36.4496    -0.0034
 1468   29.340   7491.69    39.2858     0.2505     0.1978     0.2934    39.3590     0.6498   469.4400    38.8895    -0.0031
 1469   29.360   7492.72    42.0187     0.2332     0.2536     0.2936    42.1209     0.5704   469.7600    41.6512    -0.0012
 1470   29.380   7493.75    44.5749                0.2766     0.2938    44.6871              470.0800    44.2171    -0.0006
 1471   29.400   7494.84    46.9579                0.2656     0.2940    47.0725              470.4000    46.6022    -0.0005
 1472   29.420   7495.88    48.7540                0.2460     0.2942    48.8605              470.7200    48.3898    -0.0008
 1473   29.440   7497.43    50.0248                0.2480     0.2944    50.1299              471.0400    49.6588    -0.0009
 1474   29.460   7508.01    50.0343                0.2414     0.2946    50.1367              471.3600    49.6653    -0.0010
 1475   29.480   7518.50    50.0439                           0.2948    50.1435              471.6777    49.6718    -0.0012
 
 
