

 Program UNIPLOT                         version 05.36.02
 _______________
 (c) Fugro Netherlands Marine, Nootdorp, The Netherlands


 ASCII representation of data plotted on a graph.

 This ASCII file presents data interpolated to values per fixed depth interval.
 The data are corrected for the depth-offset differences between the various 
 transducers in the penetrometer.

 The records at the start of penetration may include no values or anomalous
 values where a depth offset implies incomplete penetration of a particular
 sensor into the ground.

 The records at the end of penetration may include no values for data channels
 where the transducer did not reach this depth.

 The reference level for test values is (1) the ground surface for onshore tests and (2) the seafloor for nearshore and offshore tests.

 UNICAS data file          : CPT-1042.000                            
 Output using command file : PlotASCII.cmd

 ASCII file created at : date          :26-Apr-2022
                         time          :10:11:38
 Project number                        :20024805
 Date of testing                       :21-Apr-2022
 Location                              :Hong Kong Offshore Wind Farm Project
 Test name                             :CPT-1042
 Penetrometer                          :F7.5CKE2HAW2/B/3342
 Serial no                             :1701-3342

 Table description:
 Column ID                             :Parameter name
 ___________________________________________________________________________________
 Rec                                   :Record ID, Record ID [-]
 Depth                                 :Depth, Depth [m]
 Time                                  :Time, Time [s]
 Cone                                  :Cone Resistance, Cone Resistance [MPa]
 Friction                              :Sleeve Friction, Sleeve Friction [MPa]
 Pore 2                                :Porewater Pressure, Porewater Pressure at Shoulder [MPa]
 HydroPress                            :Hydrostatic Pressure, Hydrostatic Pressure [MPa]
 qt                                    :Total Cone Resistance, Total Cone Resistance [MPa]
 Fric_ratio                            :Friction Ratio, Friction Ratio [%]
 SigmaVert                             :Vertical stress, Vertical stress [kPa] as specified in ground model
 Qnet                                  :Net Cone Resistance, Net Cone Resistance [MPa], unit weight as specified in ground model
 Bq                                    :Porewater Pressure Ratio, Porewater Pressure Ratio [-], unit weight as specified in ground model


 Data table:
  Rec    Depth      Time       Cone   Friction     Pore 2 HydroPress         qt Fric_ratio  SigmaVert       Qnet         Bq
   No        m         s        MPa        MPa        MPa        MPa        MPa          %        kPa        MPa          -
    1    0.000   1969.97     0.0000                           0.0000     0.0000                0.0000     0.0000           
    2    0.020   1970.98     0.0021                0.0006     0.0002     0.0023                0.3200     0.0020     0.2083
    3    0.040   1972.00     0.0066                0.0009     0.0004     0.0069                0.6400     0.0063     0.0716
    4    0.060   1976.35     0.0055     0.0005     0.0009     0.0006     0.0059     7.0881     0.9600     0.0050     0.0554
    5    0.080   1980.70     0.0045     0.0005     0.0009     0.0008     0.0049     9.5489     1.2800     0.0036     0.0393
    6    0.100   1981.89     0.0050     0.0007     0.0010     0.0010     0.0054    13.7400     1.6000     0.0038    -0.0013
    7    0.120   1982.88     0.0064     0.0006     0.0009     0.0012     0.0068     8.9187     1.9200     0.0048    -0.0507
    8    0.140   1983.90     0.0078     0.0006     0.0008     0.0014     0.0081     8.3946     2.2400     0.0059    -0.0813
    9    0.160   1984.88     0.0056     0.0007     0.0009     0.0016     0.0059    12.8461     2.5600     0.0033    -0.2390
   10    0.180   1985.91     0.0084     0.0009     0.0008     0.0018     0.0088    10.4136     2.8800     0.0059    -0.1787
   11    0.200   1986.95     0.0119     0.0009     0.0006     0.0020     0.0122    10.4636     3.2000     0.0090    -0.1380
   12    0.220   1987.91     0.0148     0.0013     0.0007     0.0022     0.0152     9.9362     3.5200     0.0117    -0.1066
   13    0.240   1988.88     0.0145     0.0012     0.0003     0.0024     0.0148     8.3426     3.8400     0.0109    -0.1688
   14    0.260   1989.88     0.0175     0.0019    -0.0017     0.0026     0.0173    11.0089     4.1600     0.0131    -0.2489
   15    0.280   1990.92     0.0181     0.0017    -0.0035     0.0028     0.0166     9.5037     4.4800     0.0121    -0.5311
   16    0.300   1991.94     0.0177     0.0021    -0.0019     0.0030     0.0167    12.0905     4.8000     0.0119    -0.4381
   17    0.320   1992.92     0.0204     0.0020    -0.0012     0.0032     0.0196     9.5886     5.1200     0.0145    -0.3368
   18    0.340   1993.91     0.0211     0.0021     0.0011     0.0034     0.0212    10.1998     5.4400     0.0157    -0.2113
   19    0.360   1994.91     0.0187     0.0020     0.0018     0.0036     0.0195    10.6948     5.7600     0.0138    -0.1155
   20    0.380   1995.88     0.0183     0.0022     0.0032     0.0038     0.0194    12.2464     6.0800     0.0133    -0.0924
   21    0.400   1996.88     0.0215     0.0020     0.0016     0.0040     0.0215     9.2612     6.4000     0.0151    -0.2709
   22    0.420   1997.89     0.0200     0.0021     0.0013     0.0042     0.0205    10.8811     6.7200     0.0138    -0.2111
   23    0.440   1998.91     0.0198     0.0023     0.0007     0.0044     0.0200    11.8518     7.0400     0.0129    -0.3176
   24    0.460   1999.91     0.0231     0.0023     0.0031     0.0046     0.0241    10.1712     7.3600     0.0168    -0.1183
   25    0.480   2000.89     0.0206     0.0025     0.0031     0.0048     0.0224    12.6095     7.6800     0.0147    -0.0366
   26    0.500   2001.88     0.0203     0.0022     0.0040     0.0050     0.0215    10.9518     8.0000     0.0135    -0.1571
   27    0.520   2002.90     0.0241     0.0021     0.0054     0.0052     0.0262     8.7092     8.3200     0.0178    -0.0145
   28    0.540   2003.92     0.0231     0.0020     0.0079     0.0054     0.0260     8.9422     8.6400     0.0173     0.0860
   29    0.560   2004.93     0.0253     0.0018     0.0078     0.0056     0.0290     7.2390     8.9600     0.0200     0.1585
   30    0.580   2005.89     0.0245     0.0023     0.0058     0.0058     0.0271     9.4452     9.2800     0.0178     0.0179
   31    0.600   2006.90     0.0276     0.0020     0.0039     0.0060     0.0296     7.4385     9.6000     0.0200    -0.0718
   32    0.620   2007.91     0.0314     0.0022     0.0032     0.0062     0.0328     7.2936     9.9200     0.0229    -0.1188
   33    0.640   2008.86     0.0321     0.0025     0.0008     0.0064     0.0327     8.0204    10.2400     0.0224    -0.2280
   34    0.660   2009.90     0.0330     0.0027    -0.0019     0.0066     0.0325     8.1774    10.5600     0.0219    -0.3570
   35    0.680   2010.94     0.0269     0.0028     0.0014     0.0068     0.0268     9.8613    10.8800     0.0160    -0.4383
   36    0.700   2011.96     0.0301     0.0030     0.0041     0.0070     0.0320    10.2643    11.2000     0.0208    -0.1229
   37    0.720   2012.92     0.0287     0.0028     0.0036     0.0072     0.0304     9.6427    11.5200     0.0189    -0.1582
   38    0.740   2013.93     0.0336     0.0029     0.0068     0.0074     0.0356     8.8147    11.8400     0.0237    -0.1185
   39    0.760   2014.94     0.0304     0.0028     0.0096     0.0076     0.0342     9.2317    12.1600     0.0221     0.0715
   40    0.780   2015.89     0.0271     0.0030     0.0114     0.0078     0.0319    11.0220    12.4800     0.0194     0.1891
   41    0.800   2016.90     0.0277     0.0028     0.0105     0.0080     0.0323    10.0807    12.8000     0.0195     0.1464
   42    0.820   2017.97     0.0262     0.0025     0.0104     0.0082     0.0304     9.5552    13.1200     0.0173     0.0991
   43    0.840   2018.94     0.0243     0.0022     0.0134     0.0084     0.0294     9.0605    13.4400     0.0160     0.2382
   44    0.860   2019.93     0.0254     0.0024     0.0156     0.0086     0.0317     9.3002    13.7600     0.0179     0.3631
   45    0.880   2020.96     0.0251     0.0023     0.0171     0.0088     0.0320     9.0060    14.0800     0.0179     0.4235
   46    0.900   2021.92     0.0285     0.0021     0.0170     0.0090     0.0361     7.4885    14.4000     0.0217     0.4224
   47    0.920   2022.88     0.0285     0.0022     0.0161     0.0092     0.0356     7.7479    14.7200     0.0208     0.3649
   48    0.940   2023.88     0.0330     0.0026     0.0145     0.0094     0.0394     7.9743    15.0400     0.0244     0.2433
   49    0.960   2024.92     0.0387     0.0028     0.0155     0.0096     0.0451     7.9084    15.3600     0.0297     0.1910
   50    0.980   2025.90     0.0379     0.0031     0.0155     0.0098     0.0447     7.9749    15.6800     0.0290     0.2139
   51    1.000   2026.91     0.0456     0.0032     0.0120     0.0100     0.0511     7.7463    16.0000     0.0351     0.0899
   52    1.020   2027.95     0.0464     0.0035     0.0082     0.0102     0.0501     7.3780    16.3200     0.0338    -0.0386
   53    1.040   2028.92     0.0454     0.0035     0.0089     0.0104     0.0487     7.2251    16.6400     0.0321    -0.0781
   54    1.060   2037.18     0.0457     0.0034     0.0064     0.0106     0.0489     7.4176    16.9600     0.0319    -0.1088
   55    1.080   2053.25     0.0446     0.0029     0.0027     0.0108     0.0462     6.3230    17.2800     0.0290    -0.2661
   56    1.100   2069.32     0.0435     0.0029    -0.0006     0.0110     0.0436     6.3078    17.6000     0.0260    -0.4234
   57    1.120   2074.66     0.0427     0.0030     0.0051     0.0112     0.0437     6.9498    17.9200     0.0258    -0.3428
   58    1.140   2075.64     0.0391     0.0028     0.0115     0.0114     0.0428     7.0628    18.2400     0.0245    -0.1056
   59    1.160   2076.68     0.0366     0.0024     0.0168     0.0116     0.0432     6.4194    18.5600     0.0246     0.1681
   60    1.180   2077.73     0.0350     0.0025     0.0181     0.0118     0.0424     7.0422    18.8800     0.0235     0.2498
   61    1.200   2078.72     0.0354     0.0027     0.0194     0.0120     0.0434     7.5346    19.2000     0.0242     0.2903
   62    1.220   2079.73     0.0366     0.0025     0.0202     0.0122     0.0450     6.7047    19.5200     0.0255     0.3045
   63    1.240   2080.70     0.0354     0.0028     0.0203     0.0124     0.0440     7.9197    19.8400     0.0241     0.3312
   64    1.260   2081.73     0.0366     0.0026     0.0222     0.0126     0.0455     6.9073    20.1600     0.0254     0.3471
   65    1.280   2082.72     0.0366     0.0027     0.0239     0.0128     0.0464     7.4957    20.4800     0.0259     0.4100
   66    1.300   2083.68     0.0326     0.0024     0.0251     0.0130     0.0430     7.5076    20.8000     0.0222     0.5289
   67    1.320   2084.69     0.0320     0.0023     0.0263     0.0132     0.0429     7.4016    21.1200     0.0217     0.5832
   68    1.340   2085.66     0.0328     0.0019     0.0283     0.0134     0.0444     5.7573    21.4400     0.0230     0.6191
   69    1.360   2086.68     0.0323     0.0021     0.0296     0.0136     0.0446     6.5460    21.7600     0.0228     0.6876
   70    1.380   2087.69     0.0378     0.0023     0.0314     0.0138     0.0508     5.8838    22.0800     0.0287     0.5933
   71    1.400   2088.71     0.0382     0.0025     0.0317     0.0140     0.0514     6.8256    22.4000     0.0290     0.6051
   72    1.420   2089.69     0.0404     0.0022     0.0330     0.0142     0.0540     5.4912    22.7200     0.0313     0.5852
   73    1.440   2090.67     0.0442     0.0024     0.0246     0.0144     0.0560     5.6184    23.0400     0.0330     0.4269
   74    1.460   2091.66     0.0472     0.0026     0.0251     0.0146     0.0573     5.4907    23.3600     0.0339     0.2826
   75    1.480   2092.65     0.0465     0.0027     0.0269     0.0148     0.0574     5.7587    23.6800     0.0337     0.3292
   76    1.500   2093.67     0.0475     0.0028     0.0270     0.0150     0.0581     5.9326    24.0000     0.0341     0.3053
   77    1.520   2094.72     0.0508     0.0027     0.0247     0.0152     0.0613     5.3757    24.3200     0.0370     0.2619
   78    1.540   2095.70     0.0520     0.0026     0.0252     0.0154     0.0630     5.0431    24.6400     0.0383     0.2763
   79    1.560   2096.72     0.0550     0.0028     0.0257     0.0156     0.0654     4.9816    24.9600     0.0405     0.2314
   80    1.580   2097.67     0.0527     0.0027     0.0217     0.0158     0.0625     5.1669    25.2800     0.0372     0.1984
   81    1.600   2098.69     0.0496     0.0027     0.0223     0.0160     0.0583     5.4455    25.6000     0.0327     0.1452
   82    1.620   2099.70     0.0477     0.0028     0.0285     0.0162     0.0590     5.7952    25.9200     0.0331     0.3218
   83    1.640   2100.71     0.0459     0.0025     0.0294     0.0164     0.0583     5.4208    26.2400     0.0321     0.4098
   84    1.660   2101.72     0.0468     0.0024     0.0320     0.0166     0.0597     5.1097    26.5600     0.0332     0.4272
   85    1.680   2102.73     0.0468     0.0023     0.0347     0.0168     0.0612     4.6947    26.8800     0.0343     0.5104
   86    1.700   2103.74     0.0474     0.0022     0.0360     0.0170     0.0622     4.6669    27.2000     0.0350     0.5222
   87    1.720   2104.71     0.0515     0.0020     0.0375     0.0172     0.0669     3.8767    27.5200     0.0394     0.4965
   88    1.740   2105.69     0.0544     0.0023     0.0403     0.0174     0.0709     4.1651    27.8400     0.0431     0.5083
   89    1.760   2106.69     0.0577     0.0024     0.0384     0.0176     0.0744     4.0850    28.1600     0.0462     0.4778
   90    1.780   2107.73     0.0619     0.0024     0.0350     0.0178     0.0773     3.9839    28.4800     0.0489     0.3893
   91    1.800   2108.73     0.0624     0.0025     0.0322     0.0180     0.0757     4.0934    28.8000     0.0469     0.2943
   92    1.820   2109.75     0.0619     0.0024     0.0393     0.0182     0.0774     3.9178    29.1200     0.0482     0.3857
   93    1.840   2110.73     0.0630     0.0025     0.0380     0.0184     0.0799     3.9172    29.4400     0.0504     0.4302
   94    1.860   2111.75     0.0625     0.0027     0.0330     0.0186     0.0764     4.2356    29.7600     0.0467     0.3116
   95    1.880   2112.74     0.0599     0.0027     0.0392     0.0188     0.0751     4.5094    30.0800     0.0450     0.3869
   96    1.900   2113.71     0.0616     0.0025     0.0453     0.0190     0.0799     4.1142    30.4000     0.0495     0.4991
   97    1.920   2114.71     0.0652     0.0026     0.0480     0.0192     0.0851     3.9547    30.7200     0.0544     0.5171
   98    1.940   2115.71     0.0707     0.0027     0.0489     0.0194     0.0914     3.8968    31.0400     0.0604     0.4940
   99    1.960   2116.71     0.0748     0.0029     0.0420     0.0196     0.0931     3.8777    31.3600     0.0617     0.3901
  100    1.980   2117.73     0.0778     0.0028     0.0433     0.0198     0.0954     3.6641    31.6800     0.0637     0.3456
  101    2.000   2118.71     0.0817     0.0032     0.0416     0.0200     0.0998     4.0043    32.0000     0.0678     0.3379
  102    2.020   2119.72     0.0855     0.0032     0.0386     0.0202     0.1021     3.7290    32.3200     0.0698     0.2771
  103    2.040   2120.72     0.0847     0.0031     0.0453     0.0204     0.1022     3.6706    32.6400     0.0696     0.3078
  104    2.060   2121.71     0.0818     0.0031     0.0515     0.0206     0.1027     3.8478    32.9600     0.0698     0.4195
  105    2.080   2122.68     0.0822     0.0030     0.0534     0.0208     0.1039     3.6131    33.2800     0.0706     0.4369
  106    2.100   2123.72     0.0808     0.0030     0.0563     0.0210     0.1040     3.7696    33.6000     0.0704     0.4875
  107    2.120   2124.72     0.0849     0.0031     0.0531     0.0212     0.1079     3.6782    33.9200     0.0740     0.4536
  108    2.140   2125.74     0.0882     0.0034     0.0504     0.0214     0.1098     3.8402    34.2400     0.0755     0.3976
  109    2.160   2126.73     0.0884     0.0034     0.0483     0.0216     0.1088     3.8480    34.5600     0.0743     0.3648
  110    2.180   2127.77     0.0879     0.0036     0.0471     0.0218     0.1078     4.0921    34.8800     0.0729     0.3493
  111    2.200   2128.76     0.0888     0.0036     0.0496     0.0220     0.1090     4.0769    35.2000     0.0738     0.3549
  112    2.220   2129.78     0.0927     0.0039     0.0511     0.0222     0.1141     4.2633    35.5200     0.0785     0.3659
  113    2.240   2130.79     0.0917     0.0037     0.0496     0.0224     0.1130     4.0236    35.8400     0.0772     0.3666
  114    2.260   2131.75     0.0909     0.0033     0.0439     0.0226     0.1105     3.6164    36.1600     0.0744     0.3227
  115    2.280   2132.76     0.0834     0.0035     0.0381     0.0228     0.0998     4.1817    36.4800     0.0634     0.2573
  116    2.300   2133.75     0.0832     0.0035     0.0402     0.0230     0.0993     4.1521    36.8000     0.0625     0.2431
  117    2.320   2134.75     0.0782     0.0035     0.0488     0.0232     0.0981     4.5030    37.1200     0.0609     0.3962
  118    2.340   2135.78     0.0783     0.0034     0.0498     0.0234     0.0987     4.3864    37.4400     0.0612     0.4101
  119    2.360   2136.76     0.0784     0.0031     0.0554     0.0236     0.1010     3.9890    37.7600     0.0632     0.4779
  120    2.380   2137.77     0.0755     0.0032     0.0570     0.0238     0.0996     4.1579    38.0800     0.0615     0.5475
  121    2.400   2138.77     0.0750     0.0027     0.0580     0.0240     0.0987     3.6130    38.4000     0.0603     0.5389
  122    2.420   2139.77     0.0738     0.0029     0.0637     0.0242     0.0999     3.9197    38.7200     0.0611     0.6189
  123    2.440   2140.73     0.0716     0.0028     0.0671     0.0244     0.0993     3.8590    39.0400     0.0603     0.6908
  124    2.460   2141.76     0.0704     0.0025     0.0691     0.0246     0.0992     3.4817    39.3600     0.0599     0.7350
  125    2.480   2142.76     0.0697     0.0026     0.0693     0.0248     0.0988     3.6876    39.6800     0.0591     0.7519
  126    2.500   2143.76     0.0741     0.0020     0.0699     0.0250     0.1033     2.8068    40.0000     0.0633     0.7057
  127    2.520   2144.78     0.0732     0.0020     0.0708     0.0252     0.1029     2.7142    40.3200     0.0626     0.7288
  128    2.540   2145.76     0.0756     0.0015     0.0688     0.0254     0.1050     2.0285    40.6400     0.0644     0.6952
  129    2.560   2146.77     0.0788     0.0014     0.0533     0.0256     0.1031     1.7953    40.9600     0.0621     0.5193
  130    2.580   2147.73     0.0760     0.0017     0.0504     0.0258     0.0978     2.2759    41.2800     0.0565     0.4647
  131    2.600   2148.76     0.0781     0.0024     0.0476     0.0260     0.0988     3.0388    41.6000     0.0572     0.4098
  132    2.620   2149.77     0.0772     0.0026     0.0408     0.0262     0.0949     3.3563    41.9200     0.0530     0.2982
  133    2.640   2150.79     0.0783     0.0029     0.0402     0.0264     0.0952     3.6763    42.2400     0.0530     0.2628
  134    2.660   2151.79     0.0842     0.0025     0.0408     0.0266     0.1006     2.9950    42.5600     0.0580     0.2145
  135    2.680   2152.79     0.0961     0.0025     0.0430     0.0268     0.1150     2.6669    42.8800     0.0721     0.2535
  136    2.700   2153.79     0.1012     0.0028     0.0442     0.0270     0.1181     2.7518    43.2000     0.0749     0.1791
  137    2.720   2154.77     0.1065     0.0030     0.0498     0.0272     0.1269     2.7986    43.5200     0.0834     0.2561
  138    2.740   2155.79     0.1138     0.0032     0.0613     0.0274     0.1379     2.7829    43.8400     0.0941     0.3187
  139    2.760   2156.79     0.1237     0.0035     0.0631     0.0276     0.1505     2.8932    44.1600     0.1063     0.3394
  140    2.780   2157.80     0.1346     0.0034     0.0609     0.0278     0.1598     2.5896    44.4800     0.1153     0.2792
  141    2.800   2158.76     0.1425     0.0034     0.0699     0.0280     0.1711     2.3992    44.8000     0.1263     0.3165
  142    2.820   2159.74     0.1393     0.0038     0.0641     0.0282     0.1672     2.7310    45.1200     0.1220     0.3117
  143    2.840   2160.75     0.1333     0.0043     0.0601     0.0284     0.1601     3.1584    45.4400     0.1146     0.3078
  144    2.860   2161.79     0.1308     0.0048     0.0605     0.0286     0.1558     3.5858    45.7600     0.1101     0.2820
  145    2.880   2162.77     0.1242     0.0050     0.0610     0.0288     0.1495     3.9074    46.0800     0.1035     0.3058
  146    2.900   2163.77     0.1204     0.0049     0.0611     0.0290     0.1457     4.1092    46.4000     0.0993     0.3135
  147    2.920   2169.65     0.1196     0.0043     0.0639     0.0292     0.1463     3.5901    46.7200     0.0996     0.3452
  148    2.940   2184.18     0.1200     0.0039     0.0649     0.0294     0.1471     3.2818    47.0400     0.1001     0.3514
  149    2.960   2198.72     0.1204     0.0039     0.0659     0.0296     0.1479     3.2654    47.3600     0.1006     0.3575
  150    2.980   2205.93     0.1166     0.0043     0.0646     0.0298     0.1433     3.6534    47.6800     0.0957     0.3537
  151    3.000   2206.97     0.1206     0.0041     0.0681     0.0300     0.1490     3.4022    48.0000     0.1010     0.3727
  152    3.020   2207.96     0.1316     0.0043     0.0653     0.0302     0.1598     3.3481    48.3200     0.1115     0.3314
  153    3.040   2208.95     0.1371     0.0045     0.0615     0.0304     0.1624     3.3222    48.6400     0.1137     0.2612
  154    3.060   2209.95     0.1372     0.0047     0.0633     0.0306     0.1627     3.4062    48.9600     0.1137     0.2658
  155    3.080   2210.95     0.1392     0.0045     0.0620     0.0308     0.1650     3.2388    49.2800     0.1158     0.2657
  156    3.100   2212.00     0.1391     0.0043     0.0672     0.0310     0.1656     3.0884    49.6000     0.1160     0.2755
  157    3.120   2212.96     0.1425     0.0043     0.0777     0.0312     0.1754     3.0353    49.9200     0.1255     0.3758
  158    3.140   2213.94     0.1400     0.0045     0.0811     0.0314     0.1736     3.2093    50.2400     0.1234     0.3949
  159    3.160   2214.96     0.1388     0.0042     0.0727     0.0316     0.1713     3.0210    50.5600     0.1207     0.3778
  160    3.180   2215.97     0.1440     0.0040     0.0692     0.0318     0.1718     2.7849    50.8800     0.1210     0.2850
  161    3.200   2216.98     0.1370     0.0038     0.0767     0.0320     0.1680     2.7880    51.2000     0.1168     0.3583
  162    3.220   2217.99     0.1317     0.0039     0.0704     0.0322     0.1637     2.9365    51.5200     0.1121     0.3921
  163    3.240   2218.96     0.1306     0.0034     0.0593     0.0324     0.1556     2.6043    51.8400     0.1038     0.2615
  164    3.260   2219.97     0.1306     0.0037     0.0646     0.0326     0.1563     2.8374    52.1600     0.1042     0.2742
  165    3.280   2220.96     0.1248     0.0035     0.0711     0.0328     0.1548     2.7726    52.4800     0.1023     0.3767
  166    3.300   2221.97     0.1209     0.0037     0.0576     0.0330     0.1461     3.0655    52.8000     0.0933     0.2899
  167    3.320   2222.95     0.1181     0.0032     0.0595     0.0332     0.1423     2.6693    53.1200     0.0892     0.2752
  168    3.340   2223.96     0.1106     0.0035     0.0687     0.0334     0.1388     3.1385    53.4400     0.0854     0.3975
  169    3.360   2224.96     0.1120     0.0033     0.0768     0.0336     0.1436     2.9736    53.7600     0.0899     0.4651
  170    3.380   2226.00     0.1160     0.0036     0.0723     0.0338     0.1465     3.1400    54.0800     0.0924     0.4192
  171    3.400   2226.96     0.1162     0.0030     0.0793     0.0340     0.1491     2.5679    54.4000     0.0947     0.4673
  172    3.420   2227.94     0.1177     0.0027     0.0793     0.0342     0.1505     2.3456    54.7200     0.0958     0.4586
  173    3.440   2228.95     0.1165     0.0024     0.0808     0.0344     0.1502     2.0470    55.0400     0.0951     0.4809
  174    3.460   2229.99     0.1261     0.0027     0.0850     0.0346     0.1608     2.1575    55.3600     0.1054     0.4535
  175    3.480   2230.95     0.1323     0.0031     0.0897     0.0348     0.1694     2.3420    55.6800     0.1137     0.4705
  176    3.500   2231.97     0.1411     0.0035     0.0896     0.0350     0.1789     2.5074    56.0000     0.1229     0.4472
  177    3.520   2232.98     0.1494     0.0036     0.0831     0.0352     0.1846     2.4490    56.3200     0.1283     0.3787
  178    3.540   2233.96     0.1628     0.0041     0.0765     0.0354     0.1964     2.5025    56.6400     0.1397     0.3190
  179    3.560   2234.95     0.1641     0.0042     0.0659     0.0356     0.1945     2.5863    56.9600     0.1375     0.2666
  180    3.580   2235.96     0.1657     0.0044     0.0542     0.0358     0.1883     2.6796    57.2800     0.1310     0.1374
  181    3.600   2236.97     0.1605     0.0043     0.0582     0.0360     0.1822     2.6652    57.6000     0.1246     0.1254
  182    3.620   2237.98     0.1566     0.0041     0.0815     0.0362     0.1889     2.6236    57.9200     0.1310     0.3116
  183    3.640   2238.96     0.1546     0.0042     0.0877     0.0364     0.1909     2.7253    58.2400     0.1327     0.3777
  184    3.660   2239.97     0.1506     0.0039     0.0906     0.0366     0.1884     2.6100    58.5600     0.1299     0.4117
  185    3.680   2240.96     0.1551     0.0043     0.0939     0.0368     0.1941     2.7790    58.8800     0.1353     0.4152
  186    3.700   2241.94     0.1574     0.0042     0.0897     0.0370     0.1954     2.6915    59.2000     0.1362     0.3928
  187    3.720   2242.96     0.1545     0.0036     0.0871     0.0372     0.1901     2.3411    59.5200     0.1306     0.3652
  188    3.740   2243.99     0.1587     0.0036     0.0846     0.0374     0.1958     2.2636    59.8400     0.1360     0.3748
  189    3.760   2244.97     0.1569     0.0041     0.0793     0.0376     0.1891     2.5948    60.1600     0.1290     0.3041
  190    3.780   2246.01     0.1490     0.0039     0.0871     0.0378     0.1850     2.5730    60.4800     0.1246     0.3846
  191    3.800   2246.98     0.1484     0.0039     0.0785     0.0380     0.1829     2.6468    60.8000     0.1221     0.3624
  192    3.820   2247.97     0.1408     0.0038     0.0784     0.0382     0.1729     2.7075    61.1200     0.1118     0.3412
  193    3.840   2248.98     0.1465     0.0034     0.0844     0.0384     0.1796     2.2847    61.4400     0.1182     0.3429
  194    3.860   2249.91     0.1429     0.0030     0.0900     0.0386     0.1797     2.0722    61.7600     0.1179     0.4154
  195    3.880   2250.95     0.1426     0.0031     0.0925     0.0388     0.1811     2.1494    62.0800     0.1191     0.4451
  196    3.900   2251.96     0.1421     0.0030     0.0930     0.0390     0.1800     2.1225    62.4000     0.1176     0.4356
  197    3.920   2252.97     0.1431     0.0031     0.0921     0.0392     0.1828     2.1554    62.7200     0.1200     0.4596
  198    3.940   2253.97     0.1450     0.0032     0.0831     0.0394     0.1782     2.2422    63.0400     0.1152     0.3441
  199    3.960   2254.94     0.1436     0.0034     0.0812     0.0396     0.1774     2.3537    63.3600     0.1140     0.3579
  200    3.980   2255.94     0.1411     0.0034     0.0783     0.0398     0.1743     2.3928    63.6800     0.1107     0.3566
  201    4.000   2256.95     0.1401     0.0032     0.0820     0.0400     0.1737     2.2574    64.0000     0.1097     0.3642
  202    4.020   2257.96     0.1399     0.0030     0.0887     0.0402     0.1762     2.1553    64.3200     0.1118     0.4129
  203    4.040   2258.95     0.1370     0.0031     0.0922     0.0404     0.1753     2.2249    64.6400     0.1106     0.4584
  204    4.060   2259.96     0.1364     0.0027     0.0953     0.0406     0.1766     2.0090    64.9600     0.1117     0.4938
  205    4.080   2260.96     0.1375     0.0027     0.0974     0.0408     0.1777     1.9331    65.2800     0.1124     0.4875
  206    4.100   2261.94     0.1419     0.0025     0.0996     0.0410     0.1838     1.7987    65.6000     0.1182     0.4970
  207    4.120   2262.98     0.1498     0.0029     0.0965     0.0412     0.1903     1.9373    65.9200     0.1243     0.4437
  208    4.140   2264.00     0.1545     0.0032     0.0858     0.0414     0.1946     2.0534    66.2400     0.1284     0.4200
  209    4.160   2265.01     0.1612     0.0035     0.0807     0.0416     0.1928     2.1622    66.5600     0.1262     0.2650
  210    4.180   2265.97     0.1673     0.0033     0.0753     0.0418     0.2024     1.9519    66.8800     0.1355     0.3075
  211    4.200   2267.02     0.1677     0.0034     0.0660     0.0420     0.1960     2.0316    67.2000     0.1288     0.1974
  212    4.220   2267.98     0.1636     0.0036     0.0618     0.0422     0.1921     2.2128    67.5200     0.1246     0.2068
  213    4.240   2268.99     0.1656     0.0034     0.0712     0.0424     0.1934     2.0598    67.8400     0.1256     0.1894
  214    4.260   2269.99     0.1672     0.0035     0.0778     0.0426     0.1991     2.0940    68.1600     0.1309     0.2535
  215    4.280   2271.02     0.1688     0.0033     0.0776     0.0428     0.2012     1.9729    68.4800     0.1328     0.2596
  216    4.300   2272.01     0.1693     0.0033     0.0807     0.0430     0.2030     1.9351    68.8000     0.1342     0.2784
  217    4.320   2272.98     0.1741     0.0036     0.0865     0.0432     0.2083     2.0878    69.1200     0.1391     0.2748
  218    4.340   2273.99     0.1835     0.0033     0.0777     0.0434     0.2204     1.7930    69.4400     0.1510     0.2943
  219    4.360   2275.00     0.1833     0.0034     0.0798     0.0436     0.2144     1.8826    69.7600     0.1447     0.2113
  220    4.380   2276.01     0.1847     0.0037     0.0790     0.0438     0.2180     1.9905    70.0800     0.1479     0.2394
  221    4.400   2277.05     0.1812     0.0037     0.0781     0.0440     0.2132     2.0226    70.4000     0.1428     0.2255
  222    4.420   2278.06     0.1734     0.0035     0.0932     0.0442     0.2098     2.0323    70.7200     0.1391     0.3054
  223    4.440   2279.07     0.1723     0.0037     0.0895     0.0444     0.2117     2.1311    71.0400     0.1407     0.3517
  224    4.460   2280.08     0.1781     0.0038     0.0784     0.0446     0.2122     2.1426    71.3600     0.1408     0.2599
  225    4.480   2281.12     0.1777     0.0038     0.0832     0.0448     0.2127     2.1188    71.6800     0.1410     0.2728
  226    4.500   2282.12     0.1724     0.0040     0.0854     0.0450     0.2084     2.3472    72.0000     0.1364     0.2973
  227    4.520   2283.14     0.1691     0.0038     0.0886     0.0452     0.2067     2.2633    72.3200     0.1344     0.3300
  228    4.540   2284.15     0.1638     0.0038     0.1002     0.0454     0.2051     2.3292    72.6400     0.1325     0.4004
  229    4.560   2285.16     0.1613     0.0037     0.1055     0.0456     0.2048     2.3038    72.9600     0.1318     0.4395
  230    4.580   2286.18     0.1665     0.0035     0.1088     0.0458     0.2122     2.1229    73.2800     0.1389     0.4540
  231    4.600   2287.17     0.1682     0.0035     0.1076     0.0460     0.2118     2.0718    73.6000     0.1382     0.4189
  232    4.620   2288.22     0.1653     0.0033     0.0966     0.0462     0.2086     2.0048    73.9200     0.1347     0.4224
  233    4.640   2289.20     0.1674     0.0032     0.0991     0.0464     0.2078     1.9047    74.2400     0.1336     0.3725
  234    4.660   2290.19     0.1697     0.0035     0.0986     0.0466     0.2115     2.0921    74.5600     0.1370     0.3872
  235    4.680   2291.23     0.1666     0.0036     0.1023     0.0468     0.2092     2.1553    74.8800     0.1343     0.4067
  236    4.700   2292.22     0.1666     0.0035     0.0963     0.0470     0.2084     2.0705    75.2000     0.1332     0.3929
  237    4.720   2293.24     0.1642     0.0036     0.0889     0.0472     0.2023     2.2221    75.5200     0.1267     0.3433
  238    4.740   2294.23     0.1594     0.0034     0.0894     0.0474     0.1965     2.1312    75.8400     0.1206     0.3399
  239    4.760   2295.26     0.1543     0.0037     0.1012     0.0476     0.1954     2.3554    76.1600     0.1192     0.4215
  240    4.780   2296.25     0.1539     0.0037     0.0971     0.0478     0.1951     2.3795    76.4800     0.1186     0.4230
  241    4.800   2297.24     0.1540     0.0036     0.1045     0.0480     0.1975     2.3719    76.8000     0.1207     0.4592
  242    4.820   2298.22     0.1575     0.0034     0.1060     0.0482     0.2016     2.1339    77.1200     0.1245     0.4570
  243    4.840   2299.23     0.1565     0.0038     0.1075     0.0484     0.2018     2.4198    77.4400     0.1243     0.4776
  244    4.860   2300.22     0.1531     0.0037     0.1021     0.0486     0.1968     2.4381    77.7600     0.1191     0.4654
  245    4.880   2301.21     0.1550     0.0037     0.0969     0.0488     0.1964     2.3986    78.0800     0.1184     0.4208
  246    4.900   2302.22     0.1503     0.0037     0.0993     0.0490     0.1912     2.4612    78.4000     0.1128     0.4297
  247    4.920   2303.22     0.1535     0.0037     0.1007     0.0492     0.1953     2.4411    78.7200     0.1166     0.4314
  248    4.940   2304.22     0.1516     0.0038     0.0959     0.0494     0.1929     2.4641    79.0400     0.1138     0.4282
  249    4.960   2305.20     0.1497     0.0039     0.1021     0.0496     0.1917     2.5464    79.3600     0.1123     0.4481
  250    4.980   2306.20     0.1516     0.0040     0.1078     0.0498     0.1969     2.6287    79.6800     0.1172     0.4952
  251    5.000   2307.22     0.1505     0.0040     0.1013     0.0500     0.1938     2.6405    80.0000     0.1138     0.4657
  252    5.020   2308.22     0.1506     0.0038     0.1014     0.0502     0.1928     2.5103    80.3200     0.1125     0.4475
  253    5.040   2312.26     0.1511     0.0039     0.1051     0.0504     0.1955     2.6025    80.6400     0.1148     0.4809
  254    5.060   2324.15     0.1556     0.0037     0.1037     0.0506     0.1994     2.5005    80.9600     0.1184     0.4539
  255    5.080   2336.03     0.1601     0.0041     0.1023     0.0508     0.2033     2.7332    81.2800     0.1220     0.4270
  256    5.100   2342.89     0.1645     0.0039     0.1092     0.0510     0.2106     2.3467    81.6000     0.1290     0.4552
  257    5.120   2343.90     0.1657     0.0039     0.1101     0.0512     0.2126     2.3609    81.9200     0.1307     0.4629
  258    5.140   2344.91     0.1628     0.0044     0.1081     0.0514     0.2082     2.6948    82.2400     0.1259     0.4498
  259    5.160   2345.92     0.1667     0.0047     0.1088     0.0516     0.2127     2.8011    82.5600     0.1301     0.4447
  260    5.180   2346.93     0.1720     0.0049     0.1033     0.0518     0.2177     2.8524    82.8800     0.1348     0.4228
  261    5.200   2347.92     0.1962     0.0052     0.0813     0.0520     0.2322     2.6990    83.2000     0.1490     0.2265
  262    5.220   2348.89     0.2116     0.0051     0.0487     0.0522     0.2378     2.4225    83.5200     0.1543     0.0651
  263    5.240   2349.93     0.2011     0.0052     0.0803     0.0524     0.2273     2.5616    83.8400     0.1434     0.0679
  264    5.260   2350.89     0.1957     0.0052     0.0899     0.0526     0.2351     2.6761    84.1600     0.1510     0.2735
  265    5.280   2351.85     0.1922     0.0054     0.0948     0.0528     0.2306     2.7894    84.4800     0.1461     0.2645
  266    5.300   2352.86     0.1866     0.0055     0.0995     0.0530     0.2275     2.9073    84.8000     0.1427     0.3111
  267    5.320   2353.85     0.1890     0.0051     0.1012     0.0532     0.2319     2.6784    85.1200     0.1468     0.3327
  268    5.340   2354.91     0.1875     0.0051     0.0964     0.0534     0.2271     2.7140    85.4400     0.1416     0.2886
  269    5.360   2355.94     0.1839     0.0048     0.0916     0.0536     0.2209     2.6267    85.7600     0.1351     0.2547
  270    5.380   2356.95     0.1732     0.0047     0.1072     0.0538     0.2169     2.6636    86.0800     0.1308     0.3847
  271    5.400   2357.87     0.1679     0.0040     0.1043     0.0540     0.2134     2.3982    86.4000     0.1270     0.4293
  272    5.420   2358.75     0.1636     0.0043     0.1060     0.0542     0.2067     2.6017    86.7200     0.1199     0.4031
  273    5.440   2359.68     0.1593     0.0040     0.1113     0.0544     0.2056     2.4852    87.0400     0.1185     0.4708
  274    5.460   2360.68     0.1528     0.0038     0.1149     0.0546     0.2006     2.5074    87.3600     0.1132     0.5221
  275    5.480   2361.71     0.1533     0.0036     0.1168     0.0548     0.2026     2.3717    87.6800     0.1149     0.5437
  276    5.500   2362.72     0.1545     0.0037     0.1096     0.0550     0.2003     2.3924    88.0000     0.1123     0.4819
  277    5.520   2363.76     0.1516     0.0035     0.1160     0.0552     0.2003     2.3067    88.3200     0.1120     0.5424
  278    5.540   2364.77     0.1508     0.0035     0.1115     0.0554     0.1977     2.3035    88.6400     0.1091     0.5163
  279    5.560   2365.74     0.1490     0.0038     0.1114     0.0556     0.1969     2.5525    88.9600     0.1080     0.5429
  280    5.580   2366.72     0.1518     0.0038     0.1112     0.0558     0.1976     2.4846    89.2800     0.1084     0.4916
  281    5.600   2367.75     0.1553     0.0038     0.1051     0.0560     0.1999     2.4646    89.6000     0.1103     0.4554
  282    5.620   2368.78     0.1651     0.0037     0.1089     0.0562     0.2110     2.3040    89.9200     0.1211     0.4397
  283    5.640   2369.82     0.1703     0.0043     0.1049     0.0564     0.2148     2.5557    90.2400     0.1245     0.3972
  284    5.660   2370.75     0.1744     0.0039     0.0933     0.0566     0.2157     2.2204    90.5600     0.1252     0.3335
  285    5.680   2371.58     0.1760     0.0041     0.0914     0.0568     0.2138     2.3468    90.8800     0.1229     0.2698
  286    5.700   2372.39     0.1728     0.0043     0.1005     0.0570     0.2131     2.4795    91.2000     0.1219     0.3193
  287    5.720   2373.23     0.1706     0.0043     0.1061     0.0572     0.2149     2.5516    91.5200     0.1234     0.3924
  288    5.740   2374.23     0.1723     0.0038     0.1048     0.0574     0.2166     2.2070    91.8400     0.1248     0.3851
  289    5.760   2375.37     0.1756     0.0040     0.1014     0.0576     0.2199     2.2764    92.1600     0.1277     0.3740
  290    5.780   2376.36     0.1706     0.0039     0.1022     0.0578     0.2130     2.2513    92.4800     0.1205     0.3574
  291    5.800   2377.36     0.1707     0.0036     0.1117     0.0580     0.2166     2.0896    92.8000     0.1238     0.4144
  292    5.820   2378.36     0.1681     0.0037     0.1186     0.0582     0.2174     2.2253    93.1200     0.1242     0.4765
  293    5.840   2379.36     0.1676     0.0035     0.1157     0.0584     0.2160     2.1126    93.4400     0.1225     0.4642
  294    5.860   2380.33     0.1683     0.0034     0.1168     0.0586     0.2176     1.9852    93.7600     0.1239     0.4754
  295    5.880   2381.40     0.1674     0.0036     0.1175     0.0588     0.2171     2.1589    94.0800     0.1230     0.4835
  296    5.900   2382.41     0.1702     0.0040     0.1193     0.0590     0.2197     2.3219    94.4000     0.1253     0.4700
  297    5.920   2383.42     0.1716     0.0039     0.1216     0.0592     0.2220     2.2551    94.7200     0.1273     0.4786
  298    5.940   2384.41     0.1712     0.0040     0.1249     0.0594     0.2229     2.3283    95.0400     0.1279     0.4987
  299    5.960   2385.38     0.1759     0.0039     0.1254     0.0596     0.2283     2.1969    95.3600     0.1329     0.4892
  300    5.980   2386.38     0.1813     0.0040     0.1262     0.0598     0.2347     2.2252    95.6800     0.1390     0.4851
  301    6.000   2387.44     0.1772     0.0041     0.1227     0.0600     0.2290     2.3318    96.0000     0.1330     0.4760
  302    6.020   2388.50     0.1787     0.0038     0.1272     0.0602     0.2317     2.1053    96.3200     0.1353     0.4859
  303    6.040   2389.46     0.1788     0.0041     0.1282     0.0604     0.2331     2.2814    96.6400     0.1365     0.5053
  304    6.060   2390.44     0.1795     0.0039     0.1296     0.0606     0.2341     2.1889    96.9600     0.1371     0.5067
  305    6.080   2391.43     0.1770     0.0041     0.1317     0.0608     0.2323     2.3098    97.2800     0.1351     0.5257
  306    6.100   2392.41     0.1748     0.0043     0.1334     0.0610     0.2308     2.4578    97.6000     0.1332     0.5418
  307    6.120   2393.45     0.1807     0.0041     0.1326     0.0612     0.2366     2.3039    97.9200     0.1387     0.5181
  308    6.140   2394.43     0.1806     0.0040     0.1318     0.0614     0.2362     2.2102    98.2400     0.1379     0.5135
  309    6.160   2395.49     0.1794     0.0038     0.1323     0.0616     0.2347     2.1269    98.5600     0.1361     0.5139
  310    6.180   2396.50     0.1781     0.0041     0.1357     0.0618     0.2348     2.2936    98.8800     0.1359     0.5393
  311    6.200   2397.49     0.1784     0.0042     0.1411     0.0620     0.2370     2.3712    99.2000     0.1378     0.5625
  312    6.220   2398.45     0.1754     0.0042     0.1420     0.0622     0.2350     2.3733    99.5200     0.1355     0.5883
  313    6.240   2399.41     0.1789     0.0043     0.1452     0.0624     0.2393     2.3993    99.8400     0.1395     0.5840
  314    6.260   2400.42     0.1789     0.0041     0.1491     0.0626     0.2410     2.3147   100.1600     0.1408     0.6054
  315    6.280   2401.38     0.1860     0.0041     0.1478     0.0628     0.2490     2.2111   100.4800     0.1485     0.5869
  316    6.300   2402.43     0.1845     0.0042     0.1431     0.0630     0.2457     2.2430   100.8000     0.1449     0.5705
  317    6.320   2403.47     0.1888     0.0042     0.1496     0.0632     0.2506     2.2536   101.1200     0.1495     0.5620
  318    6.340   2404.43     0.1944     0.0047     0.1446     0.0634     0.2561     2.4425   101.4400     0.1546     0.5404
  319    6.360   2405.42     0.1981     0.0048     0.1400     0.0636     0.2568     2.4529   101.7600     0.1551     0.4913
  320    6.380   2406.35     0.2009     0.0047     0.1358     0.0638     0.2581     2.3358   102.0800     0.1560     0.4640
  321    6.400   2407.36     0.2022     0.0045     0.1390     0.0640     0.2605     2.2293   102.4000     0.1581     0.4727
  322    6.420   2408.42     0.2060     0.0047     0.1339     0.0642     0.2618     2.2748   102.7200     0.1591     0.4314
  323    6.440   2409.38     0.2147     0.0046     0.1375     0.0644     0.2723     2.1520   103.0400     0.1693     0.4305
  324    6.460   2410.39     0.2081     0.0051     0.1373     0.0646     0.2663     2.3885   103.3600     0.1629     0.4538
  325    6.480   2411.43     0.2102     0.0057     0.1341     0.0648     0.2660     2.6732   103.6800     0.1624     0.4196
  326    6.500   2412.41     0.2107     0.0062     0.1374     0.0650     0.2684     2.9579   104.0000     0.1644     0.4404
  327    6.520   2413.42     0.1953     0.0056     0.1327     0.0652     0.2516     2.7458   104.3200     0.1473     0.4666
  328    6.540   2414.38     0.2038     0.0054     0.1335     0.0654     0.2591     2.6636   104.6400     0.1545     0.4290
  329    6.560   2420.88     0.2026     0.0051     0.1356     0.0656     0.2595     2.5373   104.9600     0.1545     0.4517
  330    6.580   2435.77     0.2048     0.0051     0.1362     0.0658     0.2619     2.5412   105.2800     0.1567     0.4484
  331    6.600   2450.66     0.2070     0.0054     0.1369     0.0660     0.2644     2.6669   105.6000     0.1588     0.4451
  332    6.620   2458.79     0.2118     0.0055     0.1458     0.0662     0.2722     2.6223   105.9200     0.1663     0.4662
  333    6.640   2459.44     0.2169     0.0054     0.1388     0.0664     0.2759     2.5070   106.2400     0.1696     0.4358
  334    6.660   2460.13     0.2226     0.0056     0.1424     0.0666     0.2811     2.5012   106.5600     0.1745     0.4160
  335    6.680   2460.76     0.2239     0.0057     0.1366     0.0668     0.2825     2.5276   106.8800     0.1756     0.4135
  336    6.700   2461.39     0.2277     0.0058     0.1440     0.0670     0.2883     2.5525   107.2000     0.1811     0.4260
  337    6.720   2462.04     0.2336     0.0060     0.1385     0.0672     0.2928     2.5963   107.5200     0.1853     0.3980
  338    6.740   2462.65     0.2393     0.0063     0.1356     0.0674     0.2965     2.6354   107.8400     0.1886     0.3636
  339    6.760   2463.30     0.2388     0.0062     0.1305     0.0676     0.2942     2.5665   108.1600     0.1861     0.3463
  340    6.780   2463.97     0.2353     0.0053     0.1308     0.0678     0.2904     2.2627   108.4800     0.1819     0.3474
  341    6.800   2464.58     0.2341     0.0062     0.1388     0.0680     0.2903     2.6423   108.8000     0.1815     0.3617
  342    6.820   2465.24     0.2340     0.0062     0.1531     0.0682     0.2962     2.6499   109.1200     0.1871     0.4272
  343    6.840   2465.87     0.2346     0.0061     0.1524     0.0684     0.3014     2.6203   109.4400     0.1919     0.4719
  344    6.860   2466.54     0.2366     0.0064     0.1309     0.0686     0.2928     2.7084   109.7600     0.1830     0.3551
  345    6.880   2470.96     0.1793     0.0067     0.1458     0.0688     0.2438     3.6409   110.0800     0.1337     0.6391
  346    6.900   2497.63     0.2181     0.0065     0.1233     0.0690     0.2732     3.6645   110.4000     0.1628     0.4123
  347    6.920   2517.23     0.2480     0.0062     0.1091     0.0692     0.2957     2.5013   110.7200     0.1849     0.2389
  348    6.940   2519.48     0.2014     0.0065     0.1161     0.0694     0.2589     3.2828   111.0400     0.1479     0.4633
  349    6.960   2520.52     0.2526     0.0066     0.1096     0.0696     0.2979     2.5979   111.3600     0.1866     0.2059
  350    6.980   2521.49     0.2513     0.0067     0.1127     0.0698     0.2985     2.6542   111.6800     0.1869     0.2279
  351    7.000   2522.50     0.2483     0.0069     0.1227     0.0700     0.2990     2.7373   112.0000     0.1870     0.2708
  352    7.020   2523.55     0.2532     0.0063     0.1258     0.0702     0.3062     2.5317   112.3200     0.1939     0.2891
  353    7.040   2524.57     0.2518     0.0066     0.1361     0.0704     0.3073     2.5973   112.6400     0.1946     0.3163
  354    7.060   2525.59     0.2459     0.0059     0.1381     0.0706     0.3044     2.4071   112.9600     0.1914     0.3582
  355    7.080   2526.58     0.2399     0.0055     0.1391     0.0708     0.2960     2.3021   113.2800     0.1827     0.3440
  356    7.100   2527.64     0.2302     0.0058     0.1465     0.0710     0.2907     2.5083   113.6000     0.1771     0.4128
  357    7.120   2528.65     0.2203     0.0057     0.1522     0.0712     0.2830     2.5711   113.9200     0.1691     0.4620
  358    7.140   2529.63     0.2188     0.0055     0.1559     0.0714     0.2840     2.5133   114.2400     0.1698     0.4943
  359    7.160   2530.67     0.2150     0.0052     0.1551     0.0716     0.2803     2.4089   114.5600     0.1657     0.5055
  360    7.180   2531.64     0.2114     0.0054     0.1589     0.0718     0.2774     2.5394   114.8800     0.1625     0.5250
  361    7.200   2532.65     0.2101     0.0053     0.1642     0.0720     0.2777     2.5421   115.2000     0.1625     0.5475
  362    7.220   2533.75     0.2131     0.0056     0.1688     0.0722     0.2830     2.6135   115.5200     0.1675     0.5618
  363    7.240   2534.73     0.2159     0.0056     0.1757     0.0724     0.2887     2.6039   115.8400     0.1729     0.5836
  364    7.260   2535.74     0.2138     0.0056     0.1707     0.0726     0.2869     2.6259   116.1600     0.1708     0.5949
  365    7.280   2536.71     0.2174     0.0057     0.1654     0.0728     0.2873     2.6125   116.4800     0.1708     0.5482
  366    7.300   2537.73     0.2221     0.0060     0.1697     0.0730     0.2923     2.6955   116.8000     0.1755     0.5363
  367    7.320   2538.76     0.2231     0.0060     0.1812     0.0732     0.2976     2.6987   117.1200     0.1805     0.5777
  368    7.340   2539.83     0.2191     0.0061     0.1836     0.0734     0.2961     2.7742   117.4400     0.1787     0.6159
  369    7.360   2540.83     0.2203     0.0058     0.1834     0.0736     0.2971     2.6363   117.7600     0.1794     0.6102
  370    7.380   2541.80     0.2271     0.0058     0.1781     0.0738     0.3038     2.5559   118.0800     0.1857     0.5862
  371    7.400   2542.83     0.2236     0.0054     0.1722     0.0740     0.2935     2.4177   118.4000     0.1751     0.5279
  372    7.420   2543.83     0.2247     0.0056     0.1927     0.0742     0.3044     2.5054   118.7200     0.1857     0.6216
  373    7.440   2544.83     0.2263     0.0056     0.1922     0.0744     0.3073     2.4524   119.0400     0.1883     0.6299
  374    7.460   2545.86     0.2285     0.0057     0.1882     0.0746     0.3082     2.5256   119.3600     0.1888     0.6099
  375    7.480   2546.89     0.2269     0.0053     0.1920     0.0748     0.3066     2.3347   119.6800     0.1869     0.6152
  376    7.500   2547.88     0.2304     0.0055     0.1859     0.0750     0.3103     2.3667   120.0000     0.1903     0.6050
  377    7.520   2548.84     0.2315     0.0053     0.1920     0.0752     0.3114     2.2884   120.3200     0.1911     0.6025
  378    7.540   2549.92     0.2306     0.0057     0.1953     0.0754     0.3122     2.4529   120.6400     0.1916     0.6204
  379    7.560   2550.93     0.2293     0.0060     0.1955     0.0756     0.3120     2.6052   120.9600     0.1911     0.6354
  380    7.580   2551.98     0.2297     0.0059     0.1878     0.0758     0.3108     2.5564   121.2800     0.1895     0.6186
  381    7.600   2552.99     0.2295     0.0062     0.1874     0.0760     0.3075     2.6882   121.6000     0.1859     0.5900
  382    7.620   2554.01     0.2297     0.0061     0.1914     0.0762     0.3102     2.6718   121.9200     0.1883     0.6141
  383    7.640   2555.01     0.2275     0.0058     0.1861     0.0764     0.3049     2.5491   122.2400     0.1827     0.5906
  384    7.660   2556.06     0.2226     0.0057     0.1970     0.0766     0.3047     2.5551   122.5600     0.1822     0.6532
  385    7.680   2557.04     0.2238     0.0062     0.1975     0.0768     0.3061     2.7566   122.8800     0.1832     0.6503
  386    7.700   2558.07     0.2219     0.0059     0.2010     0.0770     0.3056     2.6608   123.2000     0.1824     0.6704
  387    7.720   2559.06     0.2251     0.0058     0.2071     0.0772     0.3121     2.5852   123.5200     0.1885     0.6892
  388    7.740   2560.07     0.2321     0.0058     0.2038     0.0774     0.3182     2.4882   123.8400     0.1944     0.6560
  389    7.760   2561.11     0.2357     0.0053     0.1985     0.0776     0.3200     2.2475   124.1600     0.1958     0.6284
  390    7.780   2562.13     0.2336     0.0054     0.1876     0.0778     0.3145     2.3285   124.4800     0.1900     0.6045
  391    7.800   2563.10     0.2357     0.0058     0.1910     0.0780     0.3152     2.4436   124.8000     0.1904     0.5846
  392    7.820   2564.14     0.2321     0.0063     0.1879     0.0782     0.3117     2.7332   125.1200     0.1866     0.5967
  393    7.840   2565.12     0.2347     0.0061     0.1896     0.0784     0.3142     2.5839   125.4400     0.1887     0.5871
  394    7.860   2566.15     0.2266     0.0064     0.1864     0.0786     0.3055     2.8164   125.7600     0.1797     0.6080
  395    7.880   2567.15     0.2217     0.0062     0.1791     0.0788     0.2981     2.8000   126.0800     0.1720     0.5991
  396    7.900   2568.12     0.2175     0.0059     0.1915     0.0790     0.2957     2.7288   126.4000     0.1693     0.6335
  397    7.920   2569.19     0.2106     0.0056     0.1997     0.0792     0.2937     2.6706   126.7200     0.1670     0.7111
  398    7.940   2570.22     0.2089     0.0054     0.2017     0.0794     0.2938     2.5703   127.0400     0.1668     0.7372
  399    7.960   2571.20     0.2111     0.0050     0.1977     0.0796     0.2930     2.3823   127.3600     0.1656     0.6969
  400    7.980   2572.23     0.2163     0.0053     0.2053     0.0798     0.3019     2.4760   127.6800     0.1742     0.7123
  401    8.000   2573.22     0.2309     0.0058     0.1974     0.0800     0.3163     2.5301   128.0000     0.1883     0.6556
  402    8.020   2574.23     0.2407     0.0060     0.1962     0.0802     0.3203     2.5132   128.3200     0.1920     0.5690
  403    8.040   2575.25     0.2498     0.0065     0.1878     0.0804     0.3304     2.6091   128.6400     0.2018     0.5531
  404    8.060   2576.26     0.2608     0.0067     0.1779     0.0806     0.3365     2.5733   128.9600     0.2076     0.4802
  405    8.080   2577.26     0.2676     0.0070     0.1846     0.0808     0.3431     2.6317   129.2800     0.2138     0.4624
  406    8.100   2578.27     0.2767     0.0072     0.1855     0.0810     0.3563     2.6038   129.6000     0.2267     0.4782
  407    8.120   2579.30     0.2772     0.0069     0.1761     0.0812     0.3519     2.5053   129.9200     0.2220     0.4353
  408    8.140   2580.37     0.2768     0.0070     0.1801     0.0814     0.3527     2.5238   130.2400     0.2224     0.4459
  409    8.160   2581.38     0.2655     0.0066     0.1760     0.0816     0.3396     2.4889   130.5600     0.2090     0.4534
  410    8.180   2582.37     0.2590     0.0064     0.1919     0.0818     0.3362     2.4649   130.8800     0.2053     0.4970
  411    8.200   2583.40     0.2519     0.0063     0.2081     0.0820     0.3377     2.5119   131.2000     0.2065     0.5923
  412    8.220   2584.35     0.2443     0.0058     0.2132     0.0822     0.3347     2.3783   131.5200     0.2032     0.6544
  413    8.240   2585.39     0.2470     0.0057     0.2066     0.0824     0.3337     2.3053   131.8400     0.2019     0.6140
  414    8.260   2586.39     0.2494     0.0060     0.2142     0.0826     0.3380     2.4095   132.1600     0.2058     0.6239
  415    8.280   2587.46     0.2537     0.0061     0.2144     0.0828     0.3441     2.3897   132.4800     0.2116     0.6260
  416    8.300   2588.47     0.2493     0.0057     0.2131     0.0830     0.3384     2.2809   132.8000     0.2056     0.6283
  417    8.320   2589.43     0.2611     0.0058     0.2108     0.0832     0.3520     2.2242   133.1200     0.2189     0.6083
  418    8.340   2590.44     0.2654     0.0061     0.2097     0.0834     0.3536     2.2848   133.4400     0.2202     0.5751
  419    8.360   2591.45     0.2694     0.0061     0.2137     0.0836     0.3602     2.2795   133.7600     0.2265     0.5855
  420    8.380   2592.46     0.2742     0.0067     0.1980     0.0838     0.3573     2.4578   134.0800     0.2232     0.5111
  421    8.400   2593.54     0.2735     0.0067     0.1958     0.0840     0.3564     2.4490   134.4000     0.2220     0.5112
  422    8.420   2594.55     0.2627     0.0069     0.2039     0.0842     0.3483     2.6293   134.7200     0.2136     0.5595
  423    8.440   2595.54     0.2583     0.0065     0.2048     0.0844     0.3470     2.5000   135.0400     0.2120     0.5984
  424    8.460   2596.58     0.2581     0.0064     0.2089     0.0846     0.3462     2.4954   135.3600     0.2109     0.5943
  425    8.480   2597.59     0.2548     0.0060     0.2168     0.0848     0.3446     2.3265   135.6800     0.2089     0.6175
  426    8.500   2598.58     0.2528     0.0061     0.2253     0.0850     0.3470     2.4199   136.0000     0.2110     0.6606
  427    8.520   2599.61     0.2496     0.0063     0.2237     0.0852     0.3427     2.5002   136.3200     0.2064     0.6614
  428    8.540   2600.62     0.2456     0.0068     0.2044     0.0854     0.3361     2.7668   136.6400     0.1995     0.6514
  429    8.560   2601.65     0.2336     0.0064     0.2226     0.0856     0.3247     2.7397   136.9600     0.1878     0.6997
  430    8.580   2602.65     0.2288     0.0055     0.2241     0.0858     0.3219     2.4192   137.2800     0.1846     0.7357
  431    8.600   2603.68     0.2302     0.0053     0.2237     0.0860     0.3241     2.2954   137.6000     0.1865     0.7381
  432    8.620   2604.72     0.2202     0.0050     0.2361     0.0862     0.3183     2.2664   137.9200     0.1804     0.8166
  433    8.640   2605.75     0.2199     0.0050     0.2422     0.0864     0.3215     2.2720   138.2400     0.1833     0.8494
  434    8.660   2606.76     0.2407     0.0056     0.2287     0.0866     0.3390     2.3352   138.5600     0.2005     0.7364
  435    8.680   2607.74     0.2662     0.0059     0.2139     0.0868     0.3583     2.3023   138.8800     0.2194     0.6044
  436    8.700   2608.74     0.2859     0.0059     0.2124     0.0870     0.3745     2.0865   139.2000     0.2353     0.5267
  437    8.720   2609.76     0.2979     0.0061     0.2056     0.0872     0.3857     2.0517   139.5200     0.2462     0.4948
  438    8.740   2610.81     0.2946     0.0063     0.2206     0.0874     0.3846     2.1216   139.8400     0.2448     0.5182
  439    8.760   2611.82     0.2952     0.0067     0.2336     0.0876     0.3915     2.2694   140.1600     0.2513     0.5639
  440    8.780   2612.83     0.3037     0.0065     0.2313     0.0878     0.4019     2.1621   140.4800     0.2614     0.5592
  441    8.800   2613.84     0.3124     0.0065     0.2157     0.0880     0.4048     2.1007   140.8000     0.2640     0.5003
  442    8.820   2614.85     0.3058     0.0064     0.2097     0.0882     0.3943     2.0737   141.1200     0.2531     0.4837
  443    8.840   2615.85     0.3058     0.0071     0.2311     0.0884     0.3995     2.2676   141.4400     0.2580     0.5212
  444    8.860   2616.85     0.3188     0.0078     0.2443     0.0886     0.4200     2.5080   141.7600     0.2783     0.5478
  445    8.880   2617.86     0.3505     0.0081     0.2489     0.0888     0.4550     2.4136   142.0800     0.3130     0.5120
  446    8.900   2618.93     0.3759     0.0086     0.2159     0.0890     0.4755     2.3468   142.4000     0.3331     0.4447
  447    8.920   2619.94     0.3609     0.0091     0.1703     0.0892     0.4413     2.4230   142.7200     0.2986     0.3419
  448    8.940   2629.61     0.3424     0.0096     0.1705     0.0894     0.4126     3.3196   143.0400     0.2695     0.2921
  449    8.960   2647.20     0.3153     0.0098     0.1806     0.0896     0.3897     3.3670   143.3600     0.2464     0.3591
  450    8.980   2655.05     0.2931     0.0085     0.2026     0.0898     0.3700     2.8112   143.6800     0.2263     0.4123
  451    9.000   2656.10     0.2898     0.0070     0.2396     0.0900     0.3865     2.4143   144.0000     0.2425     0.5774
  452    9.020   2657.09     0.2976     0.0074     0.2453     0.0902     0.4000     2.4944   144.3200     0.2557     0.6006
  453    9.040   2658.14     0.3100     0.0079     0.2460     0.0904     0.4132     2.5616   144.6400     0.2685     0.5787
  454    9.060   2659.14     0.3214     0.0054     0.2578     0.0906     0.4268     1.7056   144.9600     0.2819     0.5695
  455    9.080   2660.11     0.3906     0.0053     0.2677     0.0908     0.5023     1.4515   145.2800     0.3570     0.4919
  456    9.100   2661.12     0.5059     0.0063     0.2464     0.0910     0.6155     1.3565   145.6000     0.4699     0.3641
  457    9.120   2662.21     0.7090     0.0085     0.2015     0.0912     0.7990     1.2113   145.9200     0.6530     0.1931
  458    9.140   2663.23     1.2745     0.0140     0.1584     0.0914     1.3508     1.1347   146.2400     1.2046     0.0766
  459    9.160   2664.27     1.4628     0.0193     0.1055     0.0916     1.5108     1.3226   146.5600     1.3642     0.0163
  460    9.180   2665.28     1.1398     0.0214     0.0776     0.0918     1.1760     1.8690   146.8800     1.0291    -0.0061
  461    9.200   2666.24     0.8709     0.0213     0.0900     0.0920     0.9044     2.4512   147.2000     0.7572    -0.0157
  462    9.220   2667.25     0.6781     0.0214     0.1273     0.0922     0.7263     3.1404   147.5200     0.5788     0.0400
  463    9.240   2668.32     0.5643     0.0222     0.1293     0.0924     0.6206     3.8901   147.8400     0.4727     0.0880
  464    9.260   2669.35     0.5039     0.0204     0.1357     0.0926     0.5583     3.9839   148.1600     0.4102     0.0906
  465    9.280   2670.32     0.4681     0.0163     0.1505     0.0928     0.5283     3.4701   148.4800     0.3798     0.1334
  466    9.300   2671.35     0.4466     0.0134     0.1777     0.0930     0.5162     3.0047   148.8000     0.3674     0.1976
  467    9.320   2672.32     0.4176     0.0103     0.1976     0.0932     0.4985     2.4512   149.1200     0.3494     0.2847
  468    9.340   2673.34     0.3752     0.0086     0.2134     0.0934     0.4629     2.2668   149.4400     0.3134     0.3686
  469    9.360   2674.31     0.3468     0.0076     0.2253     0.0936     0.4388     2.1383   149.7600     0.2890     0.4338
  470    9.380   2675.38     0.3461     0.0084     0.2385     0.0938     0.4465     2.4132   150.0800     0.2965     0.4899
  471    9.400   2676.42     0.3673     0.0079     0.2265     0.0940     0.4644     2.1444   150.4000     0.3140     0.4366
  472    9.420   2677.43     0.3581     0.0101     0.2241     0.0942     0.4523     2.8123   150.7200     0.3015     0.4315
  473    9.440   2678.38     0.3398     0.0077     0.2323     0.0944     0.4347     2.2673   151.0400     0.2836     0.4641
  474    9.460   2679.44     0.4023     0.0066     0.2436     0.0946     0.5037     1.6698   151.3600     0.3524     0.4168
  475    9.480   2680.44     0.4475     0.0069     0.2440     0.0948     0.5511     1.5499   151.6800     0.3994     0.3801
  476    9.500   2681.44     0.5102     0.0101     0.2275     0.0950     0.6031     1.9031   152.0000     0.4511     0.2796
  477    9.520   2682.39     0.7644     0.0140     0.2092     0.0952     0.8605     2.1591   152.3200     0.7082     0.1894
  478    9.540   2683.43     1.2249     0.0167     0.1203     0.0954     1.2804     1.5488   152.6400     1.1277     0.0327
  479    9.560   2684.49     1.0909     0.0158     0.0680     0.0956     1.1246     1.3273   152.9600     0.9717    -0.0161
  480    9.580   2685.52     0.8400     0.0154     0.0796     0.0958     0.8704     1.6774   153.2800     0.7172    -0.0324
  481    9.600   2691.34     0.6820     0.0155     0.1007     0.0960     0.7212     2.3150   153.6000     0.5676     0.0037
  482    9.620   2700.86     0.5243     0.0156     0.1190     0.0962     0.5723     2.3381   153.9200     0.4184     0.0493
  483    9.640   2703.78     0.3940     0.0146     0.1765     0.0964     0.4554     3.6486   154.2400     0.3012     0.1688
  484    9.660   2704.75     0.3501     0.0109     0.2413     0.0966     0.4445     3.0506   154.5600     0.2900     0.4425
  485    9.680   2705.75     0.3304     0.0097     0.2676     0.0968     0.4400     2.9366   154.8800     0.2851     0.5755
  486    9.700   2706.81     0.3214     0.0144     0.2829     0.0970     0.4387     4.4805   155.2000     0.2835     0.6430
  487    9.720   2707.85     0.3184     0.0187     0.2838     0.0972     0.4374     5.8669   155.5200     0.2819     0.6605
  488    9.740   2708.83     0.3013     0.0220     0.2879     0.0974     0.4210     7.0834   155.8400     0.2652     0.7075
  489    9.760   2709.85     0.3035     0.0247     0.2985     0.0976     0.4275     7.4898   156.1600     0.2714     0.7288
  490    9.780   2710.86     0.3415     0.0273     0.3130     0.0978     0.4706     7.8962   156.4800     0.3141     0.6683
  491    9.800   2711.87     0.7363     0.0364     0.2949     0.0980     0.8687     6.9065   156.8000     0.7119     0.3246
  492    9.820   2712.86     2.2306     0.0375     0.1357     0.0982     2.3139     1.7447   157.1200     2.1568     0.0511
  493    9.840   2713.91     4.7608     0.0463     0.0797     0.0984     4.7950     1.2917   157.4400     4.6376    -0.0036
  494    9.860   2716.31     8.4204     0.0561     0.0766     0.0986     8.4531     1.1580   157.7600     8.2953    -0.0030
  495    9.880   2718.74    12.0951     0.0636     0.0736     0.0988    12.1265     1.3137   158.0800    11.9684    -0.0023
  496    9.900   2720.77    15.5779     0.0707     0.0919     0.0990    15.6099     0.4894   158.4000    15.4515    -0.0015
  497    9.920   2722.95    16.9561     0.0751     0.0881     0.0992    16.9941     0.4676   158.7200    16.8354    -0.0005
  498    9.940   2724.07    19.0931     0.0770     0.0825     0.0994    19.1329     0.4190   159.0400    18.9739    -0.0002
  499    9.960   2725.15    21.1488     0.0755     0.0720     0.0996    21.1816     0.3710   159.3600    21.0222    -0.0010
  500    9.980   2726.16    22.2314     0.0736     0.0908     0.0998    22.2689     0.3350   159.6800    22.1092    -0.0005
  501   10.000   2727.23    22.7605     0.0729     0.1001     0.1000    22.8005     0.3236   160.0000    22.6405    -0.0002
  502   10.020   2728.23    23.0581     0.0748     0.0924     0.1002    23.0974     0.3249   160.3200    22.9371    -0.0003
  503   10.040   2729.27    22.9428     0.0761     0.0994     0.1004    22.9834     0.3310   160.6400    22.8228    -0.0002
  504   10.060   2730.33    23.0024     0.0754     0.0970     0.1006    23.0437     0.3283   160.9600    22.8828    -0.0001
  505   10.080   2731.32    23.3934     0.0735     0.0933     0.1008    23.4347     0.3145   161.2800    23.2734    -0.0001
  506   10.100   2732.32    23.6402     0.0743     0.0827     0.1010    23.6725     0.3145   161.6000    23.5109    -0.0010
  507   10.120   2733.31    24.0257     0.0715     0.0913     0.1012    24.0646     0.2982   161.9200    23.9027    -0.0004
  508   10.140   2734.33    24.4815     0.0643     0.0893     0.1014    24.5194     0.2647   162.2400    24.3572    -0.0005
  509   10.160   2735.31    25.3783     0.0605     0.0910     0.1016    25.4129     0.2391   162.5600    25.2503    -0.0008
  510   10.180   2736.28    26.6750     0.0550     0.1010     0.1018    26.7176     0.2067   162.8800    26.5547     0.0000
  511   10.200   2737.30    28.6945     0.0526     0.0948     0.1020    28.7346     0.1845   163.2000    28.5714    -0.0002
  512   10.220   2738.32    31.1459     0.0567     0.0921     0.1022    31.1844     0.1843   163.5200    31.0209    -0.0003
  513   10.240   2739.38    33.4433     0.0617     0.0762     0.1024    33.4782     0.1867   163.8400    33.3144    -0.0006
  514   10.260   2740.42    34.2146     0.0617     0.0877     0.1026    34.2511     0.1806   164.1600    34.0870    -0.0005
  515   10.280   2741.38    33.5943     0.0621     0.0778     0.1028    33.6257     0.1841   164.4800    33.4612    -0.0008
  516   10.300   2742.34    32.4151     0.0583     0.0889     0.1030    32.4523     0.1792   164.8000    32.2875    -0.0004
  517   10.320   2743.30    31.0992     0.0549     0.0841     0.1032    31.1353     0.1761   165.1200    30.9701    -0.0006
  518   10.340   2744.25    30.8882     0.0601     0.0899     0.1034    30.9241     0.1946   165.4400    30.7586    -0.0006
  519   10.360   2745.29    32.1863     0.0649     0.0840     0.1036    32.2244     0.2029   165.7600    32.0587    -0.0004
  520   10.380   2746.34    33.3174     0.0689     0.0911     0.1038    33.3542     0.2078   166.0800    33.1881    -0.0005
  521   10.400   2747.36    34.2966     0.0690     0.0925     0.1040    34.3290     0.2023   166.4000    34.1626    -0.0008
  522   10.420   2748.36    34.8390     0.0638     0.0869     0.1042    34.8797     0.1835   166.7200    34.7129    -0.0002
  523   10.440   2749.33    34.6460     0.0549     0.0227     0.1044    34.6708     0.1584   167.0400    34.5037    -0.0013
  524   10.460   2750.30    34.1043     0.0418    -0.0416     0.1046    34.0917     0.1224   167.3600    33.9244    -0.0040
  525   10.480   2751.29    32.9799     0.0325    -0.0680     0.1048    32.9581     0.0977   167.6800    32.7904    -0.0048
  526   10.500   2752.30    31.5991     0.0343    -0.0610     0.1050    31.5677     0.1078   168.0000    31.3997    -0.0057
  527   10.520   2753.31    30.2782     0.0387    -0.0380     0.1052    30.2575     0.1270   168.3200    30.0891    -0.0051
  528   10.540   2754.31    29.1875     0.0439     0.0096     0.1054    29.1851     0.1500   168.6400    29.0165    -0.0038
  529   10.560   2755.28    28.8343     0.0464     0.0632     0.1056    28.8569     0.1608   168.9600    28.6879    -0.0018
  530   10.580   2756.27    29.0002     0.0414     0.0584     0.1058    29.0239     0.1430   169.2800    28.8546    -0.0017
  531   10.600   2757.25    29.1045     0.0355     0.0763     0.1060    29.1333     0.1221   169.6000    28.9637    -0.0013
  532   10.620   2758.26    29.8317     0.0328     0.0900     0.1062    29.8673     0.1107   169.9200    29.6973    -0.0007
  533   10.640   2759.30    30.4205     0.0349     0.0921     0.1064    30.4562     0.1151   170.2400    30.2859    -0.0007
  534   10.660   2760.29    30.2946     0.0517     0.0959     0.1066    30.3383     0.1704   170.5600    30.1677    -0.0001
  535   10.680   2761.31    29.5537     0.0425     0.0981     0.1068    29.5949     0.1439   170.8800    29.4241    -0.0003
  536   10.700   2762.27    29.2833     0.0397     0.0913     0.1070    29.3205     0.1356   171.2000    29.1493    -0.0006
  537   10.720   2763.26    29.3242     0.0407     0.0906     0.1072    29.3633     0.1387   171.5200    29.1918    -0.0005
  538   10.740   2764.22    29.0041     0.0419     0.1021     0.1074    29.0465     0.1444   171.8400    28.8747    -0.0002
  539   10.760   2766.28    26.5538     0.0454     0.0983     0.1076    26.5980     0.1721   172.1600    26.4258    -0.0001
  540   10.780   2768.39    26.5946     0.0456     0.1060     0.1078    26.6384     0.1705   172.4800    26.4659    -0.0001
  541   10.800   2769.36    25.9923     0.0446     0.0979     0.1080    26.0308     0.1718   172.8000    25.8580    -0.0006
  542   10.820   2770.34    25.2664     0.0499     0.1084     0.1082    25.3117     0.1975   173.1200    25.1385     0.0000
  543   10.840   2771.35    24.5584     0.0491     0.1071     0.1084    24.6030     0.1997   173.4400    24.4295    -0.0001
  544   10.860   2772.35    24.0033     0.0468     0.1046     0.1086    24.0487     0.1935   173.7600    23.8749     0.0000
  545   10.880   2773.35    23.3813     0.0384     0.1023     0.1088    23.4241     0.1628   174.0800    23.2501    -0.0003
  546   10.900   2774.82    22.8715     0.0314     0.1117     0.1090    22.9178     0.1457   174.4000    22.7434     0.0001
  547   10.920   2816.16    22.9713     0.0312     0.1116     0.1092    23.0181     0.1469   174.7200    22.8434     0.0001
  548   10.940   2840.94    23.6967     0.0413     0.1082     0.1094    23.7413     0.1751   175.0400    23.5663    -0.0001
  549   10.960   2841.98    26.1495     0.0387     0.1031     0.1096    26.1948     0.1500   175.3600    26.0194    -0.0001
  550   10.980   2843.01    28.3822     0.0385     0.1062     0.1098    28.4274     0.1376   175.6800    28.2517    -0.0001
  551   11.000   2844.02    29.3502     0.0386     0.1110     0.1100    29.3959     0.1318   176.0000    29.2199     0.0000
  552   11.020   2845.01    28.9658     0.0445     0.1091     0.1102    29.0132     0.1527   176.3200    28.8369     0.0001
  553   11.040   2845.97    27.8399     0.0588     0.1107     0.1104    27.8837     0.2097   176.6400    27.7070    -0.0002
  554   11.060   2846.98    26.9831     0.0712     0.1117     0.1106    27.0333     0.2630   176.9600    26.8563     0.0003
  555   11.080   2847.94    26.5991     0.0742     0.1122     0.1108    26.6460     0.2787   177.2800    26.4687     0.0000
  556   11.100   2848.91    26.7551     0.0729     0.1049     0.1110    26.8003     0.2727   177.6000    26.6227    -0.0001
  557   11.120   2849.88    26.9858     0.0782     0.1076     0.1112    27.0314     0.2901   177.9200    26.8535    -0.0001
  558   11.140   2850.91    27.1384     0.0766     0.1070     0.1114    27.1808     0.2822   178.2400    27.0025    -0.0004
  559   11.160   2851.90    27.3031     0.0729     0.0848     0.1116    27.3379     0.2675   178.5600    27.1594    -0.0011
  560   11.180   2852.88    28.0440     0.0726     0.0898     0.1118    28.0857     0.2596   178.8800    27.9068    -0.0004
  561   11.200   2853.91    30.0636     0.0722     0.0884     0.1120    30.1022     0.2424   179.2000    29.9230    -0.0007
  562   11.220   2854.92    31.6932     0.0792     0.0794     0.1122    31.7298     0.2521   179.5200    31.5503    -0.0008
  563   11.240   2855.93    32.3430     0.0850     0.0825     0.1124    32.3809     0.2643   179.8400    32.2011    -0.0007
  564   11.260   2856.92    32.3087     0.0924     0.0914     0.1126    32.3415     0.2855   180.1600    32.1613    -0.0011
  565   11.280   2857.93    31.8381     0.1015     0.0868     0.1128    31.8716     0.3175   180.4800    31.6911    -0.0010
  566   11.300   2858.86    31.1384     0.1104     0.0963     0.1130    31.1785     0.3515   180.8000    30.9977    -0.0006
  567   11.320   2859.81    30.0784     0.1199     0.1060     0.1132    30.1233     0.3948   181.1200    29.9422    -0.0002
  568   11.340   2860.77    28.9045     0.1345     0.1148     0.1134    28.9500     0.4618   181.4400    28.7686    -0.0002
  569   11.360   2861.80    27.7692     0.1498     0.1198     0.1136    27.8191     0.5338   181.7600    27.6373     0.0002
  570   11.380   2862.80    26.7789     0.1597     0.1002     0.1138    26.8242     0.5892   182.0800    26.6421    -0.0002
  571   11.400   2863.79    26.0153     0.1661     0.1319     0.1140    26.0682     0.6340   182.4000    25.8858     0.0005
  572   11.420   2864.72    25.5027     0.1705     0.1134     0.1142    25.5462     0.6672   182.7200    25.3635    -0.0004
  573   11.440   2865.69    24.9923     0.1751     0.1068     0.1144    25.0500     0.6991   183.0400    24.8670     0.0009
  574   11.460   2866.66    24.7187     0.1805     0.1011     0.1146    24.7661     0.7290   183.3600    24.5828    -0.0001
  575   11.480   2867.64    24.5165     0.1888     0.0934     0.1148    24.5602     0.7702   183.6800    24.3765    -0.0004
  576   11.500   2868.64    24.5959     0.1961     0.0908     0.1150    24.6309     0.7989   184.0000    24.4469    -0.0013
  577   11.520   2869.64    24.8717     0.2019     0.1062     0.1152    24.9147     0.8131   184.3200    24.7303    -0.0005
  578   11.540   2870.65    25.2360     0.2055     0.1256     0.1154    25.2869     0.8150   184.6400    25.1023     0.0002
  579   11.560   2871.65    25.6343     0.2084     0.0983     0.1156    25.6813     0.8139   184.9600    25.4964    -0.0001
  580   11.580   2872.63    26.0123     0.2047     0.1043     0.1158    26.0598     0.7876   185.2800    25.8745    -0.0001
  581   11.600   2873.60    26.4078     0.2008     0.1107     0.1160    26.4533     0.7621   185.6000    26.2677    -0.0003
  582   11.620   2874.63    26.8432     0.1964     0.1127     0.1162    26.8848     0.7318   185.9200    26.6989    -0.0006
  583   11.640   2875.66    27.3664     0.1938     0.1162     0.1164    27.4134     0.7092   186.2400    27.2272    -0.0002
  584   11.660   2876.67    27.9063     0.1886     0.1033     0.1166    27.9515     0.6781   186.5600    27.7649    -0.0003
  585   11.680   2877.70    28.6827     0.1861     0.1060     0.1168    28.7266     0.6516   186.8800    28.5397    -0.0004
  586   11.700   2878.71    29.5718     0.1849     0.1269     0.1170    29.6230     0.6283   187.2000    29.4358     0.0002
  587   11.720   2879.70    30.4696     0.1894     0.1125     0.1172    30.5183     0.6235   187.5200    30.3308     0.0000
  588   11.740   2880.70    31.0666     0.1872     0.1060     0.1174    31.1126     0.6033   187.8400    30.9247    -0.0003
  589   11.760   2881.66    31.3198     0.1815     0.1026     0.1176    31.3635     0.5797   188.1600    31.1754    -0.0004
  590   11.780   2882.70    31.5435     0.1800     0.1186     0.1178    31.5905     0.5710   188.4800    31.4020    -0.0002
  591   11.800   2883.71    32.0408     0.1834     0.1040     0.1180    32.0882     0.5733   188.8000    31.8994    -0.0002
  592   11.820   2884.73    32.7575     0.1855     0.1095     0.1182    32.8057     0.5677   189.1200    32.6165    -0.0001
  593   11.840   2885.73    33.5242     0.1896     0.0806     0.1184    33.5591     0.5673   189.4400    33.3696    -0.0011
  594   11.860   2886.73    34.1595     0.1853     0.0891     0.1186    34.1975     0.5439   189.7600    34.0077    -0.0008
  595   11.880   2887.73    34.5711     0.1757     0.0879     0.1188    34.6089     0.5092   190.0800    34.4188    -0.0008
  596   11.900   2888.75    34.5574     0.1748     0.0854     0.1190    34.5922     0.5049   190.4000    34.4018    -0.0011
  597   11.920   2889.74    33.8099     0.1825     0.0793     0.1192    33.8446     0.5373   190.7200    33.6539    -0.0011
  598   11.940   2890.74    32.4271     0.1923     0.0764     0.1194    32.4609     0.5880   191.0400    32.2699    -0.0012
  599   11.960   2891.67    30.9421     0.1886     0.0859     0.1196    30.9729     0.6073   191.3600    30.7815    -0.0015
  600   11.980   2892.63    29.7996     0.1898     0.0839     0.1198    29.8410     0.6363   191.6800    29.6493    -0.0007
  601   12.000   2893.67    29.1597     0.1921     0.1133     0.1200    29.1998     0.6581   192.0000    29.0078    -0.0008
  602   12.020   2894.68    28.8968     0.1985     0.1498     0.1202    28.9584     0.6869   192.3200    28.7661     0.0009
  603   12.040   2895.69    29.0372     0.2056     0.1707     0.1204    29.1052     0.7089   192.6400    28.9126     0.0014
  604   12.060   2896.72    29.3020     0.2098     0.1078     0.1206    29.3498     0.7167   192.9600    29.1569    -0.0002
  605   12.080   2897.67    29.6644     0.2109     0.1317     0.1208    29.7193     0.7118   193.2800    29.5260     0.0003
  606   12.100   2898.71    30.0371     0.2096     0.1069     0.1210    30.0841     0.6987   193.6000    29.8905    -0.0003
  607   12.120   2899.74    30.4403     0.2109     0.0915     0.1212    30.4768     0.6942   193.9200    30.2829    -0.0011
  608   12.140   2900.73    30.8386     0.2095     0.0759     0.1214    30.8719     0.6800   194.2400    30.6776    -0.0014
  609   12.160   2901.72    31.2416     0.2109     0.1085     0.1216    31.2836     0.6755   194.5600    31.0890    -0.0007
  610   12.180   2902.69    31.4634     0.2162     0.1291     0.1218    31.5137     0.6880   194.8800    31.3188    -0.0001
  611   12.200   2903.69    31.6445     0.2188     0.1066     0.1220    31.6920     0.6916   195.2000    31.4968    -0.0003
  612   12.220   2904.72    31.8084     0.2186     0.1240     0.1222    31.8587     0.6875   195.5200    31.6632    -0.0001
  613   12.240   2905.75    32.0585     0.2248     0.1137     0.1224    32.1072     0.7014   195.8400    31.9114    -0.0002
  614   12.260   2906.78    32.3568     0.2345     0.1221     0.1226    32.4052     0.7248   196.1600    32.2090    -0.0002
  615   12.280   2907.80    32.6913     0.2495     0.1143     0.1228    32.7439     0.7634   196.4800    32.5475     0.0001
  616   12.300   2908.80    32.9753     0.2620     0.1207     0.1230    33.0211     0.7949   196.8000    32.8243    -0.0004
  617   12.320   2909.79    33.0204     0.2637     0.1252     0.1232    33.0721     0.7986   197.1200    32.8749     0.0000
  618   12.340   2910.79    32.9102     0.2641     0.1566     0.1234    32.9706     0.8024   197.4400    32.7731     0.0006
  619   12.360   2911.82    32.8370     0.2666     0.1346     0.1236    32.8958     0.8116   197.7600    32.6980     0.0005
  620   12.380   2912.86    32.6042     0.2650     0.1122     0.1238    32.6549     0.8123   198.0800    32.4569    -0.0001
  621   12.400   2913.88    32.6391     0.2594     0.1057     0.1240    32.6887     0.7951   198.4000    32.4903    -0.0002
  622   12.420   2914.90    32.9558     0.2534     0.1176     0.1242    33.0003     0.7693   198.7200    32.8016    -0.0006
  623   12.440   2915.83    32.9762     0.2499     0.0994     0.1244    33.0163     0.7579   199.0400    32.8173    -0.0009
  624   12.460   2916.84    32.4769     0.2528     0.1287     0.1246    32.5306     0.7776   199.3600    32.3313     0.0001
  625   12.480   2917.89    31.8727     0.2581     0.1127     0.1248    31.9245     0.8083   199.6800    31.7249     0.0000
  626   12.500   2918.89    31.7196     0.2641     0.0978     0.1250    31.7623     0.8322   200.0000    31.5623    -0.0007
  627   12.520   2919.91    31.5443     0.2644     0.1065     0.1252    31.5809     0.8376   200.3200    31.3806    -0.0012
  628   12.540   2920.92    31.2234     0.2650     0.1290     0.1254    31.2777     0.8478   200.6400    31.0771     0.0001
  629   12.560   2921.91    30.5498     0.2695     0.1367     0.1256    30.6069     0.8799   200.9600    30.4060     0.0003
  630   12.580   2922.89    29.7373     0.2668     0.1330     0.1258    29.7972     0.8940   201.2800    29.5959     0.0006
  631   12.600   2923.88    28.9652     0.2574     0.1225     0.1260    29.0194     0.8853   201.6000    28.8178     0.0001
  632   12.620   2924.91    28.3755     0.2437     0.1001     0.1262    28.4134     0.8547   201.9200    28.2115    -0.0013
  633   12.640   2925.91    27.7717     0.2227     0.1059     0.1264    27.8136     0.7982   202.2400    27.6113    -0.0010
  634   12.660   2926.91    27.0515     0.2073     0.1164     0.1266    27.0981     0.7625   202.5600    26.8955    -0.0006
  635   12.680   2927.87    26.2553     0.1986     0.1082     0.1268    26.3019     0.7525   202.8800    26.0990    -0.0006
  636   12.700   2928.85    25.5667     0.1877     0.1086     0.1270    25.6125     0.7303   203.2000    25.4093    -0.0007
  637   12.720   2929.81    25.0322     0.1758     0.1068     0.1272    25.0773     0.6997   203.5200    24.8738    -0.0008
  638   12.740   2930.85    24.7670     0.1702     0.1085     0.1274    24.8122     0.6865   203.8400    24.6083    -0.0008
  639   12.760   2931.82    24.7215     0.1684     0.1247     0.1276    24.7712     0.6816   204.1600    24.5671    -0.0004
  640   12.780   2932.81    24.8150     0.1735     0.1269     0.1278    24.8697     0.7005   204.4800    24.6652     0.0001
  641   12.800   2933.75    24.9728     0.1842     0.1218     0.1280    25.0244     0.7384   204.8000    24.8196    -0.0002
  642   12.820   2934.73    25.1334     0.1862     0.1154     0.1282    25.1808     0.7416   205.1200    24.9757    -0.0006
  643   12.840   2935.68    25.2769     0.1863     0.1429     0.1284    25.3328     0.7378   205.4400    25.1274     0.0002
  644   12.860   2936.73    25.4401     0.1876     0.1355     0.1286    25.4971     0.7390   205.7600    25.2913     0.0003
  645   12.880   2937.71    25.6145     0.1865     0.1347     0.1288    25.6734     0.7302   206.0800    25.4673     0.0004
  646   12.900   2938.72    25.8305     0.1814     0.1344     0.1290    25.8869     0.7035   206.4000    25.6805     0.0002
  647   12.920   2939.70    26.2083     0.1804     0.1099     0.1292    26.2574     0.6942   206.7200    26.0506    -0.0005
  648   12.940   2943.85    26.7032     0.1787     0.1072     0.1294    26.7486     0.6736   207.0400    26.5416    -0.0008
  649   12.960   2957.15    26.9921     0.1770     0.1045     0.1296    27.0364     0.6646   207.3600    26.8290    -0.0009
  650   12.980   2970.44    27.2810     0.1764     0.1048     0.1298    27.3242     0.6525   207.6800    27.1165    -0.0010
  651   13.000   2972.38    27.5302     0.1781     0.1209     0.1300    27.5796     0.6473   208.0000    27.3716    -0.0004
  652   13.020   2973.37    27.4328     0.1810     0.1237     0.1302    27.4828     0.6589   208.3200    27.2744    -0.0004
  653   13.040   2974.40    27.2322     0.1811     0.1189     0.1304    27.2843     0.6642   208.6400    27.0757    -0.0002
  654   13.060   2975.40    27.0368     0.1740     0.1239     0.1306    27.0867     0.6424   208.9600    26.8777    -0.0004
  655   13.080   2976.40    26.6849     0.1694     0.1305     0.1308    26.7412     0.6327   209.2800    26.5319     0.0001
  656   13.100   2977.35    26.2586     0.1739     0.1199     0.1310    26.3095     0.6601   209.6000    26.0999    -0.0004
  657   13.120   2978.28    25.5164     0.1765     0.1230     0.1312    25.5672     0.6905   209.9200    25.3572    -0.0004
  658   13.140   2979.28    24.7112     0.1783     0.1325     0.1314    24.7654     0.7209   210.2400    24.5552    -0.0001
  659   13.160   2980.30    24.3788     0.1882     0.1426     0.1316    24.4383     0.7720   210.5600    24.2277     0.0004
  660   13.180   2981.31    24.6584     0.2008     0.1418     0.1318    24.7178     0.8212   210.8800    24.5070     0.0004
  661   13.200   2982.31    25.8542     0.2102     0.1452     0.1320    25.9142     0.8330   211.2000    25.7030     0.0004
  662   13.220   2983.33    28.0004     0.2114     0.1520     0.1322    28.0663     0.7761   211.5200    27.8548     0.0009
  663   13.240   2984.31    30.9608     0.2091     0.1556     0.1324    31.0256     0.6986   211.8400    30.8138     0.0007
  664   13.260   2985.34    34.1482     0.2157     0.1290     0.1326    34.2084     0.6502   212.1600    33.9962     0.0003
  665   13.280   2986.45    37.3803     0.2237     0.0721     0.1328    37.4188     0.6195   212.4800    37.2064    -0.0011
  666   13.300   2987.51    40.4374     0.2209     0.0479     0.1330    40.4595     0.5626   212.8000    40.2467    -0.0020
  667   13.320   2988.59    42.4055     0.2090     0.0764     0.1332    42.4314     0.5012   213.1200    42.2182    -0.0017
  668   13.340   2989.62    43.1982     0.2009     0.0875     0.1334    43.2324     0.4677   213.4400    43.0189    -0.0012
  669   13.360   2990.64    43.4668     0.1990     0.1037     0.1336    43.5063     0.4588   213.7600    43.2926    -0.0009
  670   13.380   2991.60    43.2432     0.1894     0.1021     0.1338    43.2891     0.4364   214.0800    43.0750    -0.0006
  671   13.400   2992.63    42.9052     0.1777     0.1011     0.1340    42.9442     0.4127   214.4000    42.7298    -0.0010
  672   13.420   2993.76    42.7722     0.1646     0.1261     0.1342    42.8236     0.3860   214.7200    42.6089    -0.0003
  673   13.440   2994.77    42.2564     0.1515     0.1170     0.1344    42.3046     0.3594   215.0400    42.0896    -0.0005
  674   13.460   2995.80    41.1607     0.1386     0.1266     0.1346    41.2130     0.3336   215.3600    40.9976    -0.0002
  675   13.480   2996.80    39.1737     0.1278     0.1185     0.1348    39.2279     0.3223   215.6800    39.0123    -0.0001
  676   13.500   2997.77    36.8420     0.1202     0.1214     0.1350    36.8880     0.3220   216.0000    36.6720    -0.0007
  677   13.520   2999.36    34.7906     0.1138     0.1274     0.1352    34.8432     0.3129   216.3200    34.6269    -0.0003
  678   13.540   3001.11    32.8165     0.1091     0.1334     0.1354    32.8717     0.3000   216.6400    32.6550    -0.0001
  679   13.560   3002.86    30.8425     0.1128     0.1388     0.1356    30.9002     0.3233   216.9600    30.6833     0.0001
  680   13.580   3004.16    30.2544     0.1087     0.1346     0.1358    30.3083     0.3597   217.2800    30.0910    -0.0002
  681   13.600   3005.18    31.6631     0.0981     0.1355     0.1360    31.7170     0.3117   217.6000    31.4994    -0.0002
  682   13.620   3006.20    33.6192     0.0992     0.1359     0.1362    33.6782     0.2964   217.9200    33.4602     0.0001
  683   13.640   3007.16    34.1749     0.1010     0.1419     0.1364    34.2350     0.2954   218.2400    34.0168     0.0002
  684   13.660   3008.16    32.9676     0.1046     0.1452     0.1366    33.0298     0.3133   218.5600    32.8112     0.0003
  685   13.680   3009.17    31.5254     0.0976     0.1369     0.1368    31.5810     0.3081   218.8800    31.3621    -0.0001
  686   13.700   3010.21    30.9590     0.0847     0.1395     0.1370    31.0166     0.2735   219.2000    30.7974     0.0000
  687   13.720   3011.20    31.0373     0.0841     0.1368     0.1372    31.0924     0.2714   219.5200    30.8729    -0.0002
  688   13.740   3012.22    31.5005     0.0895     0.1313     0.1374    31.5577     0.2843   219.8400    31.3378     0.0000
  689   13.760   3013.24    31.2246     0.0922     0.1365     0.1376    31.2818     0.2946   220.1600    31.0617     0.0000
  690   13.780   3014.24    30.8481     0.0936     0.1271     0.1378    30.9024     0.3030   220.4800    30.6820    -0.0003
  691   13.800   3015.19    30.8838     0.0929     0.1331     0.1380    30.9400     0.3009   220.8000    30.7192    -0.0001
  692   13.820   3016.19    30.8627     0.0866     0.1381     0.1382    30.9207     0.2806   221.1200    30.6996     0.0000
  693   13.840   3017.26    30.5672     0.0783     0.1317     0.1384    30.6233     0.2559   221.4400    30.4019    -0.0002
  694   13.860   3018.27    30.1404     0.0713     0.1376     0.1386    30.1986     0.2365   221.7600    29.9769     0.0000
  695   13.880   3019.26    29.9246     0.0649     0.1365     0.1388    29.9818     0.2164   222.0800    29.7598    -0.0001
  696   13.900   3020.28    30.2939     0.0637     0.1369     0.1390    30.3491     0.2107   222.4000    30.1267    -0.0002
  697   13.920   3021.28    31.5190     0.0690     0.1401     0.1392    31.5781     0.2195   222.7200    31.3554     0.0001
  698   13.940   3022.31    33.1040     0.0712     0.1410     0.1394    33.1625     0.2160   223.0400    32.9394     0.0000
  699   13.960   3023.36    34.0128     0.0748     0.1300     0.1396    34.0686     0.2205   223.3600    33.8452    -0.0002
  700   13.980   3024.38    34.3643     0.0778     0.1391     0.1398    34.4223     0.2270   223.6800    34.1986    -0.0001
  701   14.000   3025.34    34.1859     0.0775     0.1436     0.1400    34.2436     0.2260   224.0000    34.0196    -0.0001
  702   14.020   3026.29    32.9665     0.0766     0.1370     0.1402    33.0251     0.2318   224.3200    32.8008     0.0000
  703   14.040   3027.33    30.6009     0.0728     0.1397     0.1404    30.6612     0.2358   224.6400    30.4366     0.0001
  704   14.060   3028.31    29.1360     0.0650     0.1440     0.1406    29.1961     0.2224   224.9600    28.9711     0.0001
  705   14.080   3029.31    28.1253     0.0677     0.1281     0.1408    28.1801     0.2407   225.2800    27.9548    -0.0004
  706   14.100   3030.34    28.3593     0.0728     0.1428     0.1410    28.4198     0.2570   225.6000    28.1942     0.0001
  707   14.120   3031.33    29.5119     0.0722     0.1360     0.1412    29.5674     0.2459   225.9200    29.3414    -0.0003
  708   14.140   3032.34    31.5535     0.0721     0.1305     0.1414    31.6096     0.2366   226.2400    31.3834    -0.0002
  709   14.160   3033.31    33.7227     0.0782     0.1404     0.1416    33.7806     0.2371   226.5600    33.5541    -0.0001
  710   14.180   3034.37    34.7670     0.0798     0.1453     0.1418    34.8275     0.2317   226.8800    34.6006     0.0001
  711   14.200   3035.40    35.2574     0.0813     0.1465     0.1420    35.3199     0.2325   227.2000    35.0927     0.0002
  712   14.220   3036.46    35.7032     0.0810     0.1389     0.1422    35.7658     0.2272   227.5200    35.5382     0.0002
  713   14.240   3037.49    36.4810     0.0879     0.1462     0.1424    36.5390     0.2416   227.8400    36.3112    -0.0001
  714   14.260   3038.53    36.9470     0.0982     0.1492     0.1426    37.0080     0.2661   228.1600    36.7798     0.0001
  715   14.280   3039.51    36.8310     0.1062     0.1394     0.1428    36.8929     0.2882   228.4800    36.6644     0.0001
  716   14.300   3040.54    36.2538     0.0974     0.1429     0.1430    36.3139     0.2682   228.8000    36.0851     0.0000
  717   14.320   3041.53    35.5687     0.0939     0.1422     0.1432    35.6282     0.2637   229.1200    35.3991     0.0000
  718   14.340   3042.48    35.1465     0.0905     0.1536     0.1434    35.2096     0.2571   229.4400    34.9802     0.0002
  719   14.360   3043.49    34.5141     0.0848     0.1571     0.1436    34.5759     0.2456   229.7600    34.3461     0.0001
  720   14.380   3044.53    34.3911     0.0845     0.1553     0.1438    34.4541     0.2458   230.0800    34.2240     0.0002
  721   14.400   3045.54    34.9802     0.0910     0.1322     0.1440    35.0401     0.2607   230.4000    34.8097     0.0000
  722   14.420   3046.56    36.0420     0.0971     0.1468     0.1442    36.1048     0.2699   230.7200    35.8741     0.0001
  723   14.440   3047.54    36.8921     0.1037     0.1492     0.1444    36.9529     0.2817   231.0400    36.7218     0.0000
  724   14.460   3048.62    37.1071     0.1034     0.1406     0.1446    37.1663     0.2786   231.3600    36.9349    -0.0001
  725   14.480   3049.60    36.7314     0.1040     0.1500     0.1448    36.7956     0.2816   231.6800    36.5640     0.0002
  726   14.500   3050.61    35.1345     0.1023     0.1463     0.1450    35.1968     0.2899   232.0000    34.9647     0.0001
  727   14.520   3051.59    33.5964     0.0924     0.1539     0.1452    33.6590     0.2742   232.3200    33.4267     0.0001
  728   14.540   3052.53    32.0688     0.0801     0.1603     0.1454    32.1370     0.2440   232.6400    31.9043     0.0005
  729   14.560   3053.51    31.2865     0.0739     0.1373     0.1456    31.3463     0.2348   232.9600    31.1133    -0.0001
  730   14.580   3054.54    31.2443     0.0781     0.1430     0.1458    31.3050     0.2501   233.2800    31.0717     0.0000
  731   14.600   3055.59    31.7218     0.0856     0.1436     0.1460    31.7819     0.2700   233.6000    31.5484    -0.0001
  732   14.620   3056.63    33.0560     0.0951     0.1511     0.1462    33.1206     0.2881   233.9200    32.8867     0.0002
  733   14.640   3057.65    35.3355     0.1009     0.1423     0.1464    35.3959     0.2867   234.2400    35.1616    -0.0001
  734   14.660   3058.72    37.2284     0.1079     0.1501     0.1466    37.2919     0.2914   234.5600    37.0573     0.0001
  735   14.680   3059.67    37.7864     0.1181     0.1575     0.1468    37.8510     0.3126   234.8800    37.6161     0.0002
  736   14.700   3060.65    37.3158     0.1224     0.1487     0.1470    37.3813     0.3273   235.2000    37.1461     0.0002
  737   14.720   3061.69    36.1675     0.1254     0.1533     0.1472    36.2300     0.3457   235.5200    35.9944     0.0000
  738   14.740   3062.71    34.9660     0.1254     0.1599     0.1474    35.0332     0.3565   235.8400    34.7974     0.0004
  739   14.760   3063.69    33.7415     0.1222     0.1504     0.1476    33.8050     0.3602   236.1600    33.5689     0.0001
  740   14.780   3064.68    32.7056     0.1298     0.1437     0.1478    32.7675     0.3945   236.4800    32.5310     0.0000
  741   14.800   3065.61    31.6739     0.1360     0.1399     0.1480    31.7301     0.4276   236.8000    31.4933    -0.0004
  742   14.820   3066.65    30.6707     0.1426     0.1685     0.1482    30.7391     0.4626   237.1200    30.5020     0.0005
  743   14.840   3067.67    29.8691     0.1480     0.1550     0.1484    29.9353     0.4926   237.4400    29.6979     0.0003
  744   14.860   3068.61    29.2238     0.1534     0.1388     0.1486    29.2891     0.5227   237.7600    29.0513     0.0002
  745   14.880   3069.57    28.8306     0.1627     0.1517     0.1488    28.9001     0.5633   238.0800    28.6620     0.0006
  746   14.900   3070.63    28.4969     0.1750     0.1604     0.1490    28.5525     0.6122   238.4000    28.3141    -0.0006
  747   14.920   3073.39    27.9752     0.1839     0.1347     0.1492    28.0297     0.6542   238.7200    27.7910    -0.0007
  748   14.940   3085.60    27.3161     0.1980     0.1489     0.1494    27.3766     0.7053   239.0400    27.1375    -0.0002
  749   14.960   3097.81    26.6569     0.2099     0.1632     0.1496    26.7234     0.7476   239.3600    26.4840     0.0003
  750   14.980   3104.06    26.2883     0.2239     0.1616     0.1498    26.3641     0.8512   239.6800    26.1244     0.0012
  751   15.000   3105.03    25.9662     0.2370     0.1592     0.1500    26.0381     0.9113   240.0000    25.7981     0.0008
  752   15.020   3106.02    25.6046     0.2440     0.1325     0.1502    25.6546     0.9517   240.3200    25.4143    -0.0012
  753   15.040   3107.01    25.3763     0.2430     0.1741     0.1504    25.4419     0.9566   240.6400    25.2012     0.0002
  754   15.060   3108.02    25.0901     0.2426     0.1378     0.1506    25.1582     0.9662   240.9600    24.9172     0.0005
  755   15.080   3109.05    24.8600     0.2429     0.1170     0.1508    24.9071     0.9757   241.2800    24.6659    -0.0016
  756   15.100   3110.02    24.8259     0.2436     0.1403     0.1510    24.8819     0.9814   241.6000    24.6403    -0.0007
  757   15.120   3111.05    24.9849     0.2445     0.1585     0.1512    25.0513     0.9792   241.9200    24.8093     0.0003
  758   15.140   3112.01    25.1489     0.2531     0.1479     0.1514    25.2071     1.0069   242.2400    24.9649    -0.0005
  759   15.160   3112.99    25.5657     0.2581     0.1589     0.1516    25.6261     1.0098   242.5600    25.3836    -0.0003
  760   15.180   3114.00    26.0443     0.2630     0.1497     0.1518    26.1109     1.0121   242.8800    25.8681     0.0003
  761   15.200   3115.04    26.4730     0.2682     0.1271     0.1520    26.5317     1.0158   243.2000    26.2885    -0.0005
  762   15.220   3116.07    26.8822     0.2727     0.1575     0.1522    26.9457     1.0164   243.5200    26.7022     0.0000
  763   15.240   3117.05    26.7975     0.2725     0.1579     0.1524    26.8619     1.0149   243.8400    26.6180     0.0000
  764   15.260   3118.04    26.4040     0.2750     0.1544     0.1526    26.4729     1.0379   244.1600    26.2287     0.0004
  765   15.280   3119.03    25.8925     0.2724     0.1657     0.1528    25.9611     1.0507   244.4800    25.7167     0.0004
  766   15.300   3119.96    25.3985     0.2648     0.1461     0.1530    25.4633     1.0412   244.8000    25.2185     0.0001
  767   15.320   3120.97    24.8224     0.2572     0.1528     0.1532    24.8865     1.0346   245.1200    24.6414     0.0000
  768   15.340   3121.98    24.1791     0.2474     0.1352     0.1534    24.2409     1.0204   245.4400    23.9955    -0.0003
  769   15.360   3122.97    23.8553     0.2388     0.1503     0.1536    23.9119     0.9943   245.7600    23.6661    -0.0008
  770   15.380   3124.05    23.5970     0.2307     0.1383     0.1538    23.6640     0.9774   246.0800    23.4180     0.0002
  771   15.400   3125.04    23.6151     0.2350     0.1616     0.1540    23.6844     0.9956   246.4000    23.4380     0.0005
  772   15.420   3126.01    24.1021     0.2334     0.1580     0.1542    24.1731     0.9790   246.7200    23.9264     0.0006
  773   15.440   3127.02    25.3422     0.2301     0.1622     0.1544    25.4090     0.9281   247.0400    25.1619     0.0002
  774   15.460   3128.04    27.0175     0.2199     0.1673     0.1546    27.0883     0.8361   247.3600    26.8410     0.0005
  775   15.480   3129.11    28.8062     0.2119     0.1924     0.1548    28.8836     0.7416   247.6800    28.6360     0.0010
  776   15.500   3130.15    30.1368     0.2158     0.1129     0.1550    30.1938     0.7295   248.0000    29.9458    -0.0006
  777   15.520   3131.17    31.1778     0.2057     0.1111     0.1552    31.2277     0.6659   248.3200    30.9794    -0.0012
  778   15.540   3132.22    32.0217     0.1819     0.0925     0.1554    32.0629     0.5681   248.6400    31.8143    -0.0018
  779   15.560   3133.26    32.6843     0.1694     0.1060     0.1556    32.7270     0.5189   248.9600    32.4781    -0.0017
  780   15.580   3134.24    33.1437     0.1563     0.1178     0.1558    33.1915     0.4722   249.2800    32.9422    -0.0013
  781   15.600   3135.28    33.4571     0.1499     0.1352     0.1560    33.5139     0.4483   249.6000    33.2643    -0.0006
  782   15.620   3136.29    33.5958     0.1464     0.1207     0.1562    33.6432     0.4357   249.9200    33.3932    -0.0013
  783   15.640   3137.32    32.9076     0.1295     0.1128     0.1564    32.9590     0.3904   250.2400    32.7088    -0.0010
  784   15.660   3138.32    31.3871     0.1127     0.1267     0.1566    31.4385     0.3520   250.5600    31.1879    -0.0011
  785   15.680   3139.29    29.4271     0.0979     0.1214     0.1568    29.4783     0.3251   250.8800    29.2274    -0.0012
  786   15.700   3140.24    27.4190     0.0910     0.1465     0.1570    27.4784     0.3233   251.2000    27.2272    -0.0006
  787   15.720   3141.23    25.3441     0.0853     0.1406     0.1572    25.4010     0.3290   251.5200    25.1495    -0.0009
  788   15.740   3142.17    23.8396     0.0764     0.1490     0.1574    23.9021     0.3149   251.8400    23.6502    -0.0004
  789   15.760   3143.09    22.7061     0.0680     0.1429     0.1576    22.7658     0.2963   252.1600    22.5136    -0.0007
  790   15.780   3144.14    21.7879     0.0647     0.1392     0.1578    21.8550     0.2937   252.4800    21.6025     0.0001
  791   15.800   3145.05    21.1694     0.0664     0.1543     0.1580    21.2364     0.3124   252.8000    20.9836     0.0001
  792   15.820   3146.06    20.5189     0.0630     0.1541     0.1582    20.5843     0.3067   253.1200    20.3312    -0.0001
  793   15.840   3146.99    20.3888     0.0541     0.1539     0.1584    20.4522     0.2655   253.4400    20.1987    -0.0004
  794   15.860   3147.98    20.4312     0.0482     0.1637     0.1586    20.5002     0.2358   253.7600    20.2464     0.0003
  795   15.880   3148.96    21.0517     0.0427     0.1557     0.1588    21.1182     0.2030   254.0800    20.8641     0.0000
  796   15.900   3150.02    22.6140     0.0398     0.1581     0.1590    22.6795     0.1768   254.4000    22.4251    -0.0001
  797   15.920   3151.07    25.0429     0.0433     0.1625     0.1592    25.1089     0.1742   254.7200    24.8542    -0.0001
  798   15.940   3152.09    27.3506     0.0514     0.1625     0.1594    27.4194     0.1888   255.0400    27.1643     0.0002
  799   15.960   3153.13    28.6074     0.0587     0.1627     0.1596    28.6746     0.2060   255.3600    28.4192     0.0000
  800   15.980   3154.09    29.2792     0.0631     0.1696     0.1598    29.3481     0.2156   255.6800    29.0924     0.0001
  801   16.000   3155.09    29.1974     0.0712     0.1551     0.1600    29.2665     0.2437   256.0000    29.0105     0.0002
  802   16.020   3156.10    28.4691     0.0740     0.1610     0.1602    28.5385     0.2584   256.3200    28.2822     0.0002
  803   16.040   3157.09    27.5566     0.0772     0.1617     0.1604    27.6247     0.2786   256.6400    27.3681     0.0001
  804   16.060   3158.10    26.5062     0.0844     0.1642     0.1606    26.5748     0.3168   256.9600    26.3178     0.0001
  805   16.080   3159.10    25.9148     0.0853     0.1638     0.1608    25.9818     0.3284   257.2800    25.7245     0.0000
  806   16.100   3160.10    25.5115     0.0838     0.1541     0.1610    25.5783     0.3272   257.6000    25.3207    -0.0001
  807   16.120   3161.06    24.8555     0.0811     0.1575     0.1612    24.9194     0.3247   257.9200    24.6615    -0.0004
  808   16.140   3162.03    24.1789     0.0802     0.1661     0.1614    24.2484     0.3305   258.2400    23.9901     0.0002
  809   16.160   3163.01    24.0164     0.0802     0.1650     0.1616    24.0854     0.3335   258.5600    23.8269     0.0001
  810   16.180   3164.04    24.0746     0.0806     0.1592     0.1618    24.1412     0.3354   258.8800    23.8824    -0.0001
  811   16.200   3165.01    24.7362     0.0798     0.1575     0.1620    24.8052     0.3244   259.2000    24.5460     0.0001
  812   16.220   3165.99    25.6608     0.0763     0.1612     0.1622    25.7284     0.2991   259.5200    25.4689     0.0000
  813   16.240   3167.04    25.9482     0.0746     0.1658     0.1624    26.0183     0.2870   259.8400    25.7584     0.0002
  814   16.260   3167.99    25.4001     0.0743     0.1642     0.1626    25.4708     0.2913   260.1600    25.2106     0.0002
  815   16.280   3169.03    24.7736     0.0749     0.1634     0.1628    24.8417     0.3010   260.4800    24.5812     0.0000
  816   16.300   3169.99    24.4411     0.0762     0.1628     0.1630    24.5102     0.3109   260.8000    24.2494     0.0001
  817   16.320   3170.94    24.3063     0.0736     0.1671     0.1632    24.3742     0.3030   261.1200    24.1131    -0.0001
  818   16.340   3171.98    24.2812     0.0695     0.1601     0.1634    24.3474     0.2866   261.4400    24.0859    -0.0002
  819   16.360   3172.95    24.1426     0.0682     0.1637     0.1636    24.2092     0.2823   261.7600    23.9475    -0.0002
  820   16.380   3173.93    23.8178     0.0683     0.1616     0.1638    23.8840     0.2863   262.0800    23.6219    -0.0003
  821   16.400   3174.90    23.5298     0.0674     0.1629     0.1640    23.5976     0.2864   262.4000    23.3352    -0.0001
  822   16.420   3175.86    23.2629     0.0608     0.1694     0.1642    23.3326     0.2610   262.7200    23.0699     0.0001
  823   16.440   3176.94    23.1083     0.0531     0.1674     0.1644    23.1795     0.2300   263.0400    22.9165     0.0002
  824   16.460   3177.90    22.9819     0.0495     0.1684     0.1646    23.0537     0.2152   263.3600    22.7904     0.0003
  825   16.480   3178.88    23.3786     0.0500     0.1713     0.1648    23.4491     0.2148   263.6800    23.1854     0.0001
  826   16.500   3179.88    23.7246     0.0529     0.1642     0.1650    23.7939     0.2237   264.0000    23.5299     0.0000
  827   16.520   3180.84    24.1269     0.0519     0.1698     0.1652    24.1969     0.2155   264.3200    23.9326     0.0001
  828   16.540   3181.84    23.9619     0.0503     0.1684     0.1654    24.0333     0.2098   264.6400    23.7687     0.0002
  829   16.560   3182.84    23.5007     0.0513     0.1701     0.1656    23.5732     0.2177   264.9600    23.3083     0.0003
  830   16.580   3183.87    22.9618     0.0527     0.1691     0.1658    23.0312     0.2286   265.2800    22.7659     0.0000
  831   16.600   3184.84    22.4729     0.0549     0.1728     0.1660    22.5463     0.2442   265.6000    22.2807     0.0004
  832   16.620   3185.80    21.7416     0.0591     0.1722     0.1662    21.8139     0.2698   265.9200    21.5480     0.0003
  833   16.640   3186.78    21.3088     0.0574     0.1729     0.1664    21.3809     0.2671   266.2400    21.1146     0.0002
  834   16.660   3189.56    21.2692     0.0504     0.1721     0.1666    21.3419     0.2372   266.5600    21.0754     0.0003
  835   16.680   3198.17    21.4048     0.0437     0.1694     0.1668    21.4763     0.2057   266.8800    21.2094     0.0002
  836   16.700   3206.78    21.5403     0.0352     0.1668     0.1670    21.6106     0.1653   267.2000    21.3434     0.0000
  837   16.720   3218.03    23.0249     0.0312     0.1649     0.1672    23.0944     0.1449   267.5200    22.8269    -0.0001
  838   16.740   3228.58    24.7115     0.0332     0.1668     0.1674    24.7806     0.1344   267.8400    24.5128    -0.0001
  839   16.760   3229.68    26.7087     0.0453     0.1730     0.1676    26.7806     0.1712   268.1600    26.5125     0.0001
  840   16.780   3230.72    27.6563     0.0573     0.1722     0.1678    27.7286     0.2077   268.4800    27.4601     0.0002
  841   16.800   3231.69    27.8565     0.0643     0.1698     0.1680    27.9290     0.2309   268.8000    27.6602     0.0002
  842   16.820   3232.66    27.2134     0.0688     0.1716     0.1682    27.2856     0.2511   269.1200    27.0165     0.0001
  843   16.840   3233.64    26.1580     0.0749     0.1750     0.1684    26.2312     0.2838   269.4400    25.9618     0.0002
  844   16.860   3234.64    25.0493     0.0862     0.1749     0.1686    25.1228     0.3402   269.7600    24.8530     0.0003
  845   16.880   3235.61    23.6785     0.1007     0.1750     0.1688    23.7517     0.4187   270.0800    23.4816     0.0002
  846   16.900   3236.59    22.0401     0.1111     0.1806     0.1690    22.1153     0.4975   270.4000    21.8449     0.0005
  847   16.920   3237.56    20.6586     0.1215     0.1736     0.1692    20.7320     0.5818   270.7200    20.4613     0.0003
  848   16.940   3238.53    19.6611     0.1334     0.1770     0.1694    19.7341     0.6744   271.0400    19.4630     0.0002
  849   16.960   3239.53    18.9142     0.1332     0.1865     0.1696    18.9898     0.7032   271.3600    18.7184     0.0006
  850   16.980   3240.48    18.2808     0.1517     0.1954     0.1698    18.3618     0.8291   271.6800    18.0901     0.0013
  851   17.000   3241.47    17.7516     0.1653     0.1796     0.1700    17.8224     0.9311   272.0000    17.5504    -0.0001
  852   17.020   3242.49    17.5314     0.1681     0.1606     0.1702    17.6062     0.9592   272.3200    17.3339     0.0005
  853   17.040   3243.45    17.9447     0.1640     0.1502     0.1704    18.0096     0.9245   272.6400    17.7369    -0.0009
  854   17.060   3244.49    19.2173     0.1546     0.1472     0.1706    19.2790     0.8318   272.9600    19.0060    -0.0012
  855   17.080   3245.57    21.1374     0.1516     0.1858     0.1708    21.2097     0.7174   273.2800    20.9364     0.0001
  856   17.100   3246.58    22.7282     0.1509     0.1760     0.1710    22.8059     0.6797   273.6000    22.5323     0.0006
  857   17.120   3247.61    24.8637     0.1439     0.1028     0.1712    24.9247     0.5853   273.9200    24.6508    -0.0010
  858   17.140   3248.65    26.8104     0.1318     0.0933     0.1714    26.8513     0.4916   274.2400    26.5770    -0.0028
  859   17.160   3249.64    28.2712     0.1243     0.0932     0.1716    28.3095     0.4408   274.5600    28.0349    -0.0029
  860   17.180   3250.65    29.2535     0.1150     0.1017     0.1718    29.2993     0.3933   274.8800    29.0244    -0.0022
  861   17.200   3251.67    30.0215     0.1153     0.1161     0.1720    30.0702     0.3846   275.2000    29.7950    -0.0019
  862   17.220   3252.71    30.5710     0.1129     0.1315     0.1722    30.6223     0.3694   275.5200    30.3468    -0.0016
  863   17.240   3253.76    31.1962     0.1054     0.1638     0.1724    31.2619     0.3383   275.8400    30.9860    -0.0005
  864   17.260   3254.75    31.9352     0.0981     0.1723     0.1726    32.0084     0.3073   276.1600    31.7323     0.0001
  865   17.280   3255.74    32.4885     0.0927     0.1631     0.1728    32.5577     0.2853   276.4800    32.2812    -0.0003
  866   17.300   3256.75    32.4699     0.0902     0.1732     0.1730    32.5409     0.2777   276.8000    32.2641    -0.0001
  867   17.320   3257.76    32.1208     0.0914     0.1630     0.1732    32.1905     0.2842   277.1200    31.9134    -0.0002
  868   17.340   3258.82    31.4632     0.0952     0.1748     0.1734    31.5360     0.3009   277.4400    31.2586     0.0000
  869   17.360   3259.82    31.1179     0.0943     0.1708     0.1736    31.1896     0.3028   277.7600    30.9119    -0.0001
  870   17.380   3260.83    30.7713     0.0876     0.1718     0.1738    30.8437     0.2841   278.0800    30.5656    -0.0001
  871   17.400   3261.78    30.2458     0.0803     0.1775     0.1740    30.3190     0.2650   278.4000    30.0406     0.0000
  872   17.420   3262.74    29.4862     0.0812     0.1853     0.1742    29.5641     0.2749   278.7200    29.2854     0.0004
  873   17.440   3263.74    28.6965     0.0847     0.1821     0.1744    28.7703     0.2944   279.0400    28.4912     0.0000
  874   17.460   3264.79    28.1832     0.0866     0.1757     0.1746    28.2591     0.3064   279.3600    27.9798     0.0002
  875   17.480   3265.77    28.1388     0.0863     0.1703     0.1748    28.2111     0.3063   279.6800    27.9314    -0.0001
  876   17.500   3266.80    28.0768     0.0841     0.1773     0.1750    28.1514     0.2998   280.0000    27.8714     0.0001
  877   17.520   3267.79    27.3859     0.0833     0.1780     0.1752    27.4605     0.3005   280.3200    27.1801     0.0001
  878   17.540   3268.77    26.2439     0.0816     0.1741     0.1754    26.3171     0.3068   280.6400    26.0365     0.0000
  879   17.560   3269.71    25.0547     0.0791     0.1748     0.1756    25.1268     0.3128   280.9600    24.8458    -0.0002
  880   17.580   3270.69    24.0141     0.0772     0.1740     0.1758    24.0885     0.3188   281.2800    23.8072     0.0000
  881   17.600   3271.63    23.4456     0.0749     0.1890     0.1760    23.5211     0.3188   281.6000    23.2395     0.0002
  882   17.620   3272.63    23.1187     0.0733     0.1766     0.1762    23.1913     0.3169   281.9200    22.9094    -0.0001
  883   17.640   3273.64    22.9327     0.0750     0.1838     0.1764    23.0071     0.3260   282.2400    22.7249     0.0000
  884   17.660   3274.63    22.6296     0.0737     0.1793     0.1766    22.7048     0.3243   282.5600    22.4222     0.0001
  885   17.680   3275.61    22.2628     0.0714     0.1765     0.1768    22.3389     0.3196   282.8800    22.0560     0.0002
  886   17.700   3276.58    21.9410     0.0674     0.1718     0.1770    22.0160     0.3054   283.2000    21.7328     0.0001
  887   17.720   3277.55    21.3400     0.0655     0.1812     0.1772    21.4150     0.3041   283.5200    21.1315     0.0001
  888   17.740   3278.51    20.4404     0.0666     0.1813     0.1774    20.5156     0.3235   283.8400    20.2318     0.0001
  889   17.760   3279.50    19.3303     0.0720     0.1804     0.1776    19.4054     0.3725   284.1600    19.1212     0.0001
  890   17.780   3280.47    18.2553     0.0567     0.1795     0.1778    18.3315     0.3034   284.4800    18.0470     0.0002
  891   17.800   3281.45    17.1892     0.0438     0.1802     0.1780    17.2660     0.2478   284.8000    16.9812     0.0003
  892   17.820   3282.37    16.3848     0.0401     0.1845     0.1782    16.4621     0.2407   285.1200    16.1770     0.0004
  893   17.840   3283.46    15.7298     0.0390     0.1832     0.1784    15.8061     0.2450   285.4400    15.5207     0.0002
  894   17.860   3284.58    15.2835     0.0395     0.1831     0.1786    15.3604     0.2584   285.7600    15.0747     0.0003
  895   17.880   3285.59    13.9535     0.0425     0.1790     0.1788    14.0287     0.3055   286.0800    13.7427     0.0000
  896   17.900   3286.63    11.4556     0.0537     0.1784     0.1790    11.5312     0.4694   286.4000    11.2448     0.0001
  897   17.920   3287.64     8.2054     0.0745     0.1818     0.1792     8.2824     0.8671   286.7200     7.9957     0.0005
  898   17.940   3288.63     6.0068     0.1052     0.1845     0.1794     6.0847     1.5457   287.0400     5.7976     0.0010
  899   17.960   3289.69     4.2821     0.1182     0.1868     0.1796     4.3603     2.5780   287.3600     4.0729     0.0016
  900   17.980   3290.66     3.1849     0.1165     0.1873     0.1798     3.2636     3.2484   287.6800     2.9759     0.0025
  901   18.000   3291.71     2.5423     0.1093     0.1873     0.1800     2.6209     4.1262   288.0000     2.3329     0.0031
  902   18.020   3292.79     2.1412     0.0969     0.1875     0.1802     2.2201     4.5437   288.3200     1.9318     0.0040
  903   18.040   3293.82     1.6926     0.0821     0.1873     0.1804     1.7710     4.7493   288.6400     1.4824     0.0043
  904   18.060   3294.81     1.3229     0.0631     0.2150     0.1806     1.4037     4.6559   288.9600     1.1147     0.0105
  905   18.080   3295.85     1.1098     0.0415     0.4079     0.1808     1.2474     3.6872   289.2800     0.9581     0.1543
  906   18.100   3296.84     0.9675     0.0311     0.5798     0.1810     1.1883     3.1078   289.6000     0.8987     0.3838
  907   18.120   3297.95     0.9339     0.0205     0.6365     0.1812     1.1993     2.1949   289.9200     0.9094     0.4956
  908   18.140   3298.99     0.9250     0.0150     0.6550     0.1814     1.1984     1.6199   290.2400     0.9082     0.5170
  909   18.160   3300.00     0.9125     0.0140     0.6669     0.1816     1.1916     1.5293   290.5600     0.9010     0.5359
  910   18.180   3301.02     0.9036     0.0146     0.6840     0.1818     1.1872     1.6134   290.8800     0.8963     0.5504
  911   18.200   3301.98     0.8800     0.0152     0.7108     0.1820     1.1728     1.6969   291.2000     0.8816     0.5844
  912   18.220   3303.00     0.8531     0.0159     0.7125     0.1822     1.1528     1.8614   291.5200     0.8612     0.6170
  913   18.240   3304.06     0.8351     0.0165     0.7003     0.1824     1.1294     1.9705   291.8400     0.8376     0.6189
  914   18.260   3305.11     0.8274     0.0169     0.7098     0.1826     1.1244     2.0464   292.1600     0.8323     0.6303
  915   18.280   3306.13     0.8209     0.0177     0.7210     0.1828     1.1239     2.1483   292.4800     0.8314     0.6479
  916   18.300   3307.17     0.8146     0.0179     0.7291     0.1830     1.1201     2.1866   292.8000     0.8273     0.6579
  917   18.320   3308.21     0.8000     0.0169     0.7238     0.1832     1.1050     2.1166   293.1200     0.8119     0.6689
  918   18.340   3309.20     0.7950     0.0194     0.7282     0.1834     1.1001     2.4448   293.4400     0.8067     0.6733
  919   18.360   3310.23     0.7998     0.0195     0.7386     0.1836     1.1083     2.4410   293.7600     0.8146     0.6766
  920   18.380   3311.26     0.7965     0.0196     0.7529     0.1838     1.1107     2.4550   294.0800     0.8166     0.6908
  921   18.400   3312.28     0.7918     0.0200     0.7570     0.1840     1.1095     2.5213   294.4000     0.8151     0.7023
  922   18.420   3313.74     0.7633     0.0203     0.7550     0.1842     1.0821     2.5837   294.7200     0.7874     0.7342
  923   18.440   3315.32     0.7721     0.0213     0.7598     0.1844     1.0892     2.7598   295.0400     0.7941     0.7185
  924   18.460   3316.36     0.7729     0.0217     0.7533     0.1846     1.0910     2.8061   295.3600     0.7957     0.7199
  925   18.480   3317.44     0.7641     0.0220     0.7555     0.1848     1.0789     2.8706   295.6800     0.7832     0.7210
  926   18.500   3318.45     0.7639     0.0222     0.7623     0.1850     1.0836     2.9060   296.0000     0.7876     0.7315
  927   18.520   3319.49     0.7642     0.0225     0.7664     0.1852     1.0850     2.9472   296.3200     0.7887     0.7335
  928   18.540   3320.47     0.7556     0.0230     0.7598     0.1854     1.0772     3.0329   296.6400     0.7806     0.7436
  929   18.560   3321.50     0.7600     0.0230     0.7568     0.1856     1.0740     3.0222   296.9600     0.7771     0.7234
  930   18.580   3322.58     0.7483     0.0230     0.7652     0.1858     1.0692     3.0773   297.2800     0.7719     0.7490
  931   18.600   3323.58     0.7527     0.0238     0.7667     0.1860     1.0755     3.1869   297.6000     0.7779     0.7488
  932   18.620   3324.63     0.7501     0.0246     0.7766     0.1862     1.0747     3.2965   297.9200     0.7767     0.7552
  933   18.640   3325.63     0.7370     0.0248     0.7792     0.1864     1.0643     3.3557   298.2400     0.7661     0.7741
  934   18.660   3326.60     0.7367     0.0239     0.7760     0.1866     1.0624     3.2430   298.5600     0.7638     0.7710
  935   18.680   3327.63     0.7271     0.0232     0.7820     0.1868     1.0540     3.1892   298.8800     0.7551     0.7833
  936   18.700   3335.40     0.7140     0.0227     0.7762     0.1870     1.0409     3.1339   299.2000     0.7417     0.7978
  937   18.720   3347.26     0.6978     0.0221     0.7700     0.1872     1.0221     3.0583   299.5200     0.7226     0.8101
  938   18.740   3358.98     0.6817     0.0217     0.7688     0.1874     1.0035     3.1821   299.8400     0.7036     0.8224
  939   18.760   3360.00     0.6807     0.0219     0.7677     0.1876     1.0041     3.2241   300.1600     0.7039     0.8274
  940   18.780   3361.02     0.6900     0.0220     0.7694     0.1878     1.0119     3.1866   300.4800     0.7114     0.8134
  941   18.800   3362.03     0.6909     0.0216     0.7785     0.1880     1.0168     3.1309   300.8000     0.7160     0.8209
  942   18.820   3363.07     0.7022     0.0225     0.7822     0.1882     1.0309     3.1959   301.1200     0.7297     0.8144
  943   18.840   3364.04     0.7087     0.0231     0.7844     0.1884     1.0379     3.2494   301.4400     0.7364     0.8086
  944   18.860   3365.07     0.7203     0.0231     0.7921     0.1886     1.0520     3.2009   301.7600     0.7502     0.8014
  945   18.880   3366.13     0.7170     0.0232     0.7994     0.1888     1.0525     3.2383   302.0800     0.7504     0.8129
  946   18.900   3367.17     0.7275     0.0226     0.7894     0.1890     1.0611     3.1040   302.4000     0.7587     0.7979
  947   18.920   3368.18     0.7473     0.0233     0.7954     0.1892     1.0799     3.1170   302.7200     0.7772     0.7756
  948   18.940   3369.19     0.7716     0.0240     0.8149     0.1894     1.1117     3.1260   303.0400     0.8087     0.7671
  949   18.960   3370.21     0.7769     0.0240     0.8096     0.1896     1.1189     3.0966   303.3600     0.8155     0.7662
  950   18.980   3371.28     0.7543     0.0236     0.7803     0.1898     1.0867     3.1266   303.6800     0.7830     0.7684
  951   19.000   3372.31     0.7481     0.0235     0.7592     0.1900     1.0682     3.1281   304.0000     0.7642     0.7485
  952   19.020   3373.32     0.7431     0.0237     0.7785     0.1902     1.0673     3.1581   304.3200     0.7629     0.7623
  953   19.040   3374.33     0.7326     0.0228     0.7912     0.1904     1.0641     3.1125   304.6400     0.7595     0.7886
  954   19.060   3375.34     0.7330     0.0223     0.7933     0.1906     1.0657     3.0394   304.9600     0.7608     0.7908
  955   19.080   3376.39     0.7298     0.0221     0.7956     0.1908     1.0629     3.0273   305.2800     0.7577     0.7949
  956   19.100   3377.46     0.7315     0.0224     0.8020     0.1910     1.0674     3.0657   305.6000     0.7618     0.7991
  957   19.120   3378.45     0.7234     0.0223     0.8024     0.1912     1.0593     3.0706   305.9200     0.7534     0.8080
  958   19.140   3379.49     0.7279     0.0230     0.8041     0.1914     1.0659     3.1538   306.2400     0.7597     0.8073
  959   19.160   3380.47     0.7404     0.0237     0.8024     0.1916     1.0766     3.2009   306.5600     0.7701     0.7909
  960   19.180   3381.47     0.7475     0.0239     0.8052     0.1918     1.0835     3.1929   306.8800     0.7766     0.7831
  961   19.200   3382.52     0.7528     0.0242     0.8082     0.1920     1.0925     3.2209   307.2000     0.7853     0.7855
  962   19.220   3383.57     0.7665     0.0247     0.8071     0.1922     1.1050     3.2259   307.5200     0.7975     0.7696
  963   19.240   3384.58     0.7723     0.0253     0.8120     0.1924     1.1131     3.2723   307.8400     0.8052     0.7687
  964   19.260   3385.60     0.7687     0.0252     0.8206     0.1926     1.1126     3.2741   308.1600     0.8045     0.7784
  965   19.280   3386.57     0.7640     0.0251     0.8175     0.1928     1.1082     3.2815   308.4800     0.7997     0.7836
  966   19.300   3387.61     0.7578     0.0244     0.8200     0.1930     1.1021     3.2265   308.8000     0.7933     0.7902
  967   19.320   3388.68     0.7558     0.0244     0.8230     0.1932     1.1011     3.2308   309.1200     0.7920     0.7940
  968   19.340   3389.69     0.7536     0.0243     0.8276     0.1934     1.1000     3.2274   309.4400     0.7905     0.7985
  969   19.360   3390.70     0.7570     0.0244     0.8301     0.1936     1.1053     3.2176   309.7600     0.7955     0.7991
  970   19.380   3391.73     0.7497     0.0236     0.8250     0.1938     1.0971     3.1441   310.0800     0.7871     0.8049
  971   19.400   3392.76     0.7543     0.0236     0.8234     0.1940     1.1001     3.1466   310.4000     0.7897     0.7969
  972   19.420   3393.79     0.7614     0.0240     0.8366     0.1942     1.1109     3.1515   310.7200     0.8002     0.7972
  973   19.440   3394.80     0.7705     0.0241     0.8496     0.1944     1.1256     3.1216   311.0400     0.8145     0.7993
  974   19.460   3395.83     0.7709     0.0242     0.8476     0.1946     1.1276     3.1572   311.3600     0.8162     0.8021
  975   19.480   3396.86     0.7804     0.0243     0.8428     0.1948     1.1361     3.1198   311.6800     0.8244     0.7910
  976   19.500   3397.92     0.7816     0.0250     0.8246     0.1950     1.1303     3.2023   312.0000     0.8183     0.7764
  977   19.520   3398.91     0.7826     0.0249     0.8251     0.1952     1.1296     3.1779   312.3200     0.8172     0.7719
  978   19.540   3399.96     0.7881     0.0256     0.8311     0.1954     1.1364     3.2429   312.6400     0.8238     0.7696
  979   19.560   3400.97     0.7884     0.0252     0.8387     0.1956     1.1387     3.1986   312.9600     0.8258     0.7732
  980   19.580   3401.99     0.7901     0.0251     0.8370     0.1958     1.1426     3.1764   313.2800     0.8293     0.7757
  981   19.600   3402.99     0.7862     0.0250     0.8350     0.1960     1.1385     3.1744   313.6000     0.8249     0.7791
  982   19.620   3404.08     0.7995     0.0249     0.8393     0.1962     1.1497     3.1145   313.9200     0.8358     0.7629
  983   19.640   3405.13     0.7952     0.0247     0.8480     0.1964     1.1502     3.1080   314.2400     0.8360     0.7762
  984   19.660   3406.12     0.7899     0.0251     0.8334     0.1966     1.1414     3.1589   314.5600     0.8269     0.7745
  985   19.680   3407.13     0.7954     0.0246     0.8324     0.1968     1.1447     3.0977   314.8800     0.8298     0.7651
  986   19.700   3408.13     0.7930     0.0242     0.8362     0.1970     1.1430     3.0446   315.2000     0.8278     0.7688
  987   19.720   3409.16     0.7954     0.0241     0.8423     0.1972     1.1477     3.0330   315.5200     0.8322     0.7709
  988   19.740   3410.21     0.7934     0.0240     0.8389     0.1974     1.1477     3.0295   315.8400     0.8319     0.7766
  989   19.760   3411.24     0.7972     0.0242     0.8361     0.1976     1.1485     3.0375   316.1600     0.8324     0.7676
  990   19.780   3412.26     0.8060     0.0239     0.8502     0.1978     1.1607     2.9712   316.4800     0.8442     0.7661
  991   19.800   3413.31     0.8014     0.0239     0.8483     0.1980     1.1588     2.9880   316.8000     0.8420     0.7753
  992   19.820   3414.28     0.8005     0.0237     0.8551     0.1982     1.1583     2.9584   317.1200     0.8411     0.7770
  993   19.840   3415.28     0.8070     0.0233     0.8467     0.1984     1.1643     2.8940   317.4400     0.8469     0.7702
  994   19.860   3416.35     0.8148     0.0236     0.8505     0.1986     1.1700     2.8936   317.7600     0.8522     0.7592
  995   19.880   3417.38     0.8085     0.0236     0.8509     0.1988     1.1652     2.9053   318.0800     0.8471     0.7680
  996   19.900   3418.40     0.8072     0.0242     0.8528     0.1990     1.1665     2.9755   318.4000     0.8481     0.7742
  997   19.920   3419.41     0.8200     0.0239     0.8445     0.1992     1.1744     2.9458   318.7200     0.8556     0.7534
  998   19.940   3420.46     0.8206     0.0234     0.8576     0.1994     1.1796     2.8572   319.0400     0.8605     0.7615
  999   19.960   3421.54     0.8233     0.0226     0.8644     0.1996     1.1853     2.7470   319.3600     0.8659     0.7647
 1000   19.980   3422.59     0.8187     0.0233     0.8566     0.1998     1.1795     2.8493   319.6800     0.8598     0.7666
 1001   20.000   3423.59     0.8220     0.0235     0.8640     0.2000     1.1840     2.8606   320.0000     0.8640     0.7662
 1002   20.020   3424.61     0.8300     0.0230     0.8560     0.2002     1.1898     2.7699   320.3200     0.8695     0.7552
 1003   20.040   3425.61     0.8189     0.0230     0.8626     0.2004     1.1802     2.7874   320.6400     0.8596     0.7676
 1004   20.060   3426.65     0.8202     0.0232     0.8527     0.2006     1.1780     2.8240   320.9600     0.8571     0.7599
 1005   20.080   3427.70     0.8322     0.0230     0.8609     0.2008     1.1923     2.7618   321.2800     0.8710     0.7539
 1006   20.100   3428.74     0.8337     0.0232     0.8725     0.2010     1.1993     2.7776   321.6000     0.8777     0.7626
 1007   20.120   3429.78     0.8339     0.0228     0.8663     0.2012     1.1986     2.7291   321.9200     0.8767     0.7610
 1008   20.140   3430.82     0.8279     0.0222     0.8582     0.2014     1.1890     2.6771   322.2400     0.8667     0.7596
 1009   20.160   3431.83     0.8271     0.0224     0.8570     0.2016     1.1872     2.7051   322.5600     0.8647     0.7584
 1010   20.180   3432.83     0.8322     0.0222     0.8547     0.2018     1.1912     2.6730   322.8800     0.8684     0.7521
 1011   20.200   3433.84     0.8528     0.0223     0.8610     0.2020     1.2131     2.6332   323.2000     0.8899     0.7371
 1012   20.220   3434.91     0.8560     0.0229     0.8589     0.2022     1.2190     2.6727   323.5200     0.8955     0.7395
 1013   20.240   3435.93     0.8586     0.0234     0.8543     0.2024     1.2177     2.7242   323.8400     0.8938     0.7302
 1014   20.260   3436.97     0.8529     0.0227     0.8554     0.2026     1.2128     2.6500   324.1600     0.8886     0.7363
 1015   20.280   3437.99     0.8463     0.0228     0.8537     0.2028     1.2046     2.6830   324.4800     0.8801     0.7387
 1016   20.300   3439.06     0.8512     0.0225     0.8568     0.2030     1.2095     2.6641   324.8000     0.8847     0.7348
 1017   20.320   3440.08     0.8487     0.0228     0.8551     0.2032     1.2082     2.6852   325.1200     0.8831     0.7392
 1018   20.340   3441.04     0.8508     0.0227     0.8596     0.2034     1.2115     2.6745   325.4400     0.8861     0.7398
 1019   20.360   3442.14     0.8698     0.0225     0.8612     0.2036     1.2289     2.6098   325.7600     0.9031     0.7213
 1020   20.380   3443.19     0.8726     0.0226     0.8671     0.2038     1.2354     2.5982   326.0800     0.9093     0.7258
 1021   20.400   3444.18     0.8682     0.0224     0.8491     0.2040     1.2286     2.5747   326.4000     0.9022     0.7250
 1022   20.420   3445.24     0.8771     0.0219     0.8672     0.2042     1.2386     2.5076   326.7200     0.9119     0.7201
 1023   20.440   3446.24     0.8867     0.0216     0.8784     0.2044     1.2536     2.4611   327.0400     0.9266     0.7224
 1024   20.460   3447.29     0.8817     0.0211     0.8848     0.2046     1.2545     2.3740   327.3600     0.9272     0.7367
 1025   20.480   3448.37     0.8845     0.0212     0.8786     0.2048     1.2544     2.3940   327.6800     0.9267     0.7295
 1026   20.500   3449.39     0.8871     0.0211     0.8691     0.2050     1.2529     2.3783   328.0000     0.9249     0.7200
 1027   20.520   3450.46     0.8822     0.0199     0.8695     0.2052     1.2474     2.2547   328.3200     0.9190     0.7227
 1028   20.540   3451.45     0.8877     0.0207     0.8671     0.2054     1.2501     2.3339   328.6400     0.9215     0.7137
 1029   20.560   3452.50     0.8875     0.0208     0.8661     0.2056     1.2508     2.3512   328.9600     0.9218     0.7154
 1030   20.580   3453.52     0.8942     0.0215     0.8766     0.2058     1.2614     2.4157   329.2800     0.9321     0.7170
 1031   20.600   3454.53     0.8884     0.0224     0.8800     0.2060     1.2598     2.4983   329.6000     0.9302     0.7293
 1032   20.620   3455.61     0.9004     0.0234     0.8680     0.2062     1.2671     2.5809   329.9200     0.9372     0.7117
 1033   20.640   3456.63     0.9146     0.0234     0.8707     0.2064     1.2796     2.5554   330.2400     0.9494     0.6982
 1034   20.660   3457.67     0.9176     0.0226     0.8759     0.2066     1.2846     2.4601   330.5600     0.9540     0.6994
 1035   20.680   3458.72     0.9123     0.0229     0.8794     0.2068     1.2819     2.5153   330.8800     0.9510     0.7078
 1036   20.700   3473.34     0.9365     0.0226     0.8788     0.2070     1.3057     2.4815   331.2000     0.9745     0.6906
 1037   20.720   3492.87     0.9697     0.0219     0.8782     0.2072     1.3386     2.3996   331.5200     1.0071     0.6675
 1038   20.740   3508.20     0.9975     0.0216     0.8892     0.2074     1.3685     2.1648   331.8400     1.0367     0.6520
 1039   20.760   3509.22     1.0117     0.0215     0.8932     0.2076     1.3853     2.1423   332.1600     1.0532     0.6477
 1040   20.780   3510.25     1.0013     0.0214     0.9005     0.2078     1.3797     2.1130   332.4800     1.0472     0.6620
 1041   20.800   3511.32     1.0110     0.0213     0.8882     0.2080     1.3849     2.1294   332.8000     1.0521     0.6486
 1042   20.820   3512.35     1.0540     0.0225     0.9043     0.2082     1.4301     2.1352   333.1200     1.0970     0.6265
 1043   20.840   3513.35     1.0585     0.0234     0.9178     0.2084     1.4440     2.2000   333.4400     1.1106     0.6390
 1044   20.860   3514.35     1.0274     0.0238     0.8927     0.2086     1.4076     2.2980   333.7600     1.0739     0.6487
 1045   20.880   3515.42     1.0149     0.0234     0.8597     0.2088     1.3786     2.3068   334.0800     1.0445     0.6292
 1046   20.900   3516.47     1.0108     0.0229     0.8603     0.2090     1.3701     2.2635   334.4000     1.0357     0.6243
 1047   20.920   3517.54     0.9947     0.0228     0.8697     0.2092     1.3573     2.2919   334.7200     1.0226     0.6397
 1048   20.940   3518.55     0.9937     0.0223     0.8801     0.2094     1.3620     2.2429   335.0400     1.0270     0.6501
 1049   20.960   3519.53     1.0021     0.0211     0.8930     0.2096     1.3736     2.1127   335.3600     1.0383     0.6502
 1050   20.980   3520.61     0.9897     0.0211     0.8892     0.2098     1.3629     2.1194   335.6800     1.0272     0.6609
 1051   21.000   3521.62     0.9910     0.0207     0.8940     0.2100     1.3654     2.0922   336.0000     1.0294     0.6619
 1052   21.020   3522.68     0.9963     0.0203     0.9002     0.2102     1.3734     2.0441   336.3200     1.0371     0.6632
 1053   21.040   3523.72     0.9981     0.0210     0.9044     0.2104     1.3770     2.1005   336.6400     1.0404     0.6649
 1054   21.060   3524.76     0.9991     0.0213     0.9074     0.2106     1.3793     2.1308   336.9600     1.0423     0.6663
 1055   21.080   3525.81     0.9871     0.0212     0.9094     0.2108     1.3703     2.1314   337.2800     1.0331     0.6793
 1056   21.100   3526.86     0.9854     0.0212     0.9008     0.2110     1.3647     2.1526   337.6000     1.0271     0.6738
 1057   21.120   3527.86     0.9878     0.0215     0.8932     0.2112     1.3625     2.1979   337.9200     1.0246     0.6647
 1058   21.140   3528.88     0.9972     0.0209     0.9021     0.2114     1.3753     2.0979   338.2400     1.0371     0.6642
 1059   21.160   3529.88     1.0135     0.0210     0.9047     0.2116     1.3933     2.0692   338.5600     1.0547     0.6568
 1060   21.180   3530.96     1.0157     0.0211     0.9088     0.2118     1.3956     2.0781   338.8800     1.0567     0.6555
 1061   21.200   3532.00     1.0314     0.0212     0.9120     0.2120     1.4144     2.0564   339.2000     1.0752     0.6510
 1062   21.220   3533.04     1.0280     0.0212     0.9105     0.2122     1.4118     2.0563   339.5200     1.0723     0.6543
 1063   21.240   3534.07     1.0122     0.0216     0.8926     0.2124     1.3876     2.1277   339.8400     1.0478     0.6504
 1064   21.260   3535.10     1.0066     0.0216     0.8798     0.2126     1.3763     2.1452   340.1600     1.0362     0.6443
 1065   21.280   3536.12     0.9979     0.0211     0.8799     0.2128     1.3687     2.1157   340.4800     1.0282     0.6517
 1066   21.300   3537.10     0.9968     0.0206     0.8847     0.2130     1.3668     2.0727   340.8000     1.0260     0.6511
 1067   21.320   3538.16     0.9957     0.0207     0.8949     0.2132     1.3699     2.0799   341.1200     1.0288     0.6588
 1068   21.340   3539.24     1.0042     0.0205     0.9130     0.2134     1.3850     2.0372   341.4400     1.0436     0.6644
 1069   21.360   3540.26     1.0028     0.0210     0.9034     0.2136     1.3843     2.0936   341.7600     1.0425     0.6664
 1070   21.380   3541.27     0.9929     0.0215     0.8986     0.2138     1.3713     2.1597   342.0800     1.0292     0.6676
 1071   21.400   3542.27     0.9947     0.0215     0.8874     0.2140     1.3690     2.1575   342.4000     1.0266     0.6596
 1072   21.420   3543.31     0.9959     0.0211     0.8844     0.2142     1.3679     2.1208   342.7200     1.0252     0.6551
 1073   21.440   3544.40     1.0031     0.0215     0.8848     0.2144     1.3722     2.1466   343.0400     1.0291     0.6455
 1074   21.460   3545.45     0.9924     0.0217     0.8994     0.2146     1.3700     2.1777   343.3600     1.0266     0.6666
 1075   21.480   3546.50     0.9914     0.0217     0.9071     0.2148     1.3714     2.1836   343.6800     1.0277     0.6713
 1076   21.500   3547.55     0.9854     0.0210     0.9071     0.2150     1.3654     2.1268   344.0000     1.0214     0.6753
 1077   21.520   3548.54     0.9886     0.0210     0.9072     0.2152     1.3693     2.1232   344.3200     1.0250     0.6745
 1078   21.540   3549.59     0.9908     0.0210     0.9075     0.2154     1.3716     2.1234   344.6400     1.0270     0.6733
 1079   21.560   3550.66     0.9985     0.0206     0.9133     0.2156     1.3811     2.0729   344.9600     1.0361     0.6710
 1080   21.580   3551.73     0.9994     0.0209     0.9122     0.2158     1.3829     2.0917   345.2800     1.0377     0.6722
 1081   21.600   3552.76     1.0061     0.0206     0.9202     0.2160     1.3911     2.0471   345.6000     1.0455     0.6702
 1082   21.620   3553.79     1.0099     0.0208     0.9280     0.2162     1.3984     2.0589   345.9200     1.0525     0.6734
 1083   21.640   3554.80     1.0058     0.0209     0.9283     0.2164     1.3964     2.0665   346.2400     1.0502     0.6796
 1084   21.660   3555.83     1.0125     0.0208     0.9230     0.2166     1.3994     2.0660   346.5600     1.0529     0.6692
 1085   21.680   3556.85     1.0155     0.0213     0.9312     0.2168     1.4062     2.1166   346.8800     1.0593     0.6734
 1086   21.700   3557.91     1.0120     0.0213     0.9314     0.2170     1.4037     2.1087   347.2000     1.0565     0.6773
 1087   21.720   3558.96     1.0179     0.0213     0.9252     0.2172     1.4076     2.0940   347.5200     1.0601     0.6704
 1088   21.740   3559.98     1.0326     0.0217     0.9177     0.2174     1.4178     2.1186   347.8400     1.0699     0.6538
 1089   21.760   3561.00     1.0397     0.0215     0.9214     0.2176     1.4266     2.0771   348.1600     1.0785     0.6525
 1090   21.780   3562.02     1.0412     0.0218     0.9215     0.2178     1.4268     2.0934   348.4800     1.0783     0.6494
 1091   21.800   3563.07     1.0259     0.0212     0.9195     0.2180     1.4146     2.0641   348.8000     1.0658     0.6637
 1092   21.820   3564.14     1.0260     0.0211     0.9188     0.2182     1.4125     2.0536   349.1200     1.0634     0.6602
 1093   21.840   3565.16     1.0299     0.0212     0.9159     0.2184     1.4147     2.0599   349.4400     1.0653     0.6550
 1094   21.860   3566.21     1.0375     0.0217     0.9141     0.2186     1.4215     2.0926   349.7600     1.0717     0.6491
 1095   21.880   3567.22     1.0253     0.0216     0.9108     0.2188     1.4085     2.1010   350.0800     1.0585     0.6554
 1096   21.900   3568.23     1.0232     0.0213     0.8964     0.2190     1.4019     2.0843   350.4000     1.0515     0.6494
 1097   21.920   3569.30     1.0179     0.0211     0.8887     0.2192     1.3919     2.0789   350.7200     1.0412     0.6446
 1098   21.940   3570.36     1.0244     0.0217     0.8880     0.2194     1.3969     2.1169   351.0400     1.0458     0.6382
 1099   21.960   3571.41     1.0073     0.0212     0.8938     0.2196     1.3829     2.0821   351.3600     1.0315     0.6541
 1100   21.980   3572.45     1.0103     0.0210     0.8914     0.2198     1.3858     2.0808   351.6800     1.0341     0.6520
 1101   22.000   3573.46     1.0117     0.0209     0.8909     0.2200     1.3851     2.0718   352.0000     1.0331     0.6477
 1102   22.020   3574.56     1.0137     0.0210     0.8936     0.2202     1.3888     2.0701   352.3200     1.0365     0.6493
 1103   22.040   3575.53     1.0168     0.0209     0.8970     0.2204     1.3938     2.0595   352.6400     1.0411     0.6504
 1104   22.060   3576.55     1.0250     0.0215     0.8895     0.2206     1.4008     2.1038   352.9600     1.0479     0.6433
 1105   22.080   3577.59     1.0309     0.0220     0.8779     0.2208     1.4007     2.1417   353.2800     1.0474     0.6297
 1106   22.100   3578.66     1.0343     0.0223     0.8852     0.2210     1.4053     2.1587   353.6000     1.0517     0.6299
 1107   22.120   3579.70     1.0343     0.0221     0.8831     0.2212     1.4060     2.1399   353.9200     1.0521     0.6310
 1108   22.140   3580.75     1.0326     0.0230     0.8839     0.2214     1.4037     2.2265   354.2400     1.0494     0.6309
 1109   22.160   3581.75     1.0382     0.0239     0.8864     0.2216     1.4100     2.3006   354.5600     1.0554     0.6287
 1110   22.180   3582.75     1.0381     0.0229     0.8938     0.2218     1.4125     2.2020   354.8800     1.0576     0.6332
 1111   22.200   3583.77     1.0384     0.0221     0.8975     0.2220     1.4152     2.1252   355.2000     1.0600     0.6369
 1112   22.220   3584.84     1.0434     0.0227     0.8985     0.2222     1.4201     2.1731   355.5200     1.0646     0.6339
 1113   22.240   3585.89     1.0639     0.0225     0.9068     0.2224     1.4427     2.1184   355.8400     1.0868     0.6252
 1114   22.260   3586.95     1.0365     0.0229     0.9160     0.2226     1.4211     2.2097   356.1600     1.0649     0.6508
 1115   22.280   3588.00     1.0434     0.0223     0.9144     0.2228     1.4288     2.1328   356.4800     1.0723     0.6480
 1116   22.300   3589.01     1.0392     0.0218     0.9152     0.2230     1.4222     2.0985   356.8000     1.0654     0.6467
 1117   22.320   3590.04     1.0327     0.0218     0.9189     0.2232     1.4192     2.1091   357.1200     1.0621     0.6564
 1118   22.340   3591.05     1.0310     0.0222     0.9140     0.2234     1.4158     2.1467   357.4400     1.0584     0.6546
 1119   22.360   3592.04     1.0289     0.0221     0.9202     0.2236     1.4149     2.1445   357.7600     1.0571     0.6579
 1120   22.380   3593.16     1.0231     0.0217     0.9189     0.2238     1.4088     2.1192   358.0800     1.0507     0.6609
 1121   22.400   3594.21     1.0136     0.0210     0.9253     0.2240     1.4006     2.0706   358.4000     1.0422     0.6693
 1122   22.420   3595.23     1.0136     0.0207     0.9264     0.2242     1.4016     2.0543   358.7200     1.0429     0.6710
 1123   22.440   3596.30     1.0265     0.0204     0.9412     0.2244     1.4203     1.9909   359.0400     1.0613     0.6720
 1124   22.460   3597.30     1.0252     0.0202     0.9377     0.2246     1.4200     1.9697   359.3600     1.0607     0.6745
 1125   22.480   3598.33     1.0346     0.0206     0.9299     0.2248     1.4261     1.9920   359.6800     1.0664     0.6633
 1126   22.500   3599.35     1.0504     0.0203     0.9285     0.2250     1.4406     1.9400   360.0000     1.0806     0.6515
 1127   22.520   3600.41     1.0622     0.0203     0.9298     0.2252     1.4522     1.9190   360.3200     1.0919     0.6441
 1128   22.540   3601.50     1.0437     0.0208     0.9210     0.2254     1.4334     1.9962   360.6400     1.0727     0.6547
 1129   22.560   3602.52     1.0440     0.0208     0.9215     0.2256     1.4288     1.9886   360.9600     1.0678     0.6467
 1130   22.580   3603.52     1.0330     0.0208     0.9265     0.2258     1.4193     2.0029   361.2800     1.0580     0.6559
 1131   22.600   3604.58     1.0522     0.0217     0.9332     0.2260     1.4431     2.0675   361.6000     1.0815     0.6516
 1132   22.620   3605.62     1.0555     0.0225     0.9281     0.2262     1.4464     2.1322   361.9200     1.0845     0.6496
 1133   22.640   3606.63     1.0590     0.0229     0.9229     0.2264     1.4472     2.1606   362.2400     1.0850     0.6432
 1134   22.660   3607.65     1.0484     0.0221     0.9133     0.2266     1.4319     2.1113   362.5600     1.0693     0.6421
 1135   22.680   3608.69     1.0488     0.0216     0.9165     0.2268     1.4322     2.0567   362.8800     1.0693     0.6415
 1136   22.700   3616.79     1.0522     0.0209     0.9259     0.2270     1.4397     1.9867   363.2000     1.0765     0.6462
 1137   22.720   3627.77     1.0498     0.0208     0.9354     0.2272     1.4413     1.9750   363.5200     1.0777     0.6540
 1138   22.740   3636.68     1.0429     0.0199     0.9379     0.2274     1.4373     1.8910   363.8400     1.0734     0.6629
 1139   22.760   3637.74     1.0334     0.0196     0.9397     0.2276     1.4273     1.8896   364.1600     1.0631     0.6681
 1140   22.780   3638.74     1.0338     0.0197     0.9299     0.2278     1.4265     1.9140   364.4800     1.0620     0.6658
 1141   22.800   3639.78     1.0637     0.0200     0.9160     0.2280     1.4492     1.8862   364.8000     1.0844     0.6362
 1142   22.820   3640.85     1.0605     0.0201     0.9272     0.2282     1.4485     1.8972   365.1200     1.0834     0.6420
 1143   22.840   3641.86     1.0682     0.0208     0.9272     0.2284     1.4590     1.9586   365.4400     1.0936     0.6419
 1144   22.860   3642.87     1.0824     0.0215     0.9220     0.2286     1.4695     1.9981   365.7600     1.1037     0.6279
 1145   22.880   3643.96     1.0958     0.0216     0.9343     0.2288     1.4869     1.9762   366.0800     1.1208     0.6267
 1146   22.900   3644.97     1.0863     0.0221     0.9389     0.2290     1.4810     2.0384   366.4000     1.1146     0.6377
 1147   22.920   3645.99     1.0918     0.0218     0.9354     0.2292     1.4872     1.9956   366.7200     1.1205     0.6355
 1148   22.940   3647.06     1.1066     0.0224     0.9385     0.2294     1.5000     2.0222   367.0400     1.1329     0.6242
 1149   22.960   3648.11     1.1031     0.0224     0.9478     0.2296     1.4988     2.0289   367.3600     1.1315     0.6299
 1150   22.980   3649.13     1.1118     0.0220     0.9525     0.2298     1.5103     1.9842   367.6800     1.1426     0.6292
 1151   23.000   3650.14     1.1126     0.0215     0.9627     0.2300     1.5163     1.9358   368.0000     1.1483     0.6368
 1152   23.020   3651.16     1.1310     0.0222     0.9572     0.2302     1.5320     1.9812   368.3200     1.1636     0.6226
 1153   23.040   3652.21     1.1334     0.0220     0.9730     0.2304     1.5395     1.9429   368.6400     1.1708     0.6290
 1154   23.060   3653.25     1.1350     0.0216     0.9713     0.2306     1.5432     1.9018   368.9600     1.1742     0.6313
 1155   23.080   3654.31     1.1245     0.0220     0.9672     0.2308     1.5313     1.9561   369.2800     1.1620     0.6349
 1156   23.100   3655.35     1.1173     0.0213     0.9679     0.2310     1.5232     1.9022   369.6000     1.1536     0.6375
 1157   23.120   3656.36     1.0966     0.0214     0.9709     0.2312     1.5037     1.9390   369.9200     1.1338     0.6510
 1158   23.140   3657.36     1.0988     0.0205     0.9797     0.2314     1.5099     1.8719   370.2400     1.1397     0.6559
 1159   23.160   3658.39     1.1087     0.0214     0.9794     0.2316     1.5202     1.9362   370.5600     1.1497     0.6509
 1160   23.180   3659.41     1.1119     0.0212     0.9794     0.2318     1.5237     1.9148   370.8800     1.1528     0.6495
 1161   23.200   3660.50     1.1103     0.0202     0.9805     0.2320     1.5214     1.8153   371.2000     1.1502     0.6494
 1162   23.220   3661.54     1.0964     0.0203     0.9879     0.2322     1.5094     1.8536   371.5200     1.1379     0.6602
 1163   23.240   3662.58     1.1043     0.0210     0.9875     0.2324     1.5188     1.8979   371.8400     1.1470     0.6580
 1164   23.260   3663.59     1.1242     0.0201     1.0010     0.2326     1.5433     1.7948   372.1600     1.1711     0.6533
 1165   23.280   3664.64     1.1098     0.0197     0.9951     0.2328     1.5296     1.7678   372.4800     1.1571     0.6625
 1166   23.300   3665.65     1.1018     0.0198     0.9926     0.2330     1.5193     1.7920   372.8000     1.1465     0.6639
 1167   23.320   3666.67     1.1119     0.0195     0.9966     0.2332     1.5282     1.7571   373.1200     1.1551     0.6562
 1168   23.340   3667.68     1.1089     0.0191     1.0073     0.2334     1.5297     1.7214   373.4400     1.1563     0.6646
 1169   23.360   3668.75     1.1131     0.0188     1.0065     0.2336     1.5359     1.6975   373.7600     1.1622     0.6652
 1170   23.380   3669.83     1.1376     0.0191     1.0157     0.2338     1.5635     1.6762   374.0800     1.1894     0.6560
 1171   23.400   3670.84     1.1175     0.0198     1.0188     0.2340     1.5434     1.7556   374.4000     1.1690     0.6672
 1172   23.420   3671.94     1.0963     0.0193     1.0143     0.2342     1.5245     1.7648   374.7200     1.1498     0.6830
 1173   23.440   3672.94     1.1110     0.0194     1.0143     0.2344     1.5366     1.7497   375.0400     1.1616     0.6706
 1174   23.460   3673.98     1.1225     0.0198     1.0188     0.2346     1.5508     1.7651   375.3600     1.1754     0.6679
 1175   23.480   3675.03     1.1316     0.0204     1.0219     0.2348     1.5594     1.8097   375.6800     1.1838     0.6622
 1176   23.500   3676.10     1.1407     0.0208     1.0229     0.2350     1.5711     1.8349   376.0000     1.1951     0.6608
 1177   23.520   3677.09     1.1539     0.0211     1.0223     0.2352     1.5847     1.8300   376.3200     1.2083     0.6542
 1178   23.540   3678.15     1.1520     0.0210     1.0134     0.2354     1.5794     1.8157   376.6400     1.2027     0.6504
 1179   23.560   3679.18     1.1546     0.0212     0.9966     0.2356     1.5750     1.8329   376.9600     1.1981     0.6388
 1180   23.580   3680.25     1.1622     0.0210     1.0126     0.2358     1.5869     1.8054   377.2800     1.2096     0.6409
 1181   23.600   3681.29     1.1510     0.0211     1.0191     0.2360     1.5771     1.8338   377.6000     1.1995     0.6490
 1182   23.620   3682.30     1.1545     0.0210     1.0223     0.2362     1.5838     1.8210   377.9200     1.2059     0.6518
 1183   23.640   3683.34     1.1666     0.0210     1.0235     0.2364     1.5961     1.8031   378.2400     1.2179     0.6456
 1184   23.660   3684.33     1.1655     0.0210     1.0273     0.2366     1.5971     1.8026   378.5600     1.2185     0.6491
 1185   23.680   3685.37     1.1616     0.0207     1.0198     0.2368     1.5903     1.7855   378.8800     1.2114     0.6471
 1186   23.700   3686.44     1.1723     0.0203     1.0279     0.2370     1.6023     1.7327   379.2000     1.2231     0.6432
 1187   23.720   3687.49     1.1686     0.0211     1.0370     0.2372     1.6033     1.7987   379.5200     1.2238     0.6520
 1188   23.740   3688.51     1.1541     0.0211     1.0303     0.2374     1.5887     1.8266   379.8400     1.2089     0.6596
 1189   23.760   3689.58     1.1765     0.0210     1.0335     0.2376     1.6091     1.7847   380.1600     1.2289     0.6447
 1190   23.780   3690.55     1.1929     0.0213     1.0473     0.2378     1.6322     1.7959   380.4800     1.2517     0.6456
 1191   23.800   3691.64     1.1973     0.0214     1.0511     0.2380     1.6379     1.7848   380.8000     1.2571     0.6452
 1192   23.820   3692.66     1.1891     0.0214     1.0537     0.2382     1.6309     1.7978   381.1200     1.2498     0.6512
 1193   23.840   3693.72     1.1826     0.0219     1.0514     0.2384     1.6234     1.8513   381.4400     1.2420     0.6531
 1194   23.860   3694.73     1.1871     0.0219     1.0606     0.2386     1.6312     1.8457   381.7600     1.2494     0.6554
 1195   23.880   3695.82     1.1911     0.0214     1.0599     0.2388     1.6361     1.8033   382.0800     1.2540     0.6543
 1196   23.900   3696.84     1.2014     0.0213     1.0631     0.2390     1.6469     1.7794   382.4000     1.2645     0.6499
 1197   23.920   3697.89     1.2219     0.0212     1.0615     0.2392     1.6690     1.7394   382.7200     1.2863     0.6417
 1198   23.940   3698.89     1.1988     0.0211     1.0605     0.2394     1.6432     1.7409   383.0400     1.2602     0.6497
 1199   23.960   3699.92     1.1852     0.0205     1.0527     0.2396     1.6292     1.7263   383.3600     1.2458     0.6562
 1200   23.980   3700.98     1.1811     0.0206     1.0495     0.2398     1.6211     1.7460   383.6800     1.2374     0.6527
 1201   24.000   3702.07     1.1851     0.0203     1.0456     0.2400     1.6246     1.7248   384.0000     1.2406     0.6501
 1202   24.020   3703.12     1.1891     0.0210     1.0403     0.2402     1.6279     1.7644   384.3200     1.2436     0.6469
 1203   24.040   3704.13     1.2017     0.0196     1.0358     0.2404     1.6385     1.6416   384.6400     1.2539     0.6377
 1204   24.060   3705.15     1.2036     0.0174     1.0151     0.2406     1.6324     1.4492   384.9600     1.2475     0.6256
 1205   24.080   3706.20     1.1866     0.0145     0.9944     0.2408     1.6063     1.2107   385.2800     1.2210     0.6213
 1206   24.100   3707.27     1.1747     0.0124     0.9855     0.2410     1.5890     1.0544   385.6000     1.2034     0.6193
 1207   24.120   3708.31     1.2019     0.0165     1.0228     0.2412     1.6256     1.3826   385.9200     1.2397     0.6192
 1208   24.140   3709.34     1.3198     0.0237     1.0059     0.2414     1.7536     1.8714   386.2400     1.3674     0.5793
 1209   24.160   3710.38     1.7564     0.0261     0.8807     0.2416     2.1452     1.6222   386.5600     1.7587     0.3913
 1210   24.180   3711.43     2.2627     0.0213     0.7111     0.2418     2.5900     0.9812   386.8800     2.2031     0.2448
 1211   24.200   3712.47     3.1118     0.0245     0.4190     0.2420     3.3299     0.8488   387.2000     2.9427     0.0948
 1212   24.220   3713.60     4.2693     0.0312     0.4100     0.2422     4.4523     0.8154   387.5200     4.0647     0.0481
 1213   24.240   3714.65     5.8826     0.0381     0.2829     0.2424     6.0180     0.7188   387.8400     5.6301     0.0145
 1214   24.260   3715.69     7.2576     0.0398     0.1493     0.2426     7.3308     0.5711   388.1600     6.9426    -0.0098
 1215   24.280   3716.76     7.0084     0.0459     0.1180     0.2428     7.0661     0.6366   388.4800     6.6777    -0.0159
 1216   24.300   3717.81     6.0350     0.0489     0.1285     0.2430     6.0860     0.7784   388.8000     5.6972    -0.0213
 1217   24.320   3718.86     5.6256     0.0570     0.1808     0.2432     5.6901     1.0113   389.1200     5.3010    -0.0169
 1218   24.340   3719.90     5.9203     0.0708     0.2334     0.2434     6.0187     1.2189   389.4400     5.6293    -0.0017
 1219   24.360   3720.97     5.8470     0.0864     0.2471     0.2436     5.9469     1.4443   389.7600     5.5571    -0.0010
 1220   24.380   3721.98     4.8872     0.0975     0.1747     0.2438     4.9732     1.8706   390.0800     4.5831    -0.0086
 1221   24.400   3723.11     3.9034     0.0865     0.2489     0.2440     3.9946     2.0606   390.4000     3.6042    -0.0073
 1222   24.420   3724.17     3.2003     0.0759     0.2868     0.2442     3.3105     2.2165   390.7200     2.9198     0.0064
 1223   24.440   3725.17     2.6498     0.0688     0.2936     0.2444     2.7807     2.3858   391.0400     2.3897     0.0279
 1224   24.460   3726.24     2.0598     0.0570     0.3347     0.2446     2.1838     2.7124   391.3600     1.7924     0.0288
 1225   24.480   3727.27     1.3972     0.0414     0.6687     0.2448     1.6287     2.8709   391.6800     1.2370     0.2552
 1226   24.500   3728.31     1.1578     0.0275     0.8267     0.2450     1.4927     2.3185   392.0000     1.1007     0.5019
 1227   24.520   3729.36     1.1387     0.0141     0.8804     0.2452     1.5023     1.2380   392.3200     1.1100     0.5589
 1228   24.540   3730.37     1.1340     0.0136     0.9116     0.2454     1.5146     1.2013   392.6400     1.1220     0.5890
 1229   24.560   3731.41     1.1944     0.0137     0.9277     0.2456     1.5822     1.1231   392.9600     1.1892     0.5699
 1230   24.580   3732.46     1.3226     0.0162     0.8958     0.2458     1.7082     1.1865   393.2800     1.3149     0.5114
 1231   24.600   3733.53     1.4829     0.0185     0.8125     0.2460     1.8298     1.2476   393.6000     1.4362     0.4037
 1232   24.620   3734.52     1.4131     0.0187     0.8170     0.2462     1.7504     1.2827   393.9200     1.3565     0.4108
 1233   24.640   3735.59     1.2460     0.0180     0.8879     0.2464     1.6067     1.4299   394.2400     1.2124     0.5052
 1234   24.660   3738.21     1.1731     0.0159     0.9298     0.2466     1.5665     1.3339   394.5600     1.1719     0.5888
 1235   24.680   3751.25     1.1574     0.0138     0.9099     0.2468     1.5425     1.1759   394.8800     1.1476     0.5837
 1236   24.700   3764.29     1.1417     0.0101     0.8919     0.2470     1.5184     0.8711   395.2000     1.1232     0.5785
 1237   24.720   3769.24     1.1330     0.0105     0.9388     0.2472     1.5232     0.9298   395.5200     1.1276     0.6045
 1238   24.740   3770.27     1.1408     0.0153     0.9455     0.2474     1.5364     1.3433   395.8400     1.1406     0.6089
 1239   24.760   3771.33     1.1417     0.0065     0.9562     0.2476     1.5423     0.5689   396.1600     1.1461     0.6161
 1240   24.780   3772.30     1.2113    -0.0030     0.9632     0.2478     1.6154    -0.2567   396.4800     1.2189     0.5864
 1241   24.800   3773.34     1.3940     0.0037     0.9391     0.2480     1.7956     0.2669   396.8000     1.3988     0.5068
 1242   24.820   3774.37     1.6245     0.0107     0.8494     0.2482     1.9944     0.6673   397.1200     1.5972     0.3962
 1243   24.840   3775.50     1.8202     0.0164     0.9810     0.2484     2.1975     0.9366   397.4400     1.8001     0.3612
 1244   24.860   3776.54     3.6521     0.0307     0.7175     0.2486     4.0367     1.0459   397.7600     3.6389     0.1891
 1245   24.880   3777.67     7.5175     0.0417     0.1027     0.2488     7.6214     0.6464   398.0800     7.2233     0.0015
 1246   24.900   3778.74    10.6118     0.0567     0.1343     0.2490    10.6711     0.5674   398.4000    10.2727    -0.0105
 1247   24.920   3779.82    12.0032     0.0820     0.0667     0.2492    12.0561     0.6996   398.7200    11.6573    -0.0106
 1248   24.940   3780.84    11.7748     0.1064    -0.0454     0.2494    11.7663     0.8848   399.0400    11.3672    -0.0238
 1249   24.960   3781.87    10.6596     0.1417    -0.0364     0.2496    10.6398     1.2757   399.3600    10.2405    -0.0290
 1250   24.980   3782.93     8.8696     0.1712    -0.0188     0.2498     8.8557     1.7760   399.6800     8.4560    -0.0335
 1251   25.000   3784.00     6.2017     0.1645    -0.0061     0.2500     6.1975     2.3453   400.0000     5.7975    -0.0449
 1252   25.020   3785.02     4.4539     0.1415    -0.0003     0.2502     4.4490     2.8351   400.3200     4.0486    -0.0648
 1253   25.040   3786.05     3.4135     0.1233     0.0886     0.2504     3.4314     3.3004   400.6400     3.0307    -0.0683
 1254   25.060   3787.09     2.9532     0.1139     0.4404     0.2506     3.0947     3.6621   400.9600     2.6937     0.0325
 1255   25.080   3788.13     2.4970     0.1016     0.3242     0.2508     2.6199     3.8496   401.2800     2.2187     0.0188
 1256   25.100   3789.23     2.5732     0.0813     0.4606     0.2510     2.7370     3.1820   401.6000     2.3354     0.0591
 1257   25.120   3790.26     2.4310     0.0549     0.5640     0.2512     2.6803     2.1543   401.9200     2.2784     0.1507
 1258   25.140   3791.27     2.0598     0.0416     0.5283     0.2514     2.2634     1.8927   402.2400     1.8612     0.1261
 1259   25.160   3792.28     1.7304     0.0354     0.5612     0.2516     1.9594     1.9023   402.5600     1.5568     0.1877
 1260   25.180   3793.31     1.4660     0.0357     0.7914     0.2518     1.7743     2.3253   402.8800     1.3714     0.3524
 1261   25.200   3794.37     1.4077     0.0259     0.8811     0.2520     1.7662     1.8332   403.2000     1.3630     0.4413
 1262   25.220   3795.46     1.4680     0.0246     0.9330     0.2522     1.8512     1.7195   403.5200     1.4477     0.4561
 1263   25.240   3796.51     1.5981     0.0248     0.9505     0.2524     2.0010     1.5893   403.8400     1.5971     0.4426
 1264   25.260   3797.55     1.7650     0.0241     0.9113     0.2526     2.1517     1.4154   404.1600     1.7475     0.3823
 1265   25.280   3798.59     1.6256     0.0250     0.8296     0.2528     1.9645     1.4732   404.4800     1.5600     0.3556
 1266   25.300   3799.63     1.4412     0.0250     0.9500     0.2530     1.8190     1.6612   404.8000     1.4142     0.4573
 1267   25.320   3800.67     1.4149     0.0222     1.0278     0.2532     1.8370     1.5769   405.1200     1.4318     0.5250
 1268   25.340   3801.72     1.4638     0.0187     1.0710     0.2534     1.9081     1.2931   405.4400     1.5027     0.5355
 1269   25.360   3802.79     1.5131     0.0198     1.0989     0.2536     1.9710     1.3222   405.7600     1.5652     0.5345
 1270   25.380   3803.82     1.5346     0.0202     1.1160     0.2538     2.0008     1.3218   406.0800     1.5947     0.5368
 1271   25.400   3804.83     1.5561     0.0206     1.1292     0.2540     2.0282     1.3371   406.4000     1.6218     0.5366
 1272   25.420   3805.86     1.5980     0.0212     1.1432     0.2542     2.0767     1.3388   406.7200     1.6700     0.5303
 1273   25.440   3806.96     1.6222     0.0260     1.1457     0.2544     2.1046     1.6122   407.0400     1.6975     0.5268
 1274   25.460   3808.00     1.6962     0.0265     1.1528     0.2546     2.1846     1.5897   407.3600     1.7772     0.5111
 1275   25.480   3809.06     1.7716     0.0273     1.1435     0.2548     2.2614     1.5678   407.6800     1.8537     0.4917
 1276   25.500   3810.10     1.8564     0.0275     1.0664     0.2550     2.3063     1.4893   408.0000     1.8983     0.4299
 1277   25.520   3811.14     1.7563     0.0283     1.0512     0.2552     2.1916     1.5841   408.3200     1.7832     0.4381
 1278   25.540   3812.15     1.6680     0.0294     1.1293     0.2554     2.1250     1.7166   408.6400     1.7164     0.4855
 1279   25.560   3813.22     1.6377     0.0264     1.1837     0.2556     2.1303     1.6235   408.9600     1.7213     0.5328
 1280   25.580   3814.28     1.6938     0.0219     1.1845     0.2558     2.1934     1.3130   409.2800     1.7841     0.5233
 1281   25.600   3815.36     1.7714     0.0203     1.1360     0.2560     2.2484     1.1596   409.6000     1.8388     0.4784
 1282   25.620   3816.41     1.7104     0.0205     1.1375     0.2562     2.1872     1.1956   409.9200     1.7773     0.4947
 1283   25.640   3817.40     1.6803     0.0233     1.1628     0.2564     2.1660     1.3687   410.2400     1.7557     0.5127
 1284   25.660   3818.41     1.6570     0.0260     1.1872     0.2566     2.1549     1.5578   410.5600     1.7443     0.5325
 1285   25.680   3819.44     1.6442     0.0224     1.2056     0.2568     2.1495     1.3585   410.8800     1.7387     0.5443
 1286   25.700   3820.57     1.6608     0.0271     1.2063     0.2570     2.1667     1.6357   411.2000     1.7555     0.5398
 1287   25.720   3821.58     1.6738     0.0271     1.1638     0.2572     2.1749     1.6347   411.5200     1.7634     0.5309
 1288   25.740   3822.63     1.7333     0.0291     1.1815     0.2574     2.2298     1.6893   411.8400     1.8180     0.5088
 1289   25.760   3823.67     1.7931     0.0301     1.0926     0.2576     2.2567     1.6861   412.1600     1.8445     0.4588
 1290   25.780   3824.75     1.7891     0.0309     1.0690     0.2578     2.2402     1.7635   412.4800     1.8277     0.4468
 1291   25.800   3825.81     1.7574     0.0302     1.1090     0.2580     2.2167     1.6807   412.8000     1.8039     0.4636
 1292   25.820   3826.85     1.6768     0.0317     1.1397     0.2582     2.1437     1.9011   413.1200     1.7306     0.4932
 1293   25.840   3827.85     1.6313     0.0294     1.2043     0.2584     2.1313     1.7962   413.4400     1.7179     0.5426
 1294   25.860   3828.91     1.6385     0.0278     1.2292     0.2586     2.1503     1.6936   413.7600     1.7365     0.5528
 1295   25.880   3830.06     1.6601     0.0254     1.2228     0.2588     2.1725     1.5433   414.0800     1.7584     0.5466
 1296   25.900   3831.11     1.6390     0.0273     1.2328     0.2590     2.1583     1.6570   414.4000     1.7439     0.5605
 1297   25.920   3832.18     1.6523     0.0274     1.2334     0.2592     2.1675     1.6614   414.7200     1.7528     0.5519
 1298   25.940   3833.21     1.6680     0.0269     1.2077     0.2594     2.1791     1.6162   415.0400     1.7641     0.5428
 1299   25.960   3834.25     1.6388     0.0284     1.1715     0.2596     2.1350     1.7285   415.3600     1.7196     0.5360
 1300   25.980   3835.30     1.6519     0.0319     1.1644     0.2598     2.1437     1.9344   415.6800     1.7280     0.5272
 1301   26.000   3836.34     1.6230     0.0294     1.1935     0.2600     2.1167     1.7963   416.0000     1.7007     0.5383
 1302   26.020   3837.38     1.5856     0.0290     1.2100     0.2602     2.0944     1.8220   416.3200     1.6781     0.5668
 1303   26.040   3838.42     1.6083     0.0335     1.1847     0.2604     2.1110     2.0924   416.6400     1.6944     0.5527
 1304   26.060   3839.52     1.6869     0.0502     1.1592     0.2606     2.1781     3.0097   416.9600     1.7611     0.5161
 1305   26.080   3840.56     1.9207     0.0597     1.0992     0.2608     2.3893     3.2484   417.2800     1.9720     0.4345
 1306   26.100   3841.63     2.7792     0.0459     0.9479     0.2610     3.2106     1.7608   417.6000     2.7930     0.2762
 1307   26.120   3842.67     3.4462     0.0555     0.5895     0.2612     3.7617     1.6359   417.9200     3.3438     0.1470
 1308   26.140   3843.75     4.0153     0.0673     0.2585     0.2614     4.1470     1.7537   418.2400     3.7288     0.0148
 1309   26.160   3844.79     6.0856     0.0688     0.3094     0.2616     6.1902     1.2488   418.5600     5.7716    -0.0027
 1310   26.180   3845.86     9.2984     0.0637     0.3882     0.2618     9.4838     0.7416   418.8800     9.0649     0.0197
 1311   26.200   3847.00    11.6211     0.0644    -0.0169     0.2620    11.6344     0.5572   419.2000    11.2152    -0.0205
 1312   26.220   3848.10    12.4331     0.0609    -0.1271     0.2622    12.3795     0.4898   419.5200    11.9600    -0.0326
 1313   26.240   3849.18    12.8362     0.0614    -0.0870     0.2624    12.7861     0.4781   419.8400    12.3662    -0.0309
 1314   26.260   3850.23    13.6121     0.0819    -0.0531     0.2626    13.5916     0.6083   420.1600    13.1714    -0.0237
 1315   26.280   3851.19    14.4573     0.1051    -0.1107     0.2628    14.4160     0.7328   420.4800    13.9956    -0.0258
 1316   26.300   3852.22    15.1112     0.1243    -0.1049     0.2630    15.0667     0.8228   420.8000    14.6459    -0.0252
 1317   26.320   3853.25    14.8088     0.1299    -0.1135     0.2632    14.7598     0.8725   421.1200    14.3387    -0.0265
 1318   26.340   3854.24    13.9307     0.1280    -0.0892     0.2634    13.8899     0.9086   421.4400    13.4685    -0.0268
 1319   26.360   3855.23    12.9350     0.1251    -0.0679     0.2636    12.9037     0.9600   421.7600    12.4819    -0.0271
 1320   26.380   3856.19    12.6153     0.1254    -0.0146     0.2638    12.5973     0.9952   422.0800    12.1752    -0.0252
 1321   26.400   3857.19    13.1178     0.1231     0.0574     0.2640    13.1356     0.9396   422.4000    12.7132    -0.0174
 1322   26.420   3858.21    13.8406     0.1261     0.0720     0.2642    13.8685     0.9121   422.7200    13.4458    -0.0147
 1323   26.440   3859.23    14.3716     0.1346     0.1159     0.2644    14.4198     0.9450   423.0400    13.9967    -0.0107
 1324   26.460   3860.22    14.8839     0.1336     0.1411     0.2646    14.9386     0.9037   423.3600    14.5152    -0.0093
 1325   26.480   3861.19    15.6737     0.1302     0.1469     0.2648    15.7346     0.8177   423.6800    15.3109    -0.0078
 1326   26.500   3862.26    17.1442     0.1273     0.1513     0.2650    17.2085     0.7333   424.0000    16.7845    -0.0067
 1327   26.520   3863.29    19.3286     0.1302     0.1381     0.2652    19.3912     0.6724   424.3200    18.9669    -0.0061
 1328   26.540   3864.31    22.1004     0.1527     0.0395     0.2654    22.1401     0.6936   424.6400    21.7155    -0.0078
 1329   26.560   3865.40    24.6397     0.1799    -0.1368     0.2656    24.5974     0.7336   424.9600    24.1724    -0.0151
 1330   26.580   3871.20    25.4085     0.2031    -0.0806     0.2658    25.3575     0.7984   425.2800    24.9322    -0.0155
 1331   26.600   3886.78    25.3042     0.2246     0.0378     0.2660    25.3029     0.8829   425.6000    24.8773    -0.0108
 1332   26.620   3902.36    25.1998     0.2404     0.1266     0.2662    25.2482     0.9509   425.9200    24.8223    -0.0061
 1333   26.640   3904.40    24.8729     0.2478     0.1169     0.2664    24.9231     0.9945   426.2400    24.4968    -0.0060
 1334   26.660   3905.43    24.3554     0.2466     0.1709     0.2666    24.4178     1.0122   426.5600    23.9912    -0.0049
 1335   26.680   3906.39    23.9771     0.2466     0.1725     0.2668    24.0512     1.0228   426.8800    23.6243    -0.0038
 1336   26.700   3907.41    23.9544     0.2481     0.1757     0.2670    24.0254     1.0357   427.2000    23.5982    -0.0042
 1337   26.720   3908.41    24.2288     0.2528     0.1993     0.2672    24.3073     1.0503   427.5200    23.8798    -0.0034
 1338   26.740   3909.41    24.8045     0.2659     0.2202     0.2674    24.8955     1.0813   427.8400    24.4677    -0.0021
 1339   26.760   3910.50    25.6890     0.2783     0.2542     0.2676    25.7926     1.0984   428.1600    25.3644    -0.0008
 1340   26.780   3911.52    26.8431     0.2960     0.2745     0.2678    26.9563     1.1155   428.4800    26.5278     0.0001
 1341   26.800   3912.57    27.9796     0.3165     0.2739     0.2680    28.0881     1.1469   428.8000    27.6593    -0.0004
 1342   26.820   3913.62    29.0980     0.3340     0.2660     0.2682    29.2063     1.1645   429.1200    28.7772    -0.0004
 1343   26.840   3914.62    29.8455     0.3440     0.2695     0.2684    29.9596     1.1581   429.4400    29.5302     0.0001
 1344   26.860   3915.67    30.0766     0.3507     0.2535     0.2686    30.1865     1.1674   429.7600    29.7567    -0.0002
 1345   26.880   3916.72    29.7902     0.3436     0.2624     0.2688    29.8983     1.1541   430.0800    29.4682    -0.0004
 1346   26.900   3917.76    29.3364     0.3288     0.2544     0.2690    29.4429     1.1199   430.4000    29.0125    -0.0005
 1347   26.920   3918.80    28.6663     0.3130     0.2661     0.2692    28.7797     1.0913   430.7200    28.3489     0.0000
 1348   26.940   3919.82    27.8918     0.2967     0.2625     0.2694    28.0016     1.0636   431.0400    27.5705    -0.0003
 1349   26.960   3920.84    27.1623     0.2751     0.2402     0.2696    27.2655     1.0137   431.3600    26.8342    -0.0009
 1350   26.980   3921.87    26.5681     0.2510     0.2554     0.2698    26.6708     0.9450   431.6800    26.2391    -0.0010
 1351   27.000   3922.86    26.1899     0.2303     0.2484     0.2700    26.2961     0.8795   432.0000    25.8641    -0.0007
 1352   27.020   3923.87    25.7763     0.2171     0.2384     0.2702    25.8808     0.8416   432.3200    25.4485    -0.0008
 1353   27.040   3924.92    25.6720     0.2025     0.2416     0.2704    25.7767     0.7890   432.6400    25.3441    -0.0008
 1354   27.060   3925.97    25.7822     0.1895     0.2189     0.2706    25.8758     0.7349   432.9600    25.4428    -0.0019
 1355   27.080   3926.98    26.0516     0.1890     0.2379     0.2708    26.1472     0.7251   433.2800    25.7139    -0.0017
 1356   27.100   3928.03    26.2105     0.1868     0.2374     0.2710    26.3093     0.7141   433.6000    25.8757    -0.0014
 1357   27.120   3928.99    26.2402     0.1839     0.2438     0.2712    26.3393     0.7009   433.9200    25.9054    -0.0014
 1358   27.140   3930.01    26.2635     0.1815     0.2446     0.2714    26.3645     0.6909   434.2400    25.9303    -0.0012
 1359   27.160   3931.06    26.1809     0.1796     0.2458     0.2716    26.2821     0.6838   434.5600    25.8476    -0.0012
 1360   27.180   3932.15    26.3498     0.1743     0.2853     0.2718    26.4639     0.6629   434.8800    26.0290     0.0000
 1361   27.200   3933.18    27.0828     0.1717     0.2514     0.2720    27.1888     0.6373   435.2000    26.7536    -0.0007
 1362   27.220   3934.22    28.0794     0.1686     0.2643     0.2722    28.1911     0.6042   435.5200    27.7556    -0.0002
 1363   27.240   3935.18    29.2575     0.1739     0.2691     0.2724    29.3607     0.6039   435.8400    28.9248    -0.0009
 1364   27.260   3936.23    30.5942     0.1829     0.2869     0.2726    30.7123     0.6076   436.1600    30.2761     0.0003
 1365   27.280   3937.29    31.4774     0.1920     0.2607     0.2728    31.5901     0.6095   436.4800    31.1537    -0.0001
 1366   27.300   3938.35    31.7956     0.1985     0.2517     0.2730    31.9021     0.6243   436.8000    31.4653    -0.0006
 1367   27.320   3939.39    31.7084     0.1911     0.2618     0.2732    31.8179     0.6020   437.1200    31.3808    -0.0004
 1368   27.340   3940.41    30.9287     0.1782     0.2701     0.2734    31.0403     0.5749   437.4400    30.6028    -0.0003
 1369   27.360   3941.43    29.3606     0.1639     0.2497     0.2736    29.4676     0.5555   437.7600    29.0299    -0.0006
 1370   27.380   3942.43    27.5439     0.1451     0.2691     0.2738    27.6536     0.5258   438.0800    27.2155    -0.0005
 1371   27.400   3943.44    25.9736     0.1226     0.2521     0.2740    26.0791     0.4701   438.4000    25.6407    -0.0009
 1372   27.420   3944.39    24.9946     0.1085     0.2434     0.2742    25.0990     0.4342   438.7200    24.6602    -0.0010
 1373   27.440   3945.40    24.1792     0.1014     0.2414     0.2744    24.2802     0.4191   439.0400    23.8412    -0.0014
 1374   27.460   3946.42    23.9465     0.0857     0.2341     0.2746    24.0497     0.3578   439.3600    23.6103    -0.0012
 1375   27.480   3947.49    24.0164     0.0674     0.2490     0.2748    24.1200     0.2813   439.6800    23.6803    -0.0012
 1376   27.500   3948.46    24.5474     0.0529     0.2590     0.2750    24.6572     0.2164   440.0000    24.2172    -0.0006
 1377   27.520   3949.49    24.5377     0.0451     0.2470     0.2752    24.6460     0.1835   440.3200    24.2056    -0.0007
 1378   27.540   3950.51    24.5294     0.0447     0.2605     0.2754    24.6383     0.1824   440.6400    24.1977    -0.0007
 1379   27.560   3951.45    23.7415     0.0522     0.2538     0.2756    23.8466     0.2179   440.9600    23.4056    -0.0011
 1380   27.580   3952.43    21.5235     0.0708     0.2711     0.2758    21.6373     0.3189   441.2800    21.1960    -0.0002
 1381   27.600   3953.40    19.1645     0.0855     0.2732     0.2760    19.2798     0.4354   441.6000    18.8382    -0.0001
 1382   27.620   3954.35    16.3889     0.1120     0.2782     0.2762    16.5042     0.6607   441.9200    16.0623    -0.0001
 1383   27.640   3955.28    13.6993     0.1527     0.2804     0.2764    13.8184     1.1007   442.2400    13.3762     0.0005
 1384   27.660   3956.24    11.5373     0.1770     0.2844     0.2766    11.6529     1.5310   442.5600    11.2103    -0.0001
 1385   27.680   3957.23    10.9137     0.1886     0.2897     0.2768    11.0339     1.7274   442.8800    10.5910     0.0009
 1386   27.700   3958.25    11.2645     0.1893     0.2855     0.2770    11.3861     1.6788   443.2000    10.9429     0.0012
 1387   27.720   3959.27    11.3077     0.1718     0.2998     0.2772    11.4309     1.5262   443.5200    10.9873     0.0015
 1388   27.740   3960.30    12.1590     0.1471     0.2160     0.2774    12.2697     1.2453   443.8400    11.8259    -0.0011
 1389   27.760   3961.32    13.8613     0.1363     0.1595     0.2776    13.9312     1.0060   444.1600    13.4870    -0.0083
 1390   27.780   3962.32    16.1721     0.1142     0.0704     0.2778    16.2147     0.7187   444.4800    15.7702    -0.0111
 1391   27.800   3963.38    19.2512     0.0953    -0.0049     0.2780    19.2691     0.5030   444.8000    18.8243    -0.0125
 1392   27.820   3964.49    23.3372     0.0833    -0.2067     0.2782    23.2700     0.3660   445.1200    22.8249    -0.0192
 1393   27.840   3965.62    29.4028     0.0742    -0.2626     0.2784    29.2962     0.2625   445.4400    28.8508    -0.0185
 1394   27.860   3966.74    34.5171     0.0889    -0.2826     0.2786    34.4008     0.2629   445.7600    33.9551    -0.0164
 1395   27.880   3967.84    37.2212     0.1137    -0.2900     0.2788    37.0994     0.3087   446.0800    36.6533    -0.0155
 1396   27.900   3968.87    38.5104     0.1578    -0.2901     0.2790    38.3887     0.4105   446.4000    37.9423    -0.0150
 1397   27.920   3969.92    39.6492     0.1905    -0.2856     0.2792    39.5283     0.4868   446.7200    39.0816    -0.0145
 1398   27.940   3971.02    40.8156               -0.2777     0.2794    40.6970              447.0400    40.2500    -0.0140
 1399   27.960   3972.10    42.2742               -0.2681     0.2796    42.1597              447.3600    41.7123    -0.0132
 1400   27.980   3973.16    44.4129               -0.2542     0.2798    44.3040              447.6800    43.8563    -0.0123
 1401   28.000   3974.28    47.0981               -0.2426     0.2800    46.9936              448.0000    46.5456    -0.0114
 1402   28.020   3975.60    49.6956               -0.2298     0.2802    49.5995              448.3200    49.1512    -0.0104
 1403   28.036   3976.53    50.8341                           0.2804    50.7416              448.5707    50.2930    -0.0100
 
 
