

 Program UNIPLOT                         version 05.36.02
 _______________
 (c) Fugro Netherlands Marine, Nootdorp, The Netherlands


 ASCII representation of data plotted on a graph.

 This ASCII file presents data interpolated to values per fixed depth interval.
 The data are corrected for the depth-offset differences between the various 
 transducers in the penetrometer.

 The records at the start of penetration may include no values or anomalous
 values where a depth offset implies incomplete penetration of a particular
 sensor into the ground.

 The records at the end of penetration may include no values for data channels
 where the transducer did not reach this depth.

 The reference level for test values is (1) the ground surface for onshore tests and (2) the seafloor for nearshore and offshore tests.

 UNICAS data file          : CPT-2017.000                            
 Output using command file : PlotASCII.cmd

 ASCII file created at : date          :06-May-2022
                         time          :10:32:12
 Project number                        :20024805
 Date of testing                       :28-Apr-2022
 Location                              :Hong Kong Offshore Wind Farm Project
 Test name                             :CPT-2017
 Penetrometer                          :F7.5CKE2HAW2/B/3285
 Serial no                             :1701-3285

 Table description:
 Column ID                             :Parameter name
 ___________________________________________________________________________________
 Rec                                   :Record ID, Record ID [-]
 Depth                                 :Depth, Depth [m]
 Time                                  :Time, Time [s]
 Cone                                  :Cone Resistance, Cone Resistance [MPa]
 Friction                              :Sleeve Friction, Sleeve Friction [MPa]
 Pore 2                                :Porewater Pressure, Porewater Pressure at Shoulder [MPa]
 HydroPress                            :Hydrostatic Pressure, Hydrostatic Pressure [MPa]
 qt                                    :Total Cone Resistance, Total Cone Resistance [MPa]
 Fric_ratio                            :Friction Ratio, Friction Ratio [%]
 SigmaVert                             :Vertical stress, Vertical stress [kPa] as specified in ground model
 Qnet                                  :Net Cone Resistance, Net Cone Resistance [MPa], unit weight as specified in ground model
 Bq                                    :Porewater Pressure Ratio, Porewater Pressure Ratio [-], unit weight as specified in ground model


 Data table:
  Rec    Depth      Time       Cone   Friction     Pore 2 HydroPress         qt Fric_ratio  SigmaVert       Qnet         Bq
   No        m         s        MPa        MPa        MPa        MPa        MPa          %        kPa        MPa          -
    1    0.000   4574.06     0.0000                           0.0000     0.0000                0.0000     0.0000           
    2    0.020   4575.03     0.0041                0.0005     0.0002     0.0042                0.3200     0.0039     0.0120
    3    0.040   4576.00     0.0054                0.0008     0.0004     0.0057                0.6400     0.0051     0.0602
    4    0.060   4576.96     0.0024     0.0002     0.0011     0.0006     0.0029     6.2696     0.9600     0.0019     0.2798
    5    0.080   4577.94     0.0049     0.0004     0.0013     0.0008     0.0054     6.9770     1.2800     0.0042     0.1020
    6    0.100   4578.89     0.0033     0.0003     0.0014     0.0010     0.0038     5.4197     1.6000     0.0022     0.2850
    7    0.120   4579.84     0.0059     0.0003     0.0013     0.0012     0.0065     5.5791     1.9200     0.0046     0.0394
    8    0.140   4580.83     0.0037     0.0002     0.0013     0.0014     0.0042     6.9866     2.2400     0.0020    -0.1288
    9    0.160   4581.79     0.0033     0.0004     0.0014     0.0016     0.0040    18.5048     2.5600     0.0014     0.0350
   10    0.180   4582.72     0.0051     0.0003     0.0019     0.0018     0.0058     4.8104     2.8800     0.0029     0.0091
   11    0.200   4583.71     0.0058     0.0002     0.0024     0.0020     0.0067     4.0671     3.2000     0.0035     0.0767
   12    0.220   4584.63     0.0057     0.0005     0.0027     0.0022     0.0068     9.8878     3.5200     0.0032     0.1091
   13    0.240   4585.58     0.0057     0.0004     0.0030     0.0024     0.0069     7.3795     3.8400     0.0031     0.1880
   14    0.260   4586.56     0.0037     0.0003     0.0031     0.0026     0.0050     5.9531     4.1600     0.0009     0.7066
   15    0.280   4587.53     0.0064     0.0004     0.0030     0.0028     0.0077     7.7500     4.4800     0.0032     0.0787
   16    0.300   4588.47     0.0073     0.0005     0.0032     0.0030     0.0087     9.1118     4.8000     0.0039     0.0600
   17    0.320   4589.41     0.0047     0.0004     0.0032     0.0032     0.0061     6.6030     5.1200     0.0010     0.0702
   18    0.340   4590.38     0.0058     0.0003     0.0034     0.0034     0.0072     7.7738     5.4400     0.0017    -0.3508
   19    0.360   4591.36     0.0051     0.0002     0.0034     0.0036     0.0065     4.4258     5.7600     0.0008           
   20    0.380   4592.32     0.0062     0.0004     0.0037     0.0038     0.0077     5.7409     6.0800     0.0017    -0.0544
   21    0.400   4593.29     0.0055     0.0002     0.0040     0.0040     0.0071     3.3347     6.4000     0.0007    -0.0198
   22    0.420   4594.25     0.0064     0.0002     0.0045     0.0042     0.0083     4.3922     6.7200     0.0016     0.1496
   23    0.440   4595.19     0.0076     0.0004     0.0048     0.0044     0.0096     6.1970     7.0400     0.0025     0.0871
   24    0.460   4596.15     0.0084     0.0001     0.0052     0.0046     0.0105     1.7586     7.3600     0.0032     0.1274
   25    0.480   4597.12     0.0066     0.0004     0.0054     0.0048     0.0090     4.5236     7.6800     0.0013     0.5681
   26    0.500   4598.06     0.0057     0.0004     0.0053     0.0050     0.0079     6.3652     8.0000    -0.0001    -0.8349
   27    0.520   4598.99     0.0080     0.0002     0.0053     0.0052     0.0102     2.5008     8.3200     0.0019     0.0499
   28    0.540   4599.97     0.0061     0.0002     0.0053     0.0054     0.0083     2.6496     8.6400    -0.0004     0.1321
   29    0.560   4600.96     0.0074     0.0002     0.0055     0.0056     0.0097     2.2901     8.9600     0.0007    -0.2546
   30    0.580   4601.90     0.0081     0.0002     0.0058     0.0058     0.0105     2.4628     9.2800     0.0012    -0.1903
   31    0.600   4602.86     0.0065     0.0002     0.0061     0.0060     0.0090     2.7368     9.6000    -0.0006    -0.0433
   32    0.620   4603.81     0.0096     0.0003     0.0066     0.0062     0.0123     4.1160     9.9200     0.0024     0.0997
   33    0.640   4604.81     0.0093     0.0003     0.0071     0.0064     0.0122     2.6327    10.2400     0.0020     0.2736
   34    0.660   4605.76     0.0084     0.0003     0.0070     0.0066     0.0113     3.8605    10.5600     0.0008     0.4464
   35    0.680   4606.69     0.0085     0.0004     0.0071     0.0068     0.0115     4.2805    10.8800     0.0006     0.3458
   36    0.700   4607.65     0.0090    -0.0002     0.0073     0.0070     0.0121    -1.6043    11.2000     0.0009     0.1969
   37    0.720   4608.64     0.0088    -0.0005     0.0071     0.0072     0.0118   -10.6447    11.5200     0.0003     0.3968
   38    0.740   4609.56     0.0080     0.0018     0.0074     0.0074     0.0111     3.0885    11.8400    -0.0008     0.0694
   39    0.760   4610.56     0.0072     0.0042     0.0078     0.0076     0.0102    16.8217    12.1600    -0.0019     0.1394
   40    0.780   4611.96     0.0193     0.0066     0.0081     0.0078     0.0226    30.5549    12.4800     0.0102     0.0217
   41    0.800   4612.95     0.0354     0.0050     0.0083     0.0080     0.0388    17.0116    12.8000     0.0260     0.0084
   42    0.820   4613.88     0.0992     0.0039     0.0083     0.0082     0.1026     4.2230    13.1200     0.0895     0.0011
   43    0.840   4618.41     0.1062     0.0047     0.0086     0.0084     0.1097     4.2603    13.4400     0.0963     0.0010
   44    0.860   4623.85     0.0999     0.0046     0.0089     0.0086     0.1036     4.1028    13.7600     0.0898     0.0021
   45    0.880   4629.30     0.0936     0.0042     0.0092     0.0088     0.0974     3.7883    14.0800     0.0833     0.0032
   46    0.900   4633.43     0.0896     0.0038     0.0090     0.0090     0.0935     4.2478    14.4000     0.0791     0.0061
   47    0.920   4634.48     0.1348     0.0029     0.0065     0.0092     0.1376     2.1963    14.7200     0.1229    -0.0194
   48    0.940   4635.45     0.1331     0.0031     0.0111     0.0094     0.1365     2.3228    15.0400     0.1215    -0.0096
   49    0.960   4636.40     0.1460     0.0032     0.0087     0.0096     0.1509     2.3139    15.3600     0.1356     0.0170
   50    0.980   4637.38     0.1777     0.0030     0.0017     0.0098     0.1793     1.6638    15.6800     0.1637    -0.0366
   51    1.000   4638.35     0.1805     0.0029    -0.0089     0.0100     0.1783     1.6619    16.0000     0.1623    -0.0927
   52    1.020   4639.30     0.1644     0.0029    -0.0103     0.0102     0.1602     1.7332    16.3200     0.1438    -0.1409
   53    1.040   4640.25     0.1288     0.0035    -0.0110     0.0104     0.1243     2.3937    16.6400     0.1077    -0.1987
   54    1.060   4641.23     0.1006     0.0013    -0.0079     0.0106     0.0970     1.1652    16.9600     0.0800    -0.2427
   55    1.080   4642.20     0.0855     0.0012    -0.0013     0.0108     0.0837     1.3463    17.2800     0.0664    -0.2268
   56    1.100   4643.15     0.0984     0.0021     0.0082     0.0110     0.1002     2.2344    17.6000     0.0826    -0.0811
   57    1.120   4644.12     0.1234     0.0026     0.0141     0.0112     0.1289     2.3692    17.9200     0.1109     0.0169
   58    1.140   4645.07     0.1400     0.0034     0.0133     0.0114     0.1461     2.4508    18.2400     0.1279     0.0250
   59    1.160   4646.02     0.1619     0.0036     0.0036     0.0116     0.1637     2.4875    18.5600     0.1451    -0.0499
   60    1.180   4646.99     0.1466     0.0037     0.0024     0.0118     0.1475     2.4277    18.8800     0.1287    -0.0757
   61    1.200   4647.94     0.1387     0.0032    -0.0028     0.0120     0.1394     2.4179    19.2000     0.1202    -0.0856
   62    1.220   4648.92     0.1389     0.0037    -0.0058     0.0122     0.1354     2.3956    19.5200     0.1158    -0.1803
   63    1.240   4649.89     0.1016     0.0036     0.0021     0.0124     0.1018     3.1953    19.8400     0.0819    -0.1468
   64    1.260   4650.83     0.0978     0.0040     0.0094     0.0126     0.1008     4.1470    20.1600     0.0807    -0.0672
   65    1.280   4651.78     0.1047     0.0046     0.0141     0.0128     0.1100     4.5389    20.4800     0.0895    -0.0021
   66    1.300   4652.73     0.1085     0.0047     0.0187     0.0130     0.1160     4.2728    20.8000     0.0952     0.0499
   67    1.320   4653.68     0.1063     0.0052     0.0168     0.0132     0.1142     4.9025    21.1200     0.0931     0.0609
   68    1.340   4654.66     0.1044     0.0051     0.0146     0.0134     0.1118     4.7921    21.4400     0.0903     0.0458
   69    1.360   4655.63     0.1105     0.0053     0.0069     0.0136     0.1152     4.8078    21.7600     0.0934    -0.0261
   70    1.380   4656.61     0.1142     0.0054     0.0118     0.0138     0.1167     4.7741    22.0800     0.0946    -0.0830
   71    1.400   4657.52     0.1153     0.0057     0.0173     0.0140     0.1221     5.0282    22.4000     0.0997     0.0210
   72    1.420   4658.50     0.1189     0.0052     0.0188     0.0142     0.1266     4.3987    22.7200     0.1038     0.0388
   73    1.440   4659.43     0.1161     0.0052     0.0193     0.0144     0.1241     4.5315    23.0400     0.1011     0.0468
   74    1.460   4660.38     0.1181     0.0050     0.0188     0.0146     0.1264     4.1691    23.3600     0.1030     0.0490
   75    1.480   4661.34     0.1081     0.0050     0.0193     0.0148     0.1157     4.3934    23.6800     0.0920     0.0350
   76    1.500   4662.31     0.0996     0.0049     0.0211     0.0150     0.1082     4.9056    24.0000     0.0842     0.0628
   77    1.520   4663.29     0.0978     0.0052     0.0231     0.0152     0.1075     5.3341    24.3200     0.0832     0.0960
   78    1.540   4664.26     0.1001     0.0053     0.0242     0.0154     0.1101     5.1737    24.6400     0.0854     0.0976
   79    1.560   4665.22     0.0868     0.0056     0.0218     0.0156     0.0961     6.1913    24.9600     0.0711     0.0910
   80    1.580   4666.20     0.0864     0.0058     0.0252     0.0158     0.0966     6.7445    25.2800     0.0713     0.1190
   81    1.600   4667.15     0.0877     0.0057     0.0266     0.0160     0.0981     6.5778    25.6000     0.0725     0.1228
   82    1.620   4668.10     0.0972     0.0055     0.0300     0.0162     0.1095     5.7772    25.9200     0.0836     0.1558
   83    1.640   4669.04     0.1031     0.0051     0.0319     0.0164     0.1164     5.2856    26.2400     0.0902     0.1697
   84    1.660   4670.02     0.0996     0.0046     0.0305     0.0166     0.1123     4.7941    26.5600     0.0858     0.1603
   85    1.680   4670.99     0.1050     0.0042     0.0340     0.0168     0.1190     4.3025    26.8800     0.0921     0.1803
   86    1.700   4671.92     0.1021     0.0047     0.0324     0.0170     0.1165     4.4718    27.2000     0.0893     0.1932
   87    1.720   4672.90     0.0948     0.0049     0.0276     0.0172     0.1066     5.1806    27.5200     0.0791     0.1376
   88    1.740   4685.30     0.1068     0.0048     0.0281     0.0174     0.1185     5.0387    27.8400     0.0907     0.1194
   89    1.760   4700.93     0.1210     0.0047     0.0286     0.0176     0.1330     4.9486    28.1600     0.1048     0.1074
   90    1.780   4716.57     0.1352     0.0047     0.0291     0.0178     0.1474     4.9508    28.4800     0.1189     0.0954
   91    1.800   4723.75     0.1342     0.0046     0.0254     0.0180     0.1450     3.2901    28.8000     0.1162     0.0655
   92    1.820   4724.70     0.1073     0.0048     0.0266     0.0182     0.1176     4.1188    29.1200     0.0885     0.0727
   93    1.840   4725.63     0.0941     0.0048     0.0313     0.0184     0.1065     4.9446    29.4400     0.0771     0.1443
   94    1.860   4726.59     0.0987     0.0052     0.0357     0.0186     0.1132     5.2406    29.7600     0.0834     0.1909
   95    1.880   4727.56     0.1003     0.0051     0.0394     0.0188     0.1163     5.0759    30.0800     0.0862     0.2223
   96    1.900   4728.51     0.1004     0.0049     0.0421     0.0190     0.1177     4.9284    30.4000     0.0873     0.2560
   97    1.920   4729.44     0.1030     0.0049     0.0454     0.0192     0.1215     4.7235    30.7200     0.0908     0.2738
   98    1.940   4730.46     0.1039     0.0047     0.0481     0.0194     0.1237     4.7029    31.0400     0.0927     0.3013
   99    1.960   4731.39     0.1048     0.0050     0.0498     0.0196     0.1258     4.6787    31.3600     0.0945     0.3218
  100    1.980   4732.36     0.1063     0.0057     0.0523     0.0198     0.1272     5.4015    31.6800     0.0956     0.3144
  101    2.000   4733.31     0.1065     0.0058     0.0533     0.0200     0.1291     5.4397    32.0000     0.0971     0.3485
  102    2.020   4734.26     0.1107     0.0059     0.0467     0.0202     0.1314     5.5435    32.3200     0.0990     0.2940
  103    2.040   4735.21     0.1198     0.0057     0.0446     0.0204     0.1392     4.8109    32.6400     0.1066     0.2437
  104    2.060   4736.18     0.1272     0.0056     0.0455     0.0206     0.1463     4.4059    32.9600     0.1134     0.2204
  105    2.080   4737.15     0.1203     0.0056     0.0494     0.0208     0.1406     4.5776    33.2800     0.1073     0.2575
  106    2.100   4738.12     0.1160     0.0051     0.0508     0.0210     0.1367     4.3520    33.6000     0.1031     0.2746
  107    2.120   4739.09     0.1156     0.0052     0.0548     0.0212     0.1381     4.5356    33.9200     0.1042     0.3113
  108    2.140   4740.01     0.1211     0.0048     0.0562     0.0214     0.1448     4.0992    34.2400     0.1106     0.3174
  109    2.160   4740.99     0.1230     0.0045     0.0551     0.0216     0.1463     3.6333    34.5600     0.1117     0.3024
  110    2.180   4741.95     0.1193     0.0047     0.0580     0.0218     0.1431     3.9426    34.8800     0.1082     0.3234
  111    2.200   4742.92     0.1264     0.0053     0.0586     0.0220     0.1512     4.3680    35.2000     0.1160     0.3199
  112    2.220   4743.86     0.1336     0.0056     0.0568     0.0222     0.1576     4.2805    35.5200     0.1220     0.2865
  113    2.240   4744.81     0.1388     0.0057     0.0590     0.0224     0.1630     4.1705    35.8400     0.1272     0.2777
  114    2.260   4745.74     0.1432     0.0061     0.0541     0.0226     0.1666     4.3438    36.1600     0.1304     0.2531
  115    2.280   4746.73     0.1526     0.0059     0.0528     0.0228     0.1748     3.8922    36.4800     0.1383     0.2172
  116    2.300   4747.68     0.1521     0.0059     0.0511     0.0230     0.1740     3.8707    36.8000     0.1372     0.2119
  117    2.320   4748.61     0.1548     0.0061     0.0542     0.0232     0.1775     4.0013    37.1200     0.1403     0.2199
  118    2.340   4749.62     0.1644     0.0059     0.0547     0.0234     0.1878     3.7007    37.4400     0.1504     0.2150
  119    2.360   4750.56     0.1671     0.0052     0.0564     0.0236     0.1913     3.0723    37.7600     0.1536     0.2230
  120    2.380   4751.50     0.1722     0.0051     0.0551     0.0238     0.1949     2.9010    38.0800     0.1568     0.1928
  121    2.400   4752.47     0.1703     0.0052     0.0582     0.0240     0.1943     3.0455    38.4000     0.1559     0.2128
  122    2.420   4753.44     0.1612     0.0057     0.0612     0.0242     0.1864     3.5122    38.7200     0.1476     0.2415
  123    2.440   4754.38     0.1784     0.0060     0.0660     0.0244     0.2056     3.4842    39.0400     0.1666     0.2420
  124    2.460   4755.36     0.2320     0.0052     0.0656     0.0246     0.2600     2.5060    39.3600     0.2207     0.1921
  125    2.480   4756.32     0.2779     0.0051     0.0521     0.0248     0.3023     1.8851    39.6800     0.2626     0.1263
  126    2.500   4757.25     0.2638     0.0052     0.0466     0.0250     0.2837     1.9139    40.0000     0.2437     0.0923
  127    2.520   4758.23     0.2248     0.0050     0.0493     0.0252     0.2453     2.0905    40.3200     0.2050     0.1154
  128    2.540   4759.19     0.1912     0.0047     0.0533     0.0254     0.2128     2.3398    40.6400     0.1721     0.1513
  129    2.560   4760.15     0.1688     0.0042     0.0531     0.0256     0.1913     2.4518    40.9600     0.1504     0.1865
  130    2.580   4761.07     0.1753     0.0044     0.0515     0.0258     0.1976     2.5493    41.2800     0.1564     0.1758
  131    2.600   4762.05     0.2175     0.0044     0.0525     0.0260     0.2390     2.2556    41.6000     0.1974     0.1276
  132    2.620   4763.04     0.2696     0.0044     0.0449     0.0262     0.2917     1.6719    41.9200     0.2498     0.1057
  133    2.640   4763.98     0.2656     0.0041     0.0352     0.0264     0.2804     1.4892    42.2400     0.2382     0.0372
  134    2.660   4764.95     0.3110     0.0040     0.0384     0.0266     0.3266     1.4075    42.5600     0.2840     0.0365
  135    2.680   4765.90     0.3807     0.0038     0.0363     0.0268     0.3970     1.0411    42.8800     0.3541     0.0337
  136    2.700   4766.90     0.4170     0.0043     0.0300     0.0270     0.4300     1.0526    43.2000     0.3868     0.0103
  137    2.720   4767.85     0.4462     0.0042     0.0308     0.0272     0.4591     0.9591    43.5200     0.4156     0.0081
  138    2.740   4768.79     0.4451     0.0040     0.0358     0.0274     0.4592     0.9003    43.8400     0.4154     0.0150
  139    2.760   4769.77     0.4489     0.0046     0.0373     0.0276     0.4649     1.0229    44.1600     0.4207     0.0248
  140    2.780   4770.73     0.4439     0.0043     0.0277     0.0278     0.4565     0.9639    44.4800     0.4120     0.0050
  141    2.800   4771.67     0.3866     0.0042     0.0331     0.0280     0.3998     1.0122    44.8000     0.3550     0.0101
  142    2.820   4772.64     0.3249     0.0041     0.0350     0.0282     0.3389     1.1993    45.1200     0.2938     0.0178
  143    2.840   4773.58     0.2701     0.0041     0.0386     0.0284     0.2856     1.4063    45.4400     0.2401     0.0354
  144    2.860   4774.56     0.2369     0.0038     0.0393     0.0286     0.2542     1.5289    45.7600     0.2085     0.0610
  145    2.880   4775.50     0.1831     0.0035     0.0296     0.0288     0.1971     1.8034    46.0800     0.1511     0.0302
  146    2.900   4776.46     0.1621     0.0039     0.0284     0.0290     0.1734     2.3554    46.4000     0.1270    -0.0164
  147    2.920   4777.40     0.1625     0.0041     0.0365     0.0292     0.1765     2.5337    46.7200     0.1297     0.0311
  148    2.940   4778.39     0.1806     0.0042     0.0464     0.0294     0.1988     2.4281    47.0400     0.1518     0.0909
  149    2.960   4779.35     0.2016     0.0043     0.0517     0.0296     0.2228     2.1935    47.3600     0.1754     0.1185
  150    2.980   4780.31     0.2079     0.0037     0.0510     0.0298     0.2295     1.7978    47.6800     0.1818     0.1193
  151    3.000   4781.29     0.2382     0.0029     0.0546     0.0300     0.2601     1.2998    48.0000     0.2121     0.1046
  152    3.020   4782.24     0.3073     0.0030     0.0556     0.0302     0.3308     1.0461    48.3200     0.2825     0.0914
  153    3.040   4783.20     0.3236     0.0037     0.0448     0.0304     0.3443     1.1459    48.6400     0.2957     0.0637
  154    3.060   4784.17     0.2753     0.0038     0.0470     0.0306     0.2947     1.3168    48.9600     0.2457     0.0633
  155    3.080   4785.13     0.2491     0.0035     0.0498     0.0308     0.2691     1.4277    49.2800     0.2198     0.0764
  156    3.100   4786.12     0.3886     0.0040     0.0542     0.0310     0.4117     1.2541    49.6000     0.3621     0.0665
  157    3.120   4787.07     0.5559     0.0047     0.0410     0.0312     0.5752     0.9210    49.9200     0.5253     0.0283
  158    3.140   4788.02     0.6006     0.0047     0.0340     0.0314     0.6163     0.7629    50.2400     0.5660     0.0104
  159    3.160   4788.99     0.4958     0.0048     0.0400     0.0316     0.5108     0.8834    50.5600     0.4603     0.0096
  160    3.180   4789.95     0.4889     0.0045     0.0415     0.0318     0.5064     0.9274    50.8800     0.4556     0.0221
  161    3.200   4790.92     0.4682     0.0048     0.0463     0.0320     0.4864     0.9730    51.2000     0.4352     0.0264
  162    3.220   4791.88     0.3866     0.0047     0.0583     0.0322     0.4097     1.1058    51.5200     0.3582     0.0643
  163    3.240   4792.85     0.3321     0.0048     0.0651     0.0324     0.3584     1.4153    51.8400     0.3066     0.0991
  164    3.260   4793.78     0.3183     0.0052     0.0697     0.0326     0.3473     1.6022    52.1600     0.2951     0.1231
  165    3.280   4794.67     0.3051     0.0052     0.0687     0.0328     0.3348     1.6904    52.4800     0.2823     0.1342
  166    3.300   4795.59     0.2713     0.0044     0.0679     0.0330     0.2994     1.5065    52.8000     0.2466     0.1377
  167    3.320   4796.53     0.2403     0.0041     0.0699     0.0332     0.2694     1.6164    53.1200     0.2163     0.1672
  168    3.340   4797.48     0.1999     0.0040     0.0743     0.0334     0.2303     1.8849    53.4400     0.1768     0.2203
  169    3.360   4798.45     0.1739     0.0036     0.0806     0.0336     0.2068     1.9842    53.7600     0.1530     0.2927
  170    3.380   4799.43     0.1775     0.0038     0.0891     0.0338     0.2137     2.2508    54.0800     0.1597     0.3293
  171    3.400   4800.37     0.2428     0.0042     0.0892     0.0340     0.2809     1.9941    54.4000     0.2265     0.2528
  172    3.420   4801.34     0.2637     0.0038     0.0736     0.0342     0.2971     1.4522    54.7200     0.2424     0.1867
  173    3.440   4802.30     0.2369     0.0039     0.0686     0.0344     0.2655     1.6127    55.0400     0.2105     0.1619
  174    3.460   4803.23     0.2056     0.0039     0.0705     0.0346     0.2351     1.8902    55.3600     0.1798     0.1983
  175    3.480   4804.20     0.2088     0.0040     0.0712     0.0348     0.2388     1.9350    55.6800     0.1831     0.1993
  176    3.500   4805.20     0.1814     0.0038     0.0714     0.0350     0.2111     1.9461    56.0000     0.1551     0.2303
  177    3.520   4806.08     0.1695     0.0037     0.0759     0.0352     0.2009     2.1911    56.3200     0.1445     0.2730
  178    3.540   4806.84     0.1747     0.0035     0.0784     0.0354     0.2073     2.0549    56.6400     0.1507     0.2809
  179    3.560   4807.65     0.1772     0.0032     0.0799     0.0356     0.2105     1.8020    56.9600     0.1535     0.2841
  180    3.580   4808.48     0.1835     0.0027     0.0819     0.0358     0.2176     1.4832    57.2800     0.1603     0.2833
  181    3.600   4809.46     0.1959     0.0032     0.0835     0.0360     0.2308     1.6736    57.6000     0.1732     0.2717
  182    3.620   4810.43     0.2095     0.0030     0.0838     0.0362     0.2446     1.4604    57.9200     0.1867     0.2541
  183    3.640   4811.38     0.2177     0.0028     0.0844     0.0364     0.2532     1.3263    58.2400     0.1949     0.2466
  184    3.660   4812.33     0.2319     0.0024     0.0835     0.0366     0.2671     1.0681    58.5600     0.2085     0.2275
  185    3.680   4813.29     0.2925     0.0014     0.0838     0.0368     0.3274     0.5592    58.8800     0.2685     0.1736
  186    3.700   4814.23     0.3085     0.0008     0.0812     0.0370     0.3435     0.2674    59.2000     0.2843     0.1631
  187    3.720   4815.20     0.3099    -0.0001     0.0834     0.0372     0.3443    -0.0206    59.5200     0.2848     0.1573
  188    3.740   4816.16     0.3280    -0.0007     0.0821     0.0374     0.3632    -0.2565    59.8400     0.3034     0.1527
  189    3.760   4817.09     0.3640    -0.0002     0.0784     0.0376     0.3973    -0.1284    60.1600     0.3372     0.1237
  190    3.780   4818.04     0.4828     0.0002     0.0665     0.0378     0.5126    -0.0003    60.4800     0.4522     0.0742
  191    3.800   4818.99     0.6185     0.0007     0.0570     0.0380     0.6439     0.1278    60.8000     0.5831     0.0385
  192    3.820   4819.93     0.7800     0.0013     0.0506     0.0382     0.8020     0.1762    61.1200     0.7408     0.0192
  193    3.840   4824.39     1.0726     0.0009     0.0487     0.0384     1.0936     0.0821    61.4400     1.0321     0.0114
  194    3.860   4847.18     1.1873    -0.0007     0.0452     0.0386     1.2068    -0.0648    61.7600     1.1450     0.0078
  195    3.880   4869.97     1.3019    -0.0020     0.0416     0.0388     1.3199    -0.1855    62.0800     1.2578     0.0042
  196    3.900   4892.76     1.4166     0.0018     0.0381     0.0390     1.4331     0.1736    62.4000     1.3707     0.0006
  197    3.920   4912.06     1.6168     0.0022     0.0395     0.0392     1.6331     0.1555    62.7200     1.5704    -0.0003
  198    3.940   4926.24     1.8169     0.0017     0.0413     0.0394     1.8341     0.0961    63.0400     1.7710     0.0008
  199    3.960   4935.36     1.7877     0.0038     0.0465     0.0396     1.8066     0.1769    63.3600     1.7432     0.0031
  200    3.980   4936.72     2.5024     0.0059     0.0502     0.0398     2.5231     0.2576    63.6800     2.4594     0.0038
  201    4.000   4944.34     2.3036     0.0080     0.0475     0.0400     2.3241     0.3410    64.0000     2.2601     0.0039
  202    4.020   4947.41     2.3756     0.0094     0.0468     0.0402     2.3953     0.3858    64.3200     2.3309     0.0028
  203    4.040   4951.98     2.4218     0.0119     0.0469     0.0404     2.4414     0.5130    64.6400     2.3768     0.0026
  204    4.060   4954.89     2.6008     0.0128     0.0483     0.0406     2.6209     0.5186    64.9600     2.5559     0.0028
  205    4.080   4958.00     2.7458     0.0119     0.0498     0.0408     2.7665     0.4834    65.2800     2.7013     0.0031
  206    4.100   4961.10     2.8909     0.0134     0.0507     0.0410     2.9122     0.5412    65.6000     2.8466     0.0034
  207    4.120   4962.36     2.6975     0.0155     0.0522     0.0412     2.7190     0.5529    65.9200     2.6530     0.0038
  208    4.140   4963.32     2.3685     0.0200     0.0558     0.0414     2.3915     0.8004    66.2400     2.3252     0.0057
  209    4.160   4964.28     2.1305     0.0235     0.0564     0.0416     2.1538     1.0681    66.5600     2.0873     0.0067
  210    4.180   4965.22     1.9678     0.0215     0.0606     0.0418     1.9925     1.0627    66.8800     1.9256     0.0088
  211    4.200   4966.15     1.7280     0.0194     0.0569     0.0420     1.7526     1.0719    67.2000     1.6854     0.0098
  212    4.220   4967.07     1.4986     0.0170     0.0678     0.0422     1.5249     1.0901    67.5200     1.4574     0.0141
  213    4.240   4968.08     1.2128     0.0176     0.0809     0.0424     1.2444     1.3853    67.8400     1.1766     0.0281
  214    4.260   4969.08     0.9297     0.0151     0.1127     0.0426     0.9692     1.5239    68.1600     0.9011     0.0575
  215    4.280   4970.04     0.7750     0.0110     0.1650     0.0428     0.8402     1.3851    68.4800     0.7717     0.1461
  216    4.300   4971.00     0.7468     0.0093     0.1667     0.0430     0.8188     1.1931    68.8000     0.7500     0.1711
  217    4.320   4971.95     0.8000     0.0111     0.1232     0.0432     0.8542     1.1096    69.1200     0.7851     0.1095
  218    4.340   4972.95     0.9656     0.0130     0.1329     0.0434     1.0206     1.0262    69.4400     0.9511     0.0924
  219    4.360   4973.93     1.5974     0.0149     0.0990     0.0436     1.6455     0.9427    69.7600     1.5757     0.0466
  220    4.380   4974.94     2.3767     0.0148     0.0592     0.0438     2.4066     0.7366    70.0800     2.3366     0.0122
  221    4.400   4975.90     2.9556     0.0151     0.0269     0.0440     2.9712     0.5333    70.4000     2.9008    -0.0022
  222    4.420   4991.75     3.0572     0.0145     0.0259     0.0442     3.0682     0.4762    70.7200     2.9975    -0.0060
  223    4.440   5012.32     3.0598     0.0129     0.0248     0.0444     3.0704     0.4216    71.0400     2.9993    -0.0064
  224    4.460   5032.90     3.0624     0.0158     0.0238     0.0446     3.0725     0.5156    71.3600     3.0012    -0.0068
  225    4.480   5048.26     2.9768     0.0233     0.0337     0.0448     2.9885     0.7618    71.6800     2.9168    -0.0057
  226    4.500   5048.88     2.7469     0.0278     0.0470     0.0450     2.7649     1.0056    72.0000     2.6929    -0.0008
  227    4.520   5049.51     2.6517     0.0259     0.0490     0.0452     2.6719     0.9714    72.3200     2.5996     0.0011
  228    4.540   5050.13     2.6142     0.0194     0.0463     0.0454     2.6354     0.7382    72.6400     2.5628     0.0020
  229    4.560   5050.76     2.2966     0.0228     0.0471     0.0456     2.3150     0.9832    72.9600     2.2420    -0.0007
  230    4.580   5051.38     1.9821     0.0278     0.0508     0.0458     2.0031     1.3110    73.2800     1.9298     0.0022
  231    4.600   5052.01     1.8209     0.0281     0.0443     0.0460     1.8398     1.4854    73.6000     1.7662    -0.0006
  232    4.620   5052.67     2.1810     0.0345     0.0309     0.0462     2.1987     1.5798    73.9200     2.1248    -0.0014
  233    4.640   5053.29     3.3259     0.0430     0.0292     0.0464     3.3361     1.6215    74.2400     3.2619    -0.0070
  234    4.660   5053.94     3.4960     0.0515     0.0414     0.0466     3.5130     1.6633    74.5600     3.4384    -0.0018
  235    4.680   5054.57     2.7358     0.0580     0.0255     0.0468     2.7456     1.9795    74.8800     2.6708    -0.0088
  236    4.700   5055.22     2.2297     0.0550     0.0482     0.0470     2.2451     2.2583    75.2000     2.1699    -0.0043
  237    4.720   5061.41     1.9798     0.0499     0.0627     0.0472     2.0051     2.5647    75.5200     1.9296     0.0066
  238    4.740   5077.20     2.0736     0.0451     0.0697     0.0474     2.1018     2.3159    75.8400     2.0260     0.0094
  239    4.760   5093.00     2.1674     0.0409     0.0766     0.0476     2.1986     2.1017    76.1600     2.1224     0.0122
  240    4.780   5108.80     2.2612     0.0389     0.0861     0.0478     2.2953     1.8577    76.4800     2.2188     0.0150
  241    4.800   5111.04     3.0840     0.0470     0.0611     0.0480     3.1142     1.6185    76.8000     3.0374     0.0080
  242    4.820   5112.02     3.5933     0.0510     0.0527     0.0482     3.6148     1.4554    77.1200     3.5377     0.0008
  243    4.840   5113.04     4.2598     0.0454     0.0422     0.0484     4.2811     1.1304    77.4400     4.2037     0.0006
  244    4.860   5114.06     4.3627     0.0433     0.0056     0.0486     4.3668     0.9831    77.7600     4.2891    -0.0090
  245    4.880   5114.97     4.1365     0.0402     0.0222     0.0488     4.1452     0.9595    78.0800     4.0671    -0.0069
  246    4.900   5115.92     3.8938     0.0382     0.0128     0.0490     3.9023     0.9754    78.4000     3.8239    -0.0075
  247    4.920   5116.91     4.0492     0.0369    -0.0250     0.0492     4.0412     0.9142    78.7200     3.9624    -0.0172
  248    4.940   5117.88     4.0332     0.0338     0.0037     0.0494     4.0301     0.8439    79.0400     3.9510    -0.0144
  249    4.960   5118.84     4.5714     0.0251     0.0074     0.0496     4.5746     0.5597    79.3600     4.4952    -0.0093
  250    4.980   5119.84     5.3506     0.0209    -0.0076     0.0498     5.3526     0.4027    79.6800     5.2729    -0.0085
  251    5.000   5120.80     6.2403     0.0167    -0.0315     0.0500     6.2280     0.2724    80.0000     6.1480    -0.0129
  252    5.020   5121.80     7.0610     0.0139     0.0042     0.0502     7.0576     0.1997    80.3200     6.9773    -0.0084
  253    5.040   5122.77     8.0194     0.0119    -0.0449     0.0504     8.0140     0.1579    80.6400     7.9334    -0.0079
  254    5.060   5123.80     8.8536     0.0120    -0.0396     0.0506     8.8339     0.1366    80.9600     8.7530    -0.0112
  255    5.080   5124.79     9.5273     0.0145    -0.0437     0.0508     9.5057     0.1540    81.2800     9.4244    -0.0109
  256    5.100   5125.78    10.0388     0.0183    -0.0268     0.0510    10.0237     0.1840    81.6000     9.9421    -0.0088
  257    5.120   5126.79    10.4199     0.0234    -0.0285     0.0512    10.4075     0.2247    81.9200    10.3256    -0.0078
  258    5.140   5127.79    10.5722     0.0302    -0.0251     0.0514    10.5596     0.2862    82.2400    10.4773    -0.0078
  259    5.160   5128.79    10.5139     0.0422    -0.0050     0.0516    10.5094     0.4014    82.5600    10.4268    -0.0060
  260    5.180   5129.76    10.4257     0.0507     0.0117     0.0518    10.4284     0.4857    82.8800    10.3455    -0.0044
  261    5.200   5130.76    10.4110     0.0518     0.0266     0.0520    10.4209     0.4976    83.2000    10.3377    -0.0027
  262    5.220   5131.80    10.5484     0.0496     0.0354     0.0522    10.5619     0.4723    83.5200    10.4783    -0.0019
  263    5.240   5132.78    10.7865     0.0468     0.0422     0.0524    10.8039     0.4354    83.8400    10.7201    -0.0010
  264    5.260   5133.77    10.7860     0.0457     0.0459     0.0526    10.8047     0.4220    84.1600    10.7205    -0.0007
  265    5.280   5134.78    10.4666     0.0432     0.0468     0.0528    10.4858     0.4100    84.4800    10.4013    -0.0007
  266    5.300   5135.76     9.9821     0.0396     0.0502     0.0530    10.0027     0.3929    84.8000     9.9179    -0.0004
  267    5.320   5136.71     9.4729     0.0362     0.0512     0.0532     9.4950     0.3797    85.1200     9.4099    -0.0001
  268    5.340   5137.68     9.0530     0.0325     0.0512     0.0534     9.0743     0.3574    85.4400     8.9888    -0.0003
  269    5.360   5138.65     8.7653     0.0296     0.0501     0.0536     8.7873     0.3362    85.7600     8.7015    -0.0001
  270    5.380   5139.68     8.6456     0.0283     0.0494     0.0538     8.6660     0.3271    86.0800     8.5800    -0.0006
  271    5.400   5140.66     8.7229     0.0282     0.0502     0.0540     8.7435     0.3237    86.4000     8.6571    -0.0006
  272    5.420   5141.68     8.9835     0.0283     0.0508     0.0542     9.0046     0.3161    86.7200     8.9179    -0.0004
  273    5.440   5142.64     9.3074     0.0289     0.0523     0.0544     9.3286     0.3115    87.0400     9.2415    -0.0004
  274    5.460   5143.65     9.7681     0.0311     0.0553     0.0546     9.7907     0.3199    87.3600     9.7034    -0.0001
  275    5.480   5144.66    10.1879     0.0340     0.0563     0.0548    10.2110     0.3347    87.6800    10.1233     0.0000
  276    5.500   5145.68    10.6659     0.0375     0.0539     0.0550    10.6894     0.3530    88.0000    10.6014     0.0001
  277    5.520   5146.66    10.9622     0.0406     0.0543     0.0552    10.9853     0.3714    88.3200    10.8970     0.0000
  278    5.540   5147.65    11.2147     0.0452     0.0551     0.0554    11.2376     0.4040    88.6400    11.1490    -0.0001
  279    5.560   5148.67    11.5101     0.0510     0.0562     0.0556    11.5341     0.4490    88.9600    11.4452     0.0001
  280    5.580   5149.65    11.7636     0.0535     0.0562     0.0558    11.7871     0.4555    89.2800    11.6979     0.0000
  281    5.600   5150.71    11.9355     0.0562     0.0570     0.0560    11.9592     0.4715    89.6000    11.8696     0.0000
  282    5.620   5151.73    12.0588     0.0583     0.0507     0.0562    12.0806     0.4830    89.9200    11.9907    -0.0004
  283    5.640   5152.69    12.0643     0.0588     0.0579     0.0564    12.0886     0.4886    90.2400    11.9983     0.0001
  284    5.660   5153.70    12.0771     0.0581     0.0580     0.0566    12.1002     0.4818    90.5600    12.0096    -0.0001
  285    5.680   5154.73    12.1874     0.0566     0.0562     0.0568    12.2103     0.4647    90.8800    12.1194    -0.0002
  286    5.700   5155.72    12.2829     0.0539     0.0533     0.0570    12.3053     0.4388    91.2000    12.2141    -0.0003
  287    5.720   5156.75    12.2989     0.0527     0.0510     0.0572    12.3212     0.4282    91.5200    12.2297    -0.0003
  288    5.740   5157.78    12.3199     0.0522     0.0451     0.0574    12.3392     0.4248    91.8400    12.2473    -0.0009
  289    5.760   5158.75    12.2957     0.0539     0.0512     0.0576    12.3167     0.4383    92.1600    12.2246    -0.0006
  290    5.780   5159.76    12.2923     0.0574     0.0534     0.0578    12.3142     0.4668    92.4800    12.2217    -0.0005
  291    5.800   5160.73    12.2165     0.0628     0.0539     0.0580    12.2383     0.5127    92.8000    12.1455    -0.0005
  292    5.820   5161.76    12.1090     0.0677     0.0563     0.0582    12.1326     0.5574    93.1200    12.0395    -0.0002
  293    5.840   5162.90    11.9703     0.0690     0.0584     0.0584    11.9950     0.6272    93.4400    11.9015     0.0000
  294    5.860   5191.58    11.8713     0.0683     0.0587     0.0586    11.8959     0.6462    93.7600    11.8021     0.0000
  295    5.880   5211.04    11.8460     0.0710     0.0602     0.0588    11.8711     0.6144    94.0800    11.7770     0.0001
  296    5.900   5212.03    11.8737     0.0732     0.0613     0.0590    11.8992     0.6171    94.4000    11.8048     0.0001
  297    5.920   5213.04    12.0777     0.0719     0.0582     0.0592    12.1025     0.5970    94.7200    12.0078     0.0000
  298    5.940   5214.05    12.5494     0.0677     0.0572     0.0594    12.5736     0.5404    95.0400    12.4785    -0.0001
  299    5.960   5215.05    12.9706     0.0621     0.0521     0.0596    12.9934     0.4857    95.3600    12.8980    -0.0004
  300    5.980   5216.10    13.4392     0.0548     0.0274     0.0598    13.4546     0.4088    95.6800    13.3589    -0.0017
  301    6.000   5217.10    13.9559     0.0491    -0.0098     0.0600    13.9583     0.3530    96.0000    13.8623    -0.0039
  302    6.020   5218.10    14.2878     0.0457    -0.0386     0.0602    14.2779     0.3227    96.3200    14.1816    -0.0059
  303    6.040   5219.10    14.4993     0.0465    -0.0495     0.0604    14.4850     0.3211    96.6400    14.3884    -0.0066
  304    6.060   5220.15    14.8495     0.0520    -0.0575     0.0606    14.8278     0.3510    96.9600    14.7309    -0.0076
  305    6.080   5221.15    15.1587     0.0592    -0.0348     0.0608    15.1401     0.3914    97.2800    15.0428    -0.0070
  306    6.100   5222.15    15.3874     0.0691     0.0103     0.0610    15.3825     0.4498    97.6000    15.2849    -0.0048
  307    6.120   5223.20    15.5430     0.0785     0.0323     0.0612    15.5548     0.5059    97.9200    15.4569    -0.0021
  308    6.140   5224.20    15.7268     0.0810     0.0475     0.0614    15.7457     0.5153    98.2400    15.6474    -0.0011
  309    6.160   5225.18    15.7516     0.0806     0.0538     0.0616    15.7721     0.5117    98.5600    15.6736    -0.0008
  310    6.180   5226.18    15.6654     0.0777     0.0558     0.0618    15.6911     0.4961    98.8800    15.5922     0.0000
  311    6.200   5227.20    15.5472     0.0744     0.0612     0.0620    15.5730     0.4779    99.2000    15.4738     0.0000
  312    6.220   5228.24    15.2790     0.0708     0.0646     0.0622    15.3045     0.4628    99.5200    15.2049    -0.0001
  313    6.240   5229.23    15.0429     0.0690     0.0638     0.0624    15.0696     0.4582    99.8400    14.9698     0.0001
  314    6.260   5230.24    14.8802     0.0694     0.0658     0.0626    14.9078     0.4635   100.1600    14.8076     0.0002
  315    6.280   5231.25    14.6159     0.0706     0.0674     0.0628    14.6413     0.4817   100.4800    14.5408    -0.0001
  316    6.300   5232.24    14.2152     0.0683     0.0496     0.0630    14.2407     0.4683   100.8000    14.1399    -0.0002
  317    6.320   5233.25    14.0439     0.0610     0.0229     0.0632    14.0513     0.4229   101.1200    13.9501    -0.0033
  318    6.340   5234.24    14.0356     0.0538     0.0056     0.0634    14.0423     0.3775   101.4400    13.9409    -0.0034
  319    6.360   5235.25    13.9918     0.0462    -0.0422     0.0636    13.9854     0.3281   101.7600    13.8836    -0.0057
  320    6.380   5236.31    13.6702     0.0371    -0.0856     0.0638    13.6401     0.2686   102.0800    13.5380    -0.0100
  321    6.400   5237.65    13.1086     0.0282    -0.1019     0.0640    13.0614     0.2110   102.4000    12.9590    -0.0135
  322    6.420   5240.40    12.3593     0.0230    -0.0716     0.0642    12.3248     0.1731   102.7200    12.2221    -0.0117
  323    6.440   5243.15    11.6100     0.0221    -0.0413     0.0644    11.5883     0.1667   103.0400    11.4852    -0.0098
  324    6.460   5245.90    10.8607     0.0256    -0.0088     0.0646    10.8517     0.2214   103.3600    10.7484    -0.0080
  325    6.480   5247.04    10.2387     0.0281     0.0040     0.0648    10.2401     0.2729   103.6800    10.1364    -0.0061
  326    6.500   5248.06     9.7470     0.0288     0.0160     0.0650     9.7503     0.2933   104.0000     9.6463    -0.0059
  327    6.520   5249.00     9.2955     0.0273     0.0377     0.0652     9.3108     0.2929   104.3200     9.2065    -0.0031
  328    6.540   5250.04     9.0733     0.0228     0.0664     0.0654     9.0962     0.2506   104.6400     8.9915    -0.0012
  329    6.560   5251.02     8.9363     0.0214     0.0505     0.0656     8.9590     0.2387   104.9600     8.8540    -0.0013
  330    6.580   5252.04     8.9140     0.0248     0.0610     0.0658     8.9392     0.2782   105.2800     8.8339    -0.0007
  331    6.600   5253.05     8.9627     0.0289     0.0550     0.0660     8.9842     0.3229   105.6000     8.8786    -0.0017
  332    6.620   5254.01     9.1297     0.0332     0.0555     0.0662     9.1549     0.3642   105.9200     9.0490    -0.0007
  333    6.640   5255.02     9.3292     0.0388     0.0581     0.0664     9.3520     0.4166   106.2400     9.2458    -0.0013
  334    6.660   5256.02     9.6299     0.0466     0.0610     0.0666     9.6558     0.4849   106.5600     9.5493    -0.0005
  335    6.680   5257.04     9.9925     0.0583     0.0466     0.0668    10.0129     0.5853   106.8800     9.9060    -0.0018
  336    6.700   5258.06    10.3831     0.0637     0.0296     0.0670    10.4002     0.6174   107.2000    10.2930    -0.0026
  337    6.720   5259.02    10.6095     0.0619     0.0044     0.0672    10.6157     0.5841   107.5200    10.5082    -0.0050
  338    6.740   5260.02    10.5432     0.0585    -0.0133     0.0674    10.5409     0.5542   107.8400    10.4330    -0.0070
  339    6.760   5261.02    10.2091     0.0584    -0.0288     0.0676    10.1998     0.5698   108.1600    10.0917    -0.0089
  340    6.780   5262.03     9.7931     0.0573    -0.0357     0.0678     9.7783     0.5820   108.4800     9.6698    -0.0107
  341    6.800   5262.98     9.6397     0.0502    -0.0477     0.0680     9.6205     0.5202   108.8000     9.5117    -0.0120
  342    6.820   5264.01     9.8384     0.0394    -0.0770     0.0682     9.8087     0.4021   109.1200     9.6996    -0.0143
  343    6.840   5265.00    10.3917     0.0375    -0.0657     0.0684    10.3630     0.3629   109.4400    10.2536    -0.0133
  344    6.860   5266.02    11.1043     0.0439    -0.0821     0.0686    11.0732     0.3989   109.7600    10.9634    -0.0130
  345    6.880   5267.01    11.5775     0.0566    -0.1097     0.0688    11.5345     0.4903   110.0800    11.4244    -0.0150
  346    6.900   5267.99    11.4631     0.0740    -0.1169     0.0690    11.4142     0.6423   110.4000    11.3038    -0.0164
  347    6.920   5269.03    10.6639     0.0902    -0.1020     0.0692    10.6183     0.8362   110.7200    10.5076    -0.0169
  348    6.940   5269.98     9.7403     0.0990    -0.0884     0.0694     9.7017     1.0064   111.0400     9.5907    -0.0168
  349    6.960   5270.97     8.8849     0.0979    -0.0633     0.0696     8.8536     1.0891   111.3600     8.7423    -0.0165
  350    6.980   5271.95     8.2691     0.0847    -0.0251     0.0698     8.2522     1.0141   111.6800     8.1405    -0.0135
  351    7.000   5272.94     7.8439     0.0673     0.0238     0.0700     7.8479     0.8557   112.0000     7.7359    -0.0078
  352    7.020   5273.95     7.8440     0.0589     0.0574     0.0702     7.8615     0.7541   112.3200     7.7492    -0.0037
  353    7.040   5274.97     8.1688     0.0552     0.0380     0.0704     8.1903     0.6787   112.6400     8.0777    -0.0024
  354    7.060   5275.95     8.6486     0.0456     0.0267     0.0706     8.6627     0.5313   112.9600     8.5498    -0.0043
  355    7.080   5276.96     9.4512     0.0410    -0.0068     0.0708     9.4519     0.4382   113.2800     9.3386    -0.0074
  356    7.100   5277.99    10.3621     0.0382    -0.0375     0.0710    10.3504     0.3751   113.6000    10.2368    -0.0096
  357    7.120   5278.98    10.8199     0.0368    -0.0564     0.0712    10.7988     0.3416   113.9200    10.6849    -0.0114
  358    7.140   5280.00    10.6459     0.0465    -0.0576     0.0714    10.6199     0.4346   114.2400    10.5056    -0.0127
  359    7.160   5280.98    10.0408     0.0612    -0.0525     0.0716    10.0171     0.5996   114.5600     9.9026    -0.0129
  360    7.180   5281.98     9.1344     0.0691    -0.0388     0.0718     9.1167     0.7344   114.8800     9.0018    -0.0127
  361    7.200   5282.96     8.1278     0.0686    -0.0294     0.0720     8.1132     0.8157   115.2000     7.9980    -0.0134
  362    7.220   5283.91     7.2244     0.0650     0.0026     0.0722     7.2203     0.8727   115.5200     7.1048    -0.0115
  363    7.240   5284.91     6.5848     0.0580     0.0395     0.0724     6.5963     0.8615   115.8400     6.4805    -0.0069
  364    7.260   5285.87     6.2525     0.0537     0.0611     0.0726     6.2768     0.8493   116.1600     6.1606    -0.0024
  365    7.280   5286.82     5.8443     0.0500     0.0442     0.0728     5.8649     0.8293   116.4800     5.7484    -0.0042
  366    7.300   5287.81     5.0901     0.0456     0.0638     0.0730     5.1132     0.8570   116.8000     4.9964    -0.0036
  367    7.320   5288.73     4.1554     0.0423     0.1219     0.0732     4.1980     0.9617   117.1200     4.0809     0.0071
  368    7.340   5289.73     3.2487     0.0371     0.2007     0.0734     3.3227     1.0671   117.4400     3.2052     0.0323
  369    7.360   5290.67     2.7070     0.0335     0.2834     0.0736     2.8134     1.1909   117.7600     2.6957     0.0669
  370    7.380   5291.62     2.2894     0.0347     0.3532     0.0738     2.4280     1.4578   118.0800     2.3099     0.1110
  371    7.400   5292.59     1.9158     0.0359     0.3902     0.0740     2.0716     1.7830   118.4000     1.9532     0.1520
  372    7.420   5293.63     1.8127     0.0287     0.3905     0.0742     1.9840     1.5883   118.7200     1.8653     0.1788
  373    7.440   5294.57     1.7891     0.0206     0.3372     0.0744     1.9383     1.1389   119.0400     1.8192     0.1543
  374    7.460   5295.54     1.5578     0.0172     0.2974     0.0746     1.6865     1.0552   119.3600     1.5672     0.1480
  375    7.480   5296.52     1.3091     0.0163     0.3044     0.0748     1.4363     1.1657   119.6800     1.3167     0.1737
  376    7.500   5297.45     1.1478     0.0129     0.3514     0.0750     1.2851     1.0924   120.0000     1.1651     0.2165
  377    7.520   5298.43     1.0705     0.0126     0.4120     0.0752     1.2360     1.1634   120.3200     1.1156     0.2858
  378    7.540   5299.40     1.0542     0.0146     0.4518     0.0754     1.2383     1.3835   120.6400     1.1176     0.3248
  379    7.560   5300.39     1.1022     0.0137     0.4790     0.0756     1.3007     1.2916   120.9600     1.1797     0.3366
  380    7.580   5301.36     1.2913     0.0149     0.4760     0.0758     1.4952     1.2278   121.2800     1.3739     0.2986
  381    7.600   5302.29     1.4835     0.0145     0.3017     0.0760     1.6326     1.0093   121.6000     1.5110     0.1848
  382    7.620   5303.27     1.4138     0.0148     0.2464     0.0762     1.5188     1.0075   121.9200     1.3969     0.1245
  383    7.640   5304.26     1.1941     0.0160     0.2715     0.0764     1.3096     1.2791   122.2400     1.1873     0.1673
  384    7.660   5305.22     1.0303     0.0172     0.3281     0.0766     1.1587     1.5770   122.5600     1.0361     0.2213
  385    7.680   5306.18     0.9368     0.0141     0.4087     0.0768     1.0970     1.4802   122.8800     0.9741     0.3126
  386    7.700   5307.13     0.9653     0.0112     0.4476     0.0770     1.1512     1.1841   123.2000     1.0280     0.3557
  387    7.720   5308.11     1.0584     0.0102     0.4571     0.0772     1.2489     0.9602   123.5200     1.1254     0.3345
  388    7.740   5309.05     1.1269     0.0126     0.4561     0.0774     1.3215     0.9503   123.8400     1.1977     0.3224
  389    7.760   5309.99     1.5582     0.0149     0.4438     0.0776     1.7471     0.9404   124.1600     1.6229     0.2316
  390    7.780   5310.98     2.4928     0.0199     0.3391     0.0778     2.6574     0.8315   124.4800     2.5329     0.1262
  391    7.800   5311.96     3.6022     0.0258     0.1984     0.0780     3.7068     0.7383   124.8000     3.5820     0.0485
  392    7.820   5312.92     4.5746     0.0306     0.1083     0.0782     4.6270     0.6777   125.1200     4.5019     0.0105
  393    7.840   5325.67     5.4165     0.0345     0.0805     0.0784     5.4543     0.7256   125.4400     5.3289     0.0032
  394    7.860   5341.29     6.2404     0.0358     0.0527     0.0786     6.2665     0.7538   125.7600     6.1408    -0.0019
  395    7.880   5350.97     6.9076     0.0345    -0.0242     0.0788     6.9109     0.5057   126.0800     6.7849    -0.0104
  396    7.900   5351.97     7.0832     0.0368    -0.0373     0.0790     7.0663     0.5207   126.4000     6.9399    -0.0172
  397    7.920   5353.00     6.9090     0.0487    -0.0594     0.0792     6.8882     0.6934   126.7200     6.7615    -0.0190
  398    7.940   5353.96     6.3868     0.0702    -0.0791     0.0794     6.3566     1.0666   127.0400     6.2295    -0.0243
  399    7.960   5354.91     5.5488     0.0919    -0.0838     0.0796     5.5132     1.5785   127.3600     5.3858    -0.0305
  400    7.980   5355.90     4.5819     0.1119    -0.0714     0.0798     4.5488     2.2928   127.6800     4.4211    -0.0359
  401    8.000   5356.87     3.7088     0.1127    -0.0476     0.0800     3.6847     2.8355   128.0000     3.5567    -0.0386
  402    8.020   5357.83     3.0367     0.0966     0.0064     0.0802     3.0298     2.9538   128.3200     2.9015    -0.0331
  403    8.040   5358.78     2.6106     0.0782     0.0968     0.0804     2.6378     2.8937   128.6400     2.5092    -0.0060
  404    8.060   5359.77     2.2550     0.0641     0.1702     0.0806     2.3151     2.7005   128.9600     2.1861     0.0290
  405    8.080   5360.74     1.8710     0.0552     0.1801     0.0808     1.9476     2.7751   129.2800     1.8184     0.0560
  406    8.100   5361.69     1.8201     0.0453     0.2742     0.0810     1.9192     2.5392   129.6000     1.7896     0.0862
  407    8.120   5362.62     1.9724     0.0300     0.2510     0.0812     2.0868     1.5668   129.9200     1.9569     0.0977
  408    8.140   5363.64     1.9056     0.0207     0.0937     0.0814     1.9773     1.0547   130.2400     1.8470     0.0482
  409    8.160   5364.59     1.6140     0.0169     0.0152     0.0816     1.6141     0.9816   130.5600     1.4836    -0.0552
  410    8.180   5365.59     1.2229     0.0163     0.0787     0.0818     1.2531     1.2184   130.8800     1.1222    -0.0085
  411    8.200   5366.51     0.9364     0.0179     0.1313     0.0820     0.9762     1.7572   131.2000     0.8450     0.0154
  412    8.220   5367.43     0.8049     0.0161     0.2316     0.0822     0.8904     1.9571   131.5200     0.7589     0.1602
  413    8.240   5368.40     0.7799     0.0132     0.2885     0.0824     0.8942     1.6849   131.8400     0.7623     0.2487
  414    8.260   5369.39     0.7931     0.0110     0.3142     0.0826     0.9216     1.3989   132.1600     0.7895     0.2828
  415    8.280   5370.38     0.8183     0.0106     0.3186     0.0828     0.9534     1.3031   132.4800     0.8209     0.2911
  416    8.300   5371.34     0.8159     0.0108     0.3267     0.0830     0.9496     1.3093   132.8000     0.8168     0.2884
  417    8.320   5372.29     0.7594     0.0113     0.3455     0.0832     0.9010     1.4448   133.1200     0.7679     0.3309
  418    8.340   5373.19     0.7341     0.0110     0.3470     0.0834     0.8835     1.5034   133.4400     0.7500     0.3631
  419    8.360   5374.18     0.7639     0.0110     0.3336     0.0836     0.9022     1.4355   133.7600     0.7684     0.3196
  420    8.380   5375.16     0.7600     0.0122     0.3406     0.0838     0.9030     1.5972   134.0800     0.7690     0.3338
  421    8.400   5376.14     0.7606     0.0131     0.3469     0.0840     0.9031     1.7309   134.4000     0.7687     0.3322
  422    8.420   5377.11     0.7517     0.0125     0.3679     0.0842     0.9024     1.6634   134.7200     0.7676     0.3577
  423    8.440   5378.05     0.7871     0.0112     0.3613     0.0844     0.9416     1.4466   135.0400     0.8065     0.3514
  424    8.460   5379.02     0.8293     0.0106     0.3589     0.0846     0.9804     1.2730   135.3600     0.8450     0.3256
  425    8.480   5379.99     0.7793     0.0094     0.3752     0.0848     0.9340     1.1773   135.6800     0.7984     0.3554
  426    8.500   5380.95     0.6967     0.0089     0.3954     0.0850     0.8586     1.2611   136.0000     0.7226     0.4158
  427    8.520   5381.94     0.6633     0.0108     0.4281     0.0852     0.8401     1.6077   136.3200     0.7038     0.4769
  428    8.540   5382.88     0.6867     0.0137     0.4212     0.0854     0.8655     2.0298   136.6400     0.7289     0.4672
  429    8.560   5383.82     0.7444     0.0137     0.4082     0.0856     0.9193     1.8828   136.9600     0.7824     0.4233
  430    8.580   5384.80     0.8722     0.0131     0.3811     0.0858     1.0355     1.6043   137.2800     0.8982     0.3383
  431    8.600   5385.80     1.0901     0.0140     0.3439     0.0860     1.2406     1.3756   137.6000     1.1030     0.2482
  432    8.620   5386.79     1.3873     0.0158     0.2703     0.0862     1.5089     1.2354   137.9200     1.3710     0.1490
  433    8.640   5387.74     1.6163     0.0145     0.2180     0.0864     1.7082     0.9330   138.2400     1.5700     0.0844
  434    8.660   5388.72     1.5134     0.0133     0.2219     0.0866     1.6039     0.8347   138.5600     1.4653     0.0883
  435    8.680   5389.65     1.2182     0.0131     0.2520     0.0868     1.3167     1.0112   138.8800     1.1779     0.1258
  436    8.700   5390.62     0.9440     0.0121     0.2852     0.0870     1.0634     1.1751   139.2000     0.9242     0.2138
  437    8.720   5391.54     0.7297     0.0113     0.2923     0.0872     0.8503     1.4274   139.5200     0.7107     0.2813
  438    8.740   5392.52     0.6681     0.0115     0.3515     0.0874     0.8044     1.6728   139.8400     0.6646     0.3570
  439    8.760   5393.53     0.6170     0.0112     0.4046     0.0876     0.7806     1.7904   140.1600     0.6404     0.4714
  440    8.780   5394.47     0.6349     0.0109     0.4295     0.0878     0.8133     1.7462   140.4800     0.6728     0.5007
  441    8.800   5395.43     0.6909     0.0101     0.4330     0.0880     0.8733     1.4894   140.8000     0.7325     0.4728
  442    8.820   5396.38     0.7278     0.0123     0.4078     0.0882     0.9029     1.7034   141.1200     0.7618     0.4317
  443    8.840   5397.33     0.7621     0.0120     0.4051     0.0884     0.9320     1.5930   141.4400     0.7906     0.3999
  444    8.860   5398.33     0.7748     0.0122     0.4120     0.0886     0.9481     1.5774   141.7600     0.8064     0.4019
  445    8.880   5399.32     0.7773     0.0136     0.3966     0.0888     0.9462     1.7449   142.0800     0.8041     0.3897
  446    8.900   5400.30     0.7610     0.0139     0.3798     0.0890     0.9204     1.8078   142.4000     0.7780     0.3734
  447    8.920   5401.23     0.7732     0.0149     0.4487     0.0892     0.9477     1.9518   142.7200     0.8050     0.4049
  448    8.940   5402.18     0.8213     0.0157     0.4449     0.0894     1.0128     1.9479   143.0400     0.8698     0.4215
  449    8.960   5403.16     0.8755     0.0152     0.4425     0.0896     1.0609     1.7687   143.3600     0.9175     0.3835
  450    8.980   5404.13     0.9239     0.0141     0.4593     0.0898     1.1120     1.5456   143.6800     0.9683     0.3697
  451    9.000   5405.11     0.9339     0.0152     0.4851     0.0900     1.1336     1.6323   144.0000     0.9896     0.3894
  452    9.020   5406.05     0.9574     0.0187     0.5035     0.0902     1.1638     1.9739   144.3200     1.0195     0.3935
  453    9.040   5407.03     1.0165     0.0203     0.5205     0.0904     1.2366     2.0493   144.6400     1.0919     0.3971
  454    9.060   5407.98     1.1770     0.0204     0.4948     0.0906     1.3921     1.8266   144.9600     1.2472     0.3384
  455    9.080   5408.98     1.3721     0.0210     0.3948     0.0908     1.5509     1.5869   145.2800     1.4056     0.2388
  456    9.100   5409.98     1.5341     0.0184     0.3006     0.0910     1.6709     1.2306   145.6000     1.5253     0.1540
  457    9.120   5410.93     1.4575     0.0183     0.3304     0.0912     1.5901     1.1953   145.9200     1.4442     0.1560
  458    9.140   5411.88     1.2353     0.0190     0.3787     0.0914     1.3836     1.4608   146.2400     1.2374     0.2123
  459    9.160   5412.81     1.1070     0.0194     0.4596     0.0916     1.2881     1.7143   146.5600     1.1415     0.2976
  460    9.180   5413.81     1.0546     0.0214     0.5138     0.0918     1.2620     2.0122   146.8800     1.1151     0.3606
  461    9.200   5414.78     1.0586     0.0234     0.5358     0.0920     1.2854     2.2382   147.2000     1.1382     0.3936
  462    9.220   5415.77     1.1546     0.0236     0.5157     0.0922     1.3679     2.1224   147.5200     1.2203     0.3406
  463    9.240   5416.72     1.2843     0.0226     0.4902     0.0924     1.4961     1.8462   147.8400     1.3482     0.3060
  464    9.260   5417.63     1.4979     0.0220     0.4487     0.0926     1.6950     1.5436   148.1600     1.5468     0.2437
  465    9.280   5418.59     1.8622     0.0284     0.3035     0.0928     2.0108     1.6305   148.4800     1.8623     0.1403
  466    9.300   5419.63     2.3307     0.0340     0.2091     0.0930     2.4257     1.5348   148.8000     2.2769     0.0586
  467    9.320   5420.57     2.3496     0.0353     0.1641     0.0932     2.4231     1.4887   149.1200     2.2740     0.0360
  468    9.340   5421.50     1.9900     0.0354     0.1854     0.0934     2.0607     1.6722   149.4400     1.9112     0.0394
  469    9.360   5422.51     1.5415     0.0351     0.2386     0.0936     1.6353     2.1705   149.7600     1.4855     0.0878
  470    9.380   5423.45     1.2408     0.0336     0.3003     0.0938     1.3530     2.5695   150.0800     1.2029     0.1450
  471    9.400   5424.44     1.0492     0.0313     0.4038     0.0940     1.2072     2.8676   150.4000     1.0568     0.2677
  472    9.420   5425.37     1.0203     0.0245     0.4571     0.0942     1.2064     2.3942   150.7200     1.0556     0.3303
  473    9.440   5426.38     1.0296     0.0163     0.4748     0.0944     1.2257     1.5782   151.0400     1.0747     0.3468
  474    9.460   5427.38     0.9965     0.0140     0.4992     0.0946     1.2030     1.3825   151.3600     1.0516     0.3777
  475    9.480   5428.32     0.9569     0.0144     0.5240     0.0948     1.1725     1.4963   151.6800     1.0208     0.4099
  476    9.500   5429.25     0.9505     0.0150     0.5293     0.0950     1.1723     1.5612   152.0000     1.0203     0.4246
  477    9.520   5430.23     0.9222     0.0146     0.5836     0.0952     1.1606     1.5752   152.3200     1.0083     0.4687
  478    9.540   5431.26     0.9304     0.0155     0.5905     0.0954     1.1814     1.6833   152.6400     1.0287     0.4882
  479    9.560   5432.22     0.9675     0.0162     0.5738     0.0956     1.2114     1.6911   152.9600     1.0584     0.4584
  480    9.580   5433.18     0.9745     0.0146     0.5755     0.0958     1.2225     1.4978   153.2800     1.0692     0.4628
  481    9.600   5434.17     0.9828     0.0148     0.6002     0.0960     1.2344     1.5045   153.6000     1.0808     0.4653
  482    9.620   5435.12     1.0056     0.0199     0.5792     0.0962     1.2494     1.9985   153.9200     1.0955     0.4421
  483    9.640   5436.07     1.0434     0.0241     0.6054     0.0964     1.2911     2.3331   154.2400     1.1369     0.4341
  484    9.660   5437.08     1.3503     0.0229     0.5938     0.0966     1.6034     1.9049   154.5600     1.4488     0.3505
  485    9.680   5438.05     1.5620     0.0229     0.4806     0.0968     1.7835     1.5285   154.8800     1.6287     0.2647
  486    9.700   5438.99     1.6572     0.0272     0.3474     0.0970     1.8185     1.6386   155.2000     1.6633     0.1722
  487    9.720   5439.95     1.5425     0.0299     0.3773     0.0972     1.6923     1.8713   155.5200     1.5368     0.1689
  488    9.740   5440.93     1.4803     0.0327     0.4261     0.0974     1.6477     2.1041   155.8400     1.4919     0.2019
  489    9.760   5441.91     1.5846     0.0358     0.4495     0.0976     1.7768     2.2879   156.1600     1.6206     0.2225
  490    9.780   5442.90     1.5730     0.0382     0.5123     0.0978     1.7757     2.4019   156.4800     1.6192     0.2381
  491    9.800   5443.82     1.5023     0.0407     0.5651     0.0980     1.7351     2.7986   156.8000     1.5783     0.2891
  492    9.820   5454.57     2.0622     0.0475     0.3909     0.0982     2.2517     3.0459   157.1200     2.0945     0.2163
  493    9.840   5469.50     2.7780     0.0494     0.2168     0.0984     2.8943     3.1633   157.4400     2.7368     0.1127
  494    9.860   5484.43     3.4937     0.0491     0.0931     0.0986     3.5368     2.7971   157.7600     3.3791     0.0091
  495    9.880   5487.43     3.3234     0.0507     0.1366     0.0988     3.3764     1.4836   158.0800     3.2183     0.0085
  496    9.900   5488.41     2.9719     0.0585     0.1630     0.0990     3.0379     1.9097   158.4000     2.8795     0.0203
  497    9.920   5489.40     2.7183     0.0669     0.2303     0.0992     2.8018     2.4105   158.7200     2.6430     0.0378
  498    9.940   5490.39     2.6098     0.0702     0.2436     0.0994     2.7166     2.6436   159.0400     2.5576     0.0606
  499    9.960   5491.36     2.4444     0.0664     0.2293     0.0996     2.5418     2.6501   159.3600     2.3824     0.0556
  500    9.980   5492.29     2.1720     0.0591     0.2437     0.0998     2.2656     2.5740   159.6800     2.1059     0.0591
  501   10.000   5493.27     1.7184     0.0536     0.2739     0.1000     1.8342     2.9241   160.0000     1.6742     0.1051
  502   10.020   5494.21     1.4614     0.0478     0.3992     0.1002     1.6030     3.1375   160.3200     1.4426     0.1644
  503   10.040   5495.20     1.3544     0.0394     0.5030     0.1004     1.5618     2.8532   160.6400     1.4011     0.2807
  504   10.060   5496.18     1.3150     0.0291     0.5659     0.1006     1.5412     2.1937   160.9600     1.3803     0.3173
  505   10.080   5497.13     1.3495     0.0292     0.6077     0.1008     1.6029     2.1876   161.2800     1.4417     0.3486
  506   10.100   5498.10     1.5203     0.0329     0.6195     0.1010     1.7885     2.2422   161.6000     1.6269     0.3304
  507   10.120   5499.08     1.7769     0.0354     0.5461     0.1012     2.0130     2.0819   161.9200     1.8510     0.2492
  508   10.140   5500.04     1.7237     0.0346     0.4551     0.1014     1.9340     1.9455   162.2400     1.7717     0.2253
  509   10.160   5501.01     1.5828     0.0349     0.3965     0.1016     1.7520     2.1754   162.5600     1.5894     0.1896
  510   10.180   5501.99     1.5133     0.0340     0.4297     0.1018     1.6880     2.1971   162.8800     1.5252     0.2061
  511   10.200   5502.94     1.3310     0.0304     0.4164     0.1020     1.5100     2.1956   163.2000     1.3468     0.2409
  512   10.220   5503.88     1.1921     0.0286     0.5124     0.1022     1.3853     2.3085   163.5200     1.2218     0.2937
  513   10.240   5504.86     1.1098     0.0264     0.6148     0.1024     1.3559     2.3503   163.8400     1.1921     0.4058
  514   10.260   5505.85     1.0697     0.0237     0.6590     0.1026     1.3440     2.2103   164.1600     1.1798     0.4665
  515   10.280   5506.76     1.1498     0.0224     0.6641     0.1028     1.4273     1.9911   164.4800     1.2628     0.4419
  516   10.300   5507.76     1.1962     0.0214     0.7072     0.1030     1.4855     1.8002   164.8000     1.3207     0.4436
  517   10.320   5508.71     1.1829     0.0210     0.6742     0.1032     1.4770     1.7633   165.1200     1.3118     0.4550
  518   10.340   5509.71     1.1542     0.0218     0.6966     0.1034     1.4462     1.8699   165.4400     1.2808     0.4622
  519   10.360   5510.68     1.1411     0.0219     0.7377     0.1036     1.4409     1.9253   165.7600     1.2752     0.4786
  520   10.380   5511.66     1.1741     0.0234     0.7241     0.1038     1.4789     2.0134   166.0800     1.3128     0.4737
  521   10.400   5512.59     1.1956     0.0249     0.7303     0.1040     1.5015     2.0968   166.4000     1.3351     0.4676
  522   10.420   5513.55     1.2047     0.0257     0.7228     0.1042     1.5121     2.1359   166.7200     1.3454     0.4666
  523   10.440   5514.54     1.2198     0.0266     0.7132     0.1044     1.5196     2.1830   167.0400     1.3525     0.4505
  524   10.460   5515.51     1.2319     0.0261     0.7119     0.1046     1.5332     2.1222   167.3600     1.3658     0.4487
  525   10.480   5516.46     1.2371     0.0261     0.7090     0.1048     1.5316     2.1226   167.6800     1.3639     0.4374
  526   10.500   5517.42     1.2351     0.0251     0.7418     0.1050     1.5442     2.0173   168.0000     1.3762     0.4585
  527   10.520   5518.37     1.2192     0.0249     0.7390     0.1052     1.5287     2.0374   168.3200     1.3604     0.4644
  528   10.540   5519.34     1.2066     0.0245     0.7625     0.1054     1.5273     2.0265   168.6400     1.3586     0.4844
  529   10.560   5520.33     1.1985     0.0245     0.7843     0.1056     1.5228     2.0259   168.9600     1.3538     0.4924
  530   10.580   5521.29     1.1865     0.0252     0.8073     0.1058     1.5239     2.1499   169.2800     1.3546     0.5150
  531   10.600   5522.29     1.2793     0.0254     0.7773     0.1060     1.6167     2.0298   169.6000     1.4471     0.4821
  532   10.620   5523.25     1.3028     0.0245     0.6924     0.1062     1.5994     1.8615   169.9200     1.4295     0.4198
  533   10.640   5524.19     1.2312     0.0242     0.7241     0.1064     1.5360     1.9481   170.2400     1.3658     0.4535
  534   10.660   5525.16     1.2438     0.0265     0.7171     0.1066     1.5443     2.1390   170.5600     1.3738     0.4433
  535   10.680   5526.14     1.2360     0.0277     0.7400     0.1068     1.5379     2.2381   170.8800     1.3671     0.4477
  536   10.700   5527.11     1.2423     0.0276     0.7635     0.1070     1.5613     2.2318   171.2000     1.3901     0.4694
  537   10.720   5528.10     1.2469     0.0283     0.7406     0.1072     1.5645     2.2819   171.5200     1.3930     0.4658
  538   10.740   5529.07     1.2582     0.0279     0.7250     0.1074     1.5630     2.2097   171.8400     1.3911     0.4444
  539   10.760   5530.00     1.2373     0.0279     0.7306     0.1076     1.5432     2.2369   172.1600     1.3710     0.4528
  540   10.780   5530.98     1.2265     0.0271     0.7502     0.1078     1.5378     2.2049   172.4800     1.3653     0.4639
  541   10.800   5531.95     1.2221     0.0249     0.7742     0.1080     1.5432     2.0375   172.8000     1.3704     0.4791
  542   10.820   5532.87     1.2189     0.0237     0.8449     0.1082     1.5620     1.9453   173.1200     1.3889     0.5101
  543   10.840   5533.85     1.2496     0.0246     0.8631     0.1084     1.6135     1.9911   173.4400     1.4401     0.5265
  544   10.860   5534.84     1.3129     0.0265     0.8443     0.1086     1.6667     2.0495   173.7600     1.4929     0.4915
  545   10.880   5535.81     1.4537     0.0270     0.8706     0.1088     1.8168     1.9342   174.0800     1.6427     0.4606
  546   10.900   5536.79     1.6999     0.0291     0.8501     0.1090     2.0581     1.7814   174.4000     1.8837     0.3951
  547   10.920   5537.75     1.8716     0.0341     0.8497     0.1092     2.2308     1.8805   174.7200     2.0561     0.3631
  548   10.940   5538.74     2.0573     0.0392     0.7986     0.1094     2.3991     1.9488   175.0400     2.2241     0.3169
  549   10.960   5539.70     2.1089     0.0400     0.8021     0.1096     2.4414     1.8962   175.3600     2.2660     0.3010
  550   10.980   5540.67     2.0767     0.0415     0.7547     0.1098     2.4030     1.9934   175.6800     2.2273     0.2995
  551   11.000   5541.62     2.0187     0.0436     0.6584     0.1100     2.3054     2.1517   176.0000     2.1294     0.2689
  552   11.020   5542.56     1.9882     0.0440     0.6160     0.1102     2.2486     2.2029   176.3200     2.0722     0.2460
  553   11.040   5543.56     1.8993     0.0405     0.6478     0.1104     2.1594     2.1044   176.6400     1.9828     0.2567
  554   11.060   5544.56     1.8736     0.0361     0.6317     0.1106     2.1507     1.9317   176.9600     1.9737     0.2782
  555   11.080   5545.57     1.8433     0.0327     0.5736     0.1108     2.0806     1.7519   177.2800     1.9033     0.2387
  556   11.100   5546.53     1.7470     0.0289     0.6073     0.1110     1.9952     1.6204   177.6000     1.8176     0.2641
  557   11.120   5547.47     1.6003     0.0258     0.6377     0.1112     1.8657     1.5578   177.9200     1.6878     0.3088
  558   11.140   5548.42     1.4228     0.0216     0.6564     0.1114     1.6954     1.4765   178.2400     1.5171     0.3546
  559   11.160   5549.39     1.3213     0.0191     0.6812     0.1116     1.6042     1.4136   178.5600     1.4257     0.3943
  560   11.180   5550.35     1.2541     0.0181     0.7208     0.1118     1.5476     1.4254   178.8800     1.3687     0.4288
  561   11.200   5551.35     1.2563     0.0149     0.7531     0.1120     1.5666     1.1895   179.2000     1.3874     0.4519
  562   11.220   5552.27     1.2850     0.0131     0.7161     0.1122     1.5983     1.0335   179.5200     1.4188     0.4468
  563   11.240   5553.24     1.3525     0.0135     0.6640     0.1124     1.6432     1.0090   179.8400     1.4634     0.3962
  564   11.260   5554.21     1.3607     0.0162     0.5838     0.1126     1.6173     1.1909   180.1600     1.4372     0.3468
  565   11.280   5555.16     1.3377     0.0173     0.5439     0.1128     1.5646     1.2778   180.4800     1.3841     0.3089
  566   11.300   5556.16     1.2119     0.0191     0.5859     0.1130     1.4664     1.5276   180.8000     1.2856     0.3835
  567   11.320   5557.11     1.1634     0.0215     0.5315     0.1132     1.3914     1.8432   181.1200     1.2103     0.3550
  568   11.340   5558.06     1.1767     0.0209     0.5415     0.1134     1.4009     1.8039   181.4400     1.2195     0.3448
  569   11.360   5559.08     1.3283     0.0201     0.5997     0.1136     1.5734     1.5903   181.7600     1.3916     0.3378
  570   11.380   5560.02     1.4613     0.0202     0.6086     0.1138     1.7218     1.4064   182.0800     1.5397     0.3289
  571   11.400   5560.99     1.4841     0.0201     0.5898     0.1140     1.7266     1.3513   182.4000     1.5442     0.3002
  572   11.420   5561.99     1.4452     0.0195     0.6111     0.1142     1.7009     1.3355   182.7200     1.5182     0.3258
  573   11.440   5562.89     1.4565     0.0201     0.6372     0.1144     1.7201     1.3900   183.0400     1.5371     0.3339
  574   11.460   5563.89     1.5112     0.0219     0.6282     0.1146     1.7747     1.4579   183.3600     1.5914     0.3223
  575   11.480   5564.85     1.5875     0.0248     0.6147     0.1148     1.8499     1.5939   183.6800     1.6662     0.3062
  576   11.500   5565.82     1.6362     0.0257     0.5937     0.1150     1.8855     1.5616   184.0000     1.7015     0.2813
  577   11.520   5566.79     1.6046     0.0246     0.5661     0.1152     1.8335     1.5196   184.3200     1.6491     0.2606
  578   11.540   5567.74     1.5636     0.0250     0.5617     0.1154     1.7999     1.5882   184.6400     1.6152     0.2769
  579   11.560   5568.73     1.5143     0.0270     0.5550     0.1156     1.7495     1.7739   184.9600     1.5645     0.2841
  580   11.580   5569.71     1.4628     0.0296     0.5893     0.1158     1.7025     2.0103   185.2800     1.5172     0.2998
  581   11.600   5570.67     1.5202     0.0244     0.5922     0.1160     1.7727     1.6286   185.6000     1.5871     0.3058
  582   11.620   5571.62     1.5577     0.0261     0.5399     0.1162     1.7953     1.6728   185.9200     1.6094     0.2794
  583   11.640   5572.64     1.5274     0.0297     0.5408     0.1164     1.7546     1.9480   186.2400     1.5683     0.2707
  584   11.660   5573.59     1.6768     0.0303     0.5140     0.1166     1.8925     1.8739   186.5600     1.7059     0.2326
  585   11.680   5574.54     1.7905     0.0285     0.4911     0.1168     2.0133     1.6167   186.8800     1.8264     0.2265
  586   11.700   5575.53     1.8155     0.0291     0.3737     0.1170     1.9750     1.6413   187.2000     1.7878     0.1470
  587   11.720   5576.51     1.6513     0.0304     0.3923     0.1172     1.8157     1.8471   187.5200     1.6282     0.1685
  588   11.740   5577.48     1.5218     0.0318     0.4006     0.1174     1.6862     2.0529   187.8400     1.4984     0.1829
  589   11.760   5578.46     1.4434     0.0358     0.5062     0.1176     1.6453     2.4184   188.1600     1.4571     0.2495
  590   11.780   5579.38     1.4440     0.0385     0.5523     0.1178     1.6632     2.6690   188.4800     1.4748     0.2740
  591   11.800   5580.36     1.4764     0.0347     0.6203     0.1180     1.7352     2.3720   188.8000     1.5464     0.3221
  592   11.820   5593.92     1.5911     0.0354     0.4829     0.1182     1.8139     2.3630   189.1200     1.6248     0.2585
  593   11.840   5611.61     1.7132     0.0369     0.3454     0.1184     1.8782     2.4594   189.4400     1.6888     0.1673
  594   11.860   5625.85     1.7560     0.0348     0.3709     0.1186     1.8898     1.9238   189.7600     1.7000     0.1184
  595   11.880   5626.85     1.5162     0.0333     0.4650     0.1188     1.6937     2.1033   190.0800     1.5036     0.2028
  596   11.900   5627.80     1.3757     0.0297     0.5269     0.1190     1.5938     2.1378   190.4000     1.4034     0.2853
  597   11.920   5628.78     1.3362     0.0239     0.5618     0.1192     1.5670     1.7657   190.7200     1.3763     0.3128
  598   11.940   5629.72     1.2607     0.0223     0.5876     0.1194     1.5001     1.7461   191.0400     1.3090     0.3442
  599   11.960   5630.71     1.2825     0.0216     0.6475     0.1196     1.5494     1.6985   191.3600     1.3580     0.3797
  600   11.980   5631.68     1.3014     0.0216     0.6707     0.1198     1.5855     1.6622   191.6800     1.3938     0.3993
  601   12.000   5632.65     1.3478     0.0210     0.6758     0.1200     1.6326     1.5789   192.0000     1.4406     0.3873
  602   12.020   5633.57     1.3300     0.0216     0.6501     0.1202     1.6070     1.6052   192.3200     1.4147     0.3812
  603   12.040   5634.56     1.2392     0.0215     0.6861     0.1204     1.5151     1.6999   192.6400     1.3224     0.4056
  604   12.060   5635.54     1.1913     0.0224     0.7355     0.1206     1.5006     1.8687   192.9600     1.3077     0.4709
  605   12.080   5636.52     1.1850     0.0227     0.7507     0.1208     1.4978     1.9090   193.2800     1.3045     0.4784
  606   12.100   5637.51     1.1795     0.0216     0.7671     0.1210     1.4983     1.8296   193.6000     1.3047     0.4890
  607   12.120   5638.46     1.1634     0.0221     0.7895     0.1212     1.4920     1.8921   193.9200     1.2981     0.5093
  608   12.140   5639.44     1.1425     0.0217     0.8043     0.1214     1.4787     1.8942   194.2400     1.2845     0.5287
  609   12.160   5640.41     1.1277     0.0213     0.8141     0.1216     1.4679     1.8855   194.5600     1.2733     0.5405
  610   12.180   5641.36     1.1458     0.0208     0.8197     0.1218     1.4903     1.8293   194.8800     1.2954     0.5391
  611   12.200   5642.31     1.1561     0.0211     0.8266     0.1220     1.5022     1.8231   195.2000     1.3070     0.5371
  612   12.220   5643.31     1.1546     0.0208     0.8226     0.1222     1.4996     1.7949   195.5200     1.3041     0.5362
  613   12.240   5644.26     1.1423     0.0202     0.8338     0.1224     1.4894     1.7638   195.8400     1.2936     0.5443
  614   12.260   5645.25     1.1350     0.0199     0.8367     0.1226     1.4849     1.7526   196.1600     1.2887     0.5512
  615   12.280   5646.20     1.1335     0.0194     0.8464     0.1228     1.4872     1.7139   196.4800     1.2907     0.5574
  616   12.300   5647.19     1.1299     0.0192     0.8386     0.1230     1.4827     1.6940   196.8000     1.2859     0.5576
  617   12.320   5648.15     1.1290     0.0185     0.8300     0.1232     1.4788     1.6436   197.1200     1.2817     0.5536
  618   12.340   5649.10     1.1333     0.0184     0.8275     0.1234     1.4740     1.6252   197.4400     1.2766     0.5388
  619   12.360   5650.06     1.1202     0.0182     0.8324     0.1236     1.4675     1.6231   197.7600     1.2698     0.5538
  620   12.380   5651.01     1.1170     0.0179     0.8268     0.1238     1.4676     1.6040   198.0800     1.2695     0.5600
  621   12.400   5652.00     1.1374     0.0183     0.8250     0.1240     1.4825     1.6166   198.4000     1.2841     0.5433
  622   12.420   5653.00     1.1398     0.0184     0.8327     0.1242     1.4880     1.6150   198.7200     1.2893     0.5466
  623   12.440   5653.96     1.1338     0.0188     0.8283     0.1244     1.4821     1.6546   199.0400     1.2831     0.5495
  624   12.460   5654.92     1.1334     0.0176     0.8191     0.1246     1.4802     1.5547   199.3600     1.2808     0.5474
  625   12.480   5655.86     1.1368     0.0170     0.8144     0.1248     1.4786     1.4897   199.6800     1.2789     0.5388
  626   12.500   5656.85     1.1406     0.0177     0.8206     0.1250     1.4829     1.5604   200.0000     1.2829     0.5379
  627   12.520   5657.82     1.1623     0.0174     0.8155     0.1252     1.5063     1.5048   200.3200     1.3060     0.5312
  628   12.540   5658.75     1.1902     0.0180     0.8141     0.1254     1.5286     1.5189   200.6400     1.3279     0.5122
  629   12.560   5659.74     1.2098     0.0186     0.7623     0.1256     1.5472     1.5479   200.9600     1.3462     0.5036
  630   12.580   5660.73     1.2398     0.0190     0.7357     0.1258     1.5507     1.5217   201.2800     1.3494     0.4554
  631   12.600   5661.72     1.2048     0.0192     0.7049     0.1260     1.5050     1.5834   201.6000     1.3034     0.4517
  632   12.620   5662.70     1.1131     0.0194     0.6710     0.1262     1.4013     1.6959   201.9200     1.1994     0.4669
  633   12.640   5663.66     1.0840     0.0195     0.6987     0.1264     1.3651     1.7909   202.2400     1.1628     0.4668
  634   12.660   5664.63     1.0341     0.0203     0.7408     0.1266     1.3412     1.9445   202.5600     1.1387     0.5311
  635   12.680   5665.56     1.0362     0.0190     0.7695     0.1268     1.3550     1.8451   202.8800     1.1522     0.5489
  636   12.700   5666.52     1.0407     0.0174     0.7844     0.1270     1.3684     1.6763   203.2000     1.1652     0.5607
  637   12.720   5667.51     1.0323     0.0161     0.7896     0.1272     1.3635     1.5597   203.5200     1.1600     0.5701
  638   12.740   5668.53     1.0276     0.0157     0.7835     0.1274     1.3548     1.5325   203.8400     1.1510     0.5662
  639   12.760   5669.47     1.0073     0.0159     0.8015     0.1276     1.3412     1.5662   204.1600     1.1370     0.5870
  640   12.780   5670.43     1.0032     0.0161     0.8088     0.1278     1.3420     1.6091   204.4800     1.1375     0.5968
  641   12.800   5671.42     1.0108     0.0164     0.8093     0.1280     1.3521     1.6319   204.8000     1.1473     0.5966
  642   12.820   5672.37     1.0216     0.0162     0.7889     0.1282     1.3569     1.5956   205.1200     1.1517     0.5818
  643   12.840   5673.37     1.0291     0.0164     0.7806     0.1284     1.3579     1.5991   205.4400     1.1524     0.5678
  644   12.860   5674.35     1.0383     0.0162     0.7958     0.1286     1.3702     1.5644   205.7600     1.1644     0.5682
  645   12.880   5675.31     1.0321     0.0165     0.7946     0.1288     1.3676     1.5955   206.0800     1.1615     0.5768
  646   12.900   5676.23     1.0239     0.0167     0.7976     0.1290     1.3607     1.6286   206.4000     1.1543     0.5830
  647   12.920   5677.19     1.0323     0.0167     0.7914     0.1292     1.3676     1.6227   206.7200     1.1609     0.5764
  648   12.940   5678.19     1.0310     0.0169     0.7857     0.1294     1.3612     1.6327   207.0400     1.1542     0.5691
  649   12.960   5679.17     1.0303     0.0168     0.7786     0.1296     1.3537     1.6324   207.3600     1.1464     0.5588
  650   12.980   5680.13     1.0197     0.0166     0.7885     0.1298     1.3497     1.6207   207.6800     1.1420     0.5744
  651   13.000   5681.08     1.0276     0.0168     0.7958     0.1300     1.3597     1.6420   208.0000     1.1517     0.5737
  652   13.020   5682.05     1.0180     0.0169     0.7959     0.1302     1.3493     1.6610   208.3200     1.1409     0.5772
  653   13.040   5683.00     1.0290     0.0169     0.7973     0.1304     1.3663     1.6502   208.6400     1.1577     0.5811
  654   13.060   5684.05     1.0456     0.0170     0.7721     0.1306     1.3712     1.6352   208.9600     1.1622     0.5546
  655   13.080   5685.03     1.0557     0.0168     0.7685     0.1308     1.3801     1.5963   209.2800     1.1708     0.5479
  656   13.100   5685.96     1.0567     0.0167     0.7679     0.1310     1.3771     1.5796   209.6000     1.1675     0.5413
  657   13.120   5686.93     1.0564     0.0167     0.7843     0.1312     1.3835     1.5844   209.9200     1.1736     0.5518
  658   13.140   5687.89     1.0521     0.0173     0.8093     0.1314     1.3893     1.6347   210.2400     1.1790     0.5695
  659   13.160   5688.88     1.0474     0.0171     0.8129     0.1316     1.3887     1.6241   210.5600     1.1782     0.5782
  660   13.180   5689.88     1.0425     0.0173     0.8060     0.1318     1.3805     1.6571   210.8800     1.1697     0.5755
  661   13.200   5690.82     1.0413     0.0175     0.8150     0.1320     1.3816     1.6753   211.2000     1.1704     0.5794
  662   13.220   5691.80     1.0461     0.0174     0.8244     0.1322     1.3898     1.6632   211.5200     1.1782     0.5823
  663   13.240   5692.73     1.0395     0.0166     0.8245     0.1324     1.3855     1.5956   211.8400     1.1737     0.5890
  664   13.260   5693.71     1.0286     0.0156     0.8194     0.1326     1.3735     1.5129   212.1600     1.1614     0.5929
  665   13.280   5694.66     1.0242     0.0144     0.8397     0.1328     1.3717     1.4091   212.4800     1.1592     0.5992
  666   13.300   5695.66     1.0228     0.0144     0.8419     0.1330     1.3772     1.4106   212.8000     1.1644     0.6104
  667   13.320   5696.59     1.0220     0.0150     0.8446     0.1332     1.3733     1.4682   213.1200     1.1601     0.6062
  668   13.340   5697.56     1.0365     0.0157     0.8434     0.1334     1.3916     1.5255   213.4400     1.1781     0.6044
  669   13.360   5698.55     1.1378     0.0153     0.8366     0.1336     1.4929     1.3757   213.7600     1.2791     0.5566
  670   13.380   5699.47     1.2194     0.0156     0.7762     0.1338     1.5534     1.3073   214.0800     1.3393     0.4939
  671   13.400   5700.46     1.2174     0.0166     0.7640     0.1340     1.5369     1.3547   214.4000     1.3225     0.4740
  672   13.420   5701.45     1.2085     0.0195     0.7746     0.1342     1.5330     1.6100   214.7200     1.3183     0.4842
  673   13.440   5702.44     1.2500     0.0236     0.7856     0.1344     1.5786     1.9006   215.0400     1.3635     0.4752
  674   13.460   5703.43     1.3231     0.0276     0.7423     0.1346     1.6464     2.1543   215.3600     1.4311     0.4445
  675   13.480   5704.36     1.4071     0.0316     0.6527     0.1348     1.6938     2.2843   215.6800     1.4781     0.3708
  676   13.500   5705.28     1.5022     0.0348     0.5437     0.1350     1.7424     2.3531   216.0000     1.5264     0.2864
  677   13.520   5706.33     1.4285     0.0350     0.5977     0.1352     1.6785     2.3994   216.3200     1.4621     0.3147
  678   13.540   5707.30     1.4051     0.0366     0.6527     0.1354     1.6767     2.6111   216.6400     1.4601     0.3501
  679   13.560   5708.27     1.4233     0.0379     0.6926     0.1356     1.7069     2.6713   216.9600     1.4900     0.3622
  680   13.580   5709.25     1.4142     0.0383     0.7484     0.1358     1.7201     2.6963   217.2800     1.5028     0.3942
  681   13.600   5710.19     1.4325     0.0389     0.7819     0.1360     1.7530     2.7330   217.6000     1.5354     0.4084
  682   13.620   5711.17     1.4587     0.0377     0.7359     0.1362     1.7774     2.5912   217.9200     1.5594     0.3992
  683   13.640   5712.17     1.4753     0.0373     0.7305     0.1364     1.7822     2.5420   218.2400     1.5639     0.3800
  684   13.660   5713.15     1.4998     0.0400     0.7439     0.1366     1.8096     2.6810   218.5600     1.5911     0.3778
  685   13.680   5714.08     1.5193     0.0419     0.7557     0.1368     1.8331     2.7712   218.8800     1.6142     0.3782
  686   13.700   5715.08     1.5120     0.0413     0.7540     0.1370     1.8308     2.7229   219.2000     1.6116     0.3859
  687   13.720   5716.01     1.5391     0.0394     0.7618     0.1372     1.8618     2.5779   219.5200     1.6422     0.3843
  688   13.740   5717.01     1.5403     0.0399     0.7334     0.1374     1.8509     2.5986   219.8400     1.6310     0.3691
  689   13.760   5718.01     1.5369     0.0391     0.7307     0.1376     1.8401     2.5349   220.1600     1.6200     0.3607
  690   13.780   5718.94     1.5111     0.0371     0.7692     0.1378     1.8286     2.4376   220.4800     1.6081     0.3844
  691   13.800   5719.93     1.5288     0.0383     0.7946     0.1380     1.8591     2.5180   220.8000     1.6383     0.3958
  692   13.820   5721.03     1.5260     0.0410     0.7769     0.1382     1.8542     2.6969   221.1200     1.6331     0.3939
  693   13.840   5755.59     1.5451     0.0406     0.7825     0.1384     1.8730     2.6562   221.4400     1.6515     0.3888
  694   13.860   5783.87     1.5598     0.0421     0.7856     0.1386     1.8919     2.7004   221.7600     1.6701     0.3905
  695   13.880   5784.92     1.5818     0.0426     0.7156     0.1388     1.8911     2.6982   222.0800     1.6690     0.3580
  696   13.900   5785.89     1.5672     0.0417     0.7411     0.1390     1.8678     2.6388   222.4000     1.6454     0.3506
  697   13.920   5786.86     1.5614     0.0425     0.7684     0.1392     1.8904     2.7552   222.7200     1.6676     0.3862
  698   13.940   5787.78     1.6131     0.0409     0.6368     0.1394     1.9113     2.5346   223.0400     1.6883     0.3376
  699   13.960   5788.77     1.6124     0.0374     0.6789     0.1396     1.8838     2.3197   223.3600     1.6605     0.3051
  700   13.980   5789.76     1.6077     0.0389     0.7219     0.1398     1.8926     2.4131   223.6800     1.6690     0.3227
  701   14.000   5790.72     1.6116     0.0389     0.7223     0.1400     1.9165     2.4187   224.0000     1.6925     0.3462
  702   14.020   5791.69     1.6029     0.0417     0.7791     0.1402     1.9243     2.5987   224.3200     1.7000     0.3677
  703   14.040   5792.67     1.6017     0.0409     0.7874     0.1404     1.9290     2.5535   224.6400     1.7044     0.3749
  704   14.060   5793.64     1.6062     0.0383     0.7972     0.1406     1.9475     2.3860   224.9600     1.7226     0.3902
  705   14.080   5794.62     1.6091     0.0378     0.8230     0.1408     1.9511     2.3438   225.2800     1.7258     0.3903
  706   14.100   5795.58     1.6549     0.0385     0.8009     0.1410     1.9847     2.3361   225.6000     1.7591     0.3663
  707   14.120   5796.54     1.6291     0.0374     0.8454     0.1412     1.9798     2.2991   225.9200     1.7539     0.3956
  708   14.140   5797.55     1.6050     0.0364     0.8200     0.1414     1.9613     2.2651   226.2400     1.7350     0.4073
  709   14.160   5798.52     1.6168     0.0362     0.7410     0.1416     1.9456     2.2016   226.5600     1.7191     0.3731
  710   14.180   5799.50     1.5648     0.0341     0.7543     0.1418     1.8688     2.1421   226.8800     1.6419     0.3546
  711   14.200   5800.52     1.5045     0.0327     0.8358     0.1420     1.8433     2.1667   227.2000     1.6161     0.4113
  712   14.220   5801.50     1.5278     0.0296     0.9019     0.1422     1.9013     1.9492   227.5200     1.6737     0.4463
  713   14.240   5802.45     1.5471     0.0304     0.9165     0.1424     1.9331     1.9685   227.8400     1.7053     0.4555
  714   14.260   5803.40     1.5650     0.0321     0.8841     0.1426     1.9398     2.0526   228.1600     1.7116     0.4380
  715   14.280   5804.39     1.6063     0.0337     0.8347     0.1428     1.9609     2.1202   228.4800     1.7324     0.4052
  716   14.300   5805.39     1.6756     0.0297     0.8963     0.1430     2.0482     1.8054   228.8000     1.8194     0.4092
  717   14.320   5806.39     1.8985     0.0298     0.8633     0.1432     2.2662     1.5885   229.1200     2.0371     0.3596
  718   14.340   5807.41     1.9334     0.0291     0.8362     0.1434     2.2882     1.4994   229.4400     2.0588     0.3407
  719   14.360   5808.38     1.9288     0.0305     0.7563     0.1436     2.2602     1.5812   229.7600     2.0304     0.3178
  720   14.380   5809.36     1.8739     0.0331     0.6764     0.1438     2.1693     1.7343   230.0800     1.9392     0.2885
  721   14.400   5810.34     1.7441     0.0356     0.7334     0.1440     2.0309     2.0061   230.4000     1.8005     0.2994
  722   14.420   5811.34     1.6938     0.0338     0.8134     0.1442     2.0296     2.0004   230.7200     1.7989     0.3643
  723   14.440   5812.33     1.7728     0.0310     0.8259     0.1444     2.1205     1.7920   231.0400     1.8895     0.3620
  724   14.460   5813.30     1.9853     0.0233     0.7815     0.1446     2.3194     1.1928   231.3600     2.0881     0.3120
  725   14.480   5814.28     1.9913     0.0254     0.7590     0.1448     2.3040     1.2566   231.6800     2.0723     0.2896
  726   14.500   5815.23     1.8786     0.0331     0.8571     0.1450     2.2237     1.7565   232.0000     1.9917     0.3397
  727   14.520   5816.20     1.9688     0.0352     0.9427     0.1452     2.3561     1.8169   232.3200     2.1238     0.3660
  728   14.540   5817.22     2.3279     0.0384     0.8952     0.1454     2.7207     1.7268   232.6400     2.4880     0.3182
  729   14.560   5818.24     2.8702     0.0406     0.7942     0.1456     3.2196     1.5087   232.9600     2.9867     0.2305
  730   14.580   5819.20     3.3751     0.0386     0.6522     0.1458     3.6700     1.1803   233.2800     3.4367     0.1619
  731   14.600   5820.19     3.3817     0.0408     0.4424     0.1460     3.6153     1.1906   233.6000     3.3817     0.1210
  732   14.620   5821.09     3.0284     0.0384     0.3360     0.1462     3.1694     1.2205   233.9200     2.9355     0.0646
  733   14.640   5822.13     2.5123     0.0352     0.4880     0.1464     2.6914     1.3536   234.2400     2.4572     0.1141
  734   14.660   5823.09     2.2556     0.0399     0.5665     0.1466     2.4838     1.7547   234.5600     2.2492     0.1764
  735   14.680   5824.07     2.0544     0.0417     0.6134     0.1468     2.2963     1.9907   234.8800     2.0614     0.2082
  736   14.700   5825.08     1.9486     0.0382     0.6511     0.1470     2.2189     1.9430   235.2000     1.9837     0.2504
  737   14.720   5826.02     1.8555     0.0384     0.6732     0.1472     2.1357     2.0574   235.5200     1.9002     0.2736
  738   14.740   5827.05     1.8092     0.0398     0.6404     0.1474     2.0904     2.1913   235.8400     1.8545     0.2815
  739   14.760   5827.98     1.7386     0.0408     0.6982     0.1476     2.0183     2.3174   236.1600     1.7821     0.2910
  740   14.780   5828.98     1.6633     0.0402     0.7364     0.1478     1.9694     2.3996   236.4800     1.7329     0.3353
  741   14.800   5829.96     1.6354     0.0385     0.7554     0.1480     1.9496     2.3518   236.8000     1.7128     0.3503
  742   14.820   5830.93     1.6321     0.0382     0.7784     0.1482     1.9555     2.3358   237.1200     1.7184     0.3619
  743   14.840   5831.94     1.6347     0.0383     0.8006     0.1484     1.9683     2.3456   237.4400     1.7309     0.3732
  744   14.860   5832.90     1.6651     0.0349     0.7851     0.1486     2.0008     2.1036   237.7600     1.7630     0.3690
  745   14.880   5833.87     1.7045     0.0348     0.7189     0.1488     2.0152     2.0534   238.0800     1.7772     0.3325
  746   14.900   5834.89     1.7123     0.0357     0.6672     0.1490     1.9965     2.0814   238.4000     1.7581     0.3001
  747   14.920   5835.86     1.6694     0.0367     0.7298     0.1492     1.9693     2.1782   238.7200     1.7306     0.3264
  748   14.940   5836.83     1.6298     0.0372     0.7536     0.1494     1.9382     2.2816   239.0400     1.6992     0.3442
  749   14.960   5837.82     1.6503     0.0362     0.6977     0.1496     1.9585     2.2036   239.3600     1.7192     0.3397
  750   14.980   5838.79     1.6510     0.0366     0.7265     0.1498     1.9491     2.2110   239.6800     1.7094     0.3276
  751   15.000   5839.79     1.6418     0.0370     0.7516     0.1500     1.9516     2.2488   240.0000     1.7116     0.3434
  752   15.020   5840.74     1.6133     0.0371     0.7441     0.1502     1.9228     2.2929   240.3200     1.6825     0.3486
  753   15.040   5841.77     1.5776     0.0347     0.7563     0.1504     1.8981     2.1860   240.6400     1.6575     0.3696
  754   15.060   5842.72     1.5636     0.0374     0.7695     0.1506     1.8844     2.3874   240.9600     1.6434     0.3731
  755   15.080   5843.73     1.5833     0.0382     0.8021     0.1508     1.9182     2.4333   241.2800     1.6769     0.3856
  756   15.100   5844.69     1.6287     0.0370     0.8048     0.1510     1.9663     2.2770   241.6000     1.7247     0.3785
  757   15.120   5845.64     1.6405     0.0371     0.7744     0.1512     1.9775     2.2694   241.9200     1.7356     0.3753
  758   15.140   5846.63     1.6613     0.0370     0.6876     0.1514     1.9723     2.2217   242.2400     1.7300     0.3404
  759   15.160   5847.59     1.5991     0.0348     0.7926     0.1516     1.9225     2.1446   242.5600     1.6800     0.3682
  760   15.180   5848.61     1.5682     0.0378     0.8116     0.1518     1.9107     2.4005   242.8800     1.6678     0.3978
  761   15.200   5849.60     1.5929     0.0392     0.8307     0.1520     1.9384     2.4780   243.2000     1.6952     0.3955
  762   15.220   5850.55     1.6177     0.0398     0.8390     0.1522     1.9684     2.4723   243.5200     1.7249     0.3958
  763   15.240   5851.56     1.6679     0.0387     0.8072     0.1524     2.0079     2.3324   243.8400     1.7640     0.3725
  764   15.260   5852.53     1.7035     0.0377     0.7899     0.1526     2.0331     2.2288   244.1600     1.7890     0.3535
  765   15.280   5853.49     1.7314     0.0379     0.8357     0.1528     2.0802     2.1865   244.4800     1.8357     0.3692
  766   15.300   5854.45     1.7574     0.0402     0.8717     0.1530     2.1175     2.2894   244.8000     1.8727     0.3760
  767   15.320   5855.43     1.7815     0.0416     0.8472     0.1532     2.1490     2.3359   245.1200     1.9039     0.3792
  768   15.340   5856.47     1.7997     0.0411     0.8081     0.1534     2.1372     2.2793   245.4400     1.8917     0.3437
  769   15.360   5857.45     1.7792     0.0396     0.8151     0.1536     2.1235     2.2202   245.7600     1.8777     0.3547
  770   15.380   5858.46     1.7321     0.0391     0.7974     0.1538     2.0720     2.2451   246.0800     1.8259     0.3591
  771   15.400   5859.46     1.6929     0.0380     0.8405     0.1540     2.0314     2.2230   246.4000     1.7850     0.3652
  772   15.420   5860.44     1.6143     0.0370     0.9397     0.1542     1.9984     2.2810   246.7200     1.7517     0.4341
  773   15.440   5861.41     1.6008     0.0373     0.9750     0.1544     2.0046     2.3336   247.0400     1.7575     0.4592
  774   15.460   5862.38     1.6188     0.0372     1.0008     0.1546     2.0374     2.3064   247.3600     1.7901     0.4705
  775   15.480   5863.39     1.6780     0.0354     0.9830     0.1548     2.0933     2.1173   247.6800     1.8456     0.4520
  776   15.500   5864.36     1.7428     0.0351     0.9712     0.1550     2.1536     2.0299   248.0000     1.9056     0.4320
  777   15.520   5865.36     1.8049     0.0357     0.9672     0.1552     2.2088     1.9922   248.3200     1.9605     0.4114
  778   15.540   5866.38     1.8446     0.0364     0.9780     0.1554     2.2539     1.9786   248.6400     2.0053     0.4085
  779   15.560   5867.38     1.8697     0.0376     1.0024     0.1556     2.2893     2.0201   248.9600     2.0403     0.4133
  780   15.580   5868.37     1.8872     0.0382     0.9257     0.1558     2.2871     2.0308   249.2800     2.0378     0.3907
  781   15.600   5869.34     1.9061     0.0394     0.9572     0.1560     2.3013     2.0690   249.6000     2.0517     0.3826
  782   15.620   5870.31     1.9051     0.0389     0.9811     0.1562     2.3170     2.0337   249.9200     2.0671     0.3989
  783   15.640   5871.30     1.9012     0.0420     0.9724     0.1564     2.3169     2.2205   250.2400     2.0667     0.4032
  784   15.660   5872.29     1.9615     0.0441     0.9805     0.1566     2.3717     2.2556   250.5600     2.1211     0.3866
  785   15.680   5873.29     1.9722     0.0461     0.9953     0.1568     2.3839     2.3378   250.8800     2.1330     0.3860
  786   15.700   5874.27     1.9537     0.0461     0.9968     0.1570     2.3721     2.3536   251.2000     2.1209     0.3957
  787   15.720   5875.25     1.9497     0.0463     0.9762     0.1572     2.3680     2.3682   251.5200     2.1165     0.3963
  788   15.740   5876.22     1.9494     0.0466     0.9879     0.1574     2.3610     2.3834   251.8400     2.1092     0.3900
  789   15.760   5877.22     1.9680     0.0462     1.0102     0.1576     2.3941     2.3598   252.1600     2.1419     0.4001
  790   15.780   5878.22     1.9878     0.0452     1.0521     0.1578     2.4284     2.2785   252.4800     2.1759     0.4096
  791   15.800   5879.22     2.0134     0.0405     1.0602     0.1580     2.4595     2.0150   252.8000     2.2067     0.4097
  792   15.820   5889.92     2.0774     0.0477     1.0618     0.1582     2.5230     2.3716   253.1200     2.2699     0.3987
  793   15.840   5907.58     2.1893     0.0585     1.0639     0.1584     2.6358     2.9048   253.4400     2.3824     0.3810
  794   15.860   5924.66     2.3034     0.0671     1.0466     0.1586     2.7500     3.0060   253.7600     2.4963     0.3625
  795   15.880   5925.58     2.4624     0.0686     0.8509     0.1588     2.8955     2.8050   254.0800     2.6414     0.3302
  796   15.900   5926.61     2.5068     0.0666     0.3746     0.1590     2.7135     2.6471   254.4000     2.4591     0.1353
  797   15.920   5927.68     2.3480     0.0645     0.1902     0.1592     2.4643     2.7050   254.7200     2.2096     0.0524
  798   15.940   5928.69     2.1323     0.0655     0.4111     0.1594     2.2681     3.0449   255.0400     2.0131     0.0815
  799   15.960   5929.63     1.9786     0.0626     0.6230     0.1596     2.2179     3.1364   255.3600     1.9626     0.2090
  800   15.980   5930.62     1.9426     0.0554     0.7214     0.1598     2.2377     2.8519   255.6800     1.9820     0.2739
  801   16.000   5931.59     1.9784     0.0500     0.8125     0.1600     2.3111     2.5401   256.0000     2.0551     0.3076
  802   16.020   5932.64     1.9740     0.0491     0.8663     0.1602     2.3329     2.4904   256.3200     2.0766     0.3344
  803   16.040   5933.62     1.9663     0.0501     0.8755     0.1604     2.3326     2.5512   256.6400     2.0759     0.3428
  804   16.060   5934.64     1.9750     0.0500     0.8900     0.1606     2.3473     2.5307   256.9600     2.0904     0.3472
  805   16.080   5935.65     1.9632     0.0518     0.9216     0.1608     2.3414     2.6376   257.2800     2.0841     0.3549
  806   16.100   5936.62     1.9587     0.0559     0.9314     0.1610     2.3530     2.8557   257.6000     2.0954     0.3712
  807   16.120   5937.55     2.0286     0.0554     0.9608     0.1612     2.4249     2.7308   257.9200     2.1670     0.3610
  808   16.140   5938.58     1.9843     0.0534     0.9803     0.1614     2.3864     2.6902   258.2400     2.1281     0.3740
  809   16.160   5939.63     2.0779     0.0536     0.9371     0.1616     2.4679     2.6040   258.5600     2.2093     0.3472
  810   16.180   5940.63     2.0792     0.0535     0.9292     0.1618     2.4613     2.5787   258.8800     2.2025     0.3396
  811   16.200   5941.65     2.0122     0.0527     1.0053     0.1620     2.4175     2.6075   259.2000     2.1583     0.3721
  812   16.220   5942.66     1.9656     0.0539     1.0527     0.1622     2.4093     2.7416   259.5200     2.1497     0.4160
  813   16.240   5943.59     1.9665     0.0495     1.0117     0.1624     2.3979     2.5291   259.8400     2.1381     0.4045
  814   16.260   5944.57     1.9729     0.0474     0.9844     0.1626     2.3846     2.3959   260.1600     2.1244     0.3848
  815   16.280   5945.58     1.9548     0.0491     1.0147     0.1628     2.3719     2.5022   260.4800     2.1114     0.3932
  816   16.300   5946.58     1.9056     0.0498     1.0543     0.1630     2.3449     2.6137   260.8000     2.0841     0.4236
  817   16.320   5947.64     1.8719     0.0482     1.0805     0.1632     2.3203     2.5657   261.1200     2.0592     0.4393
  818   16.340   5948.66     1.8609     0.0467     1.0507     0.1634     2.3104     2.5165   261.4400     2.0489     0.4426
  819   16.360   5949.64     1.9059     0.0479     1.0164     0.1636     2.3404     2.5142   261.7600     2.0787     0.4190
  820   16.380   5950.64     1.9023     0.0487     1.0169     0.1638     2.3254     2.5565   262.0800     2.0634     0.4088
  821   16.400   5951.64     1.9081     0.0494     1.0052     0.1640     2.3273     2.6117   262.4000     2.0649     0.4039
  822   16.420   5952.64     1.9179     0.0491     0.9676     0.1642     2.3367     2.5640   262.7200     2.0740     0.4017
  823   16.440   5953.66     1.9800     0.0488     0.9447     0.1644     2.3755     2.4675   263.0400     2.1124     0.3679
  824   16.460   5954.70     1.9623     0.0478     0.9827     0.1646     2.3676     2.4267   263.3600     2.1042     0.3803
  825   16.480   5955.67     1.8970     0.0452     1.0341     0.1648     2.3181     2.3658   263.6800     2.0544     0.4078
  826   16.500   5956.67     1.8518     0.0424     1.0662     0.1650     2.2943     2.2876   264.0000     2.0303     0.4377
  827   16.520   5957.66     1.8218     0.0417     1.0585     0.1652     2.2737     2.2898   264.3200     2.0094     0.4533
  828   16.540   5958.67     1.8941     0.0463     1.0854     0.1654     2.3440     2.4591   264.6400     2.0794     0.4357
  829   16.560   5959.65     1.9621     0.0505     1.1363     0.1656     2.4253     2.5767   264.9600     2.1604     0.4339
  830   16.580   5960.68     1.9996     0.0541     1.0915     0.1658     2.4737     2.7190   265.2800     2.2085     0.4361
  831   16.600   5961.74     2.1550     0.0579     0.9530     0.1660     2.5791     2.6918   265.6000     2.3135     0.3647
  832   16.620   5962.70     2.1820     0.0601     0.8397     0.1662     2.5471     2.7572   265.9200     2.2811     0.3081
  833   16.640   5963.70     2.1241     0.0611     0.8772     0.1664     2.4774     2.8722   266.2400     2.2112     0.3052
  834   16.660   5964.68     2.0644     0.0621     0.8412     0.1666     2.4172     2.9995   266.5600     2.1507     0.3131
  835   16.680   5965.70     1.9662     0.0568     0.8299     0.1668     2.3140     2.8773   266.8800     2.0471     0.3230
  836   16.700   5966.76     1.8824     0.0511     0.8968     0.1670     2.2465     2.7002   267.2000     1.9793     0.3537
  837   16.720   5967.77     1.8203     0.0463     0.9352     0.1672     2.2064     2.5399   267.5200     1.9389     0.3879
  838   16.740   5968.77     1.7712     0.0429     0.9957     0.1674     2.1791     2.4201   267.8400     1.9113     0.4206
  839   16.760   5969.75     1.7973     0.0415     1.0408     0.1676     2.2272     2.3045   268.1600     1.9590     0.4369
  840   16.780   5970.69     1.7543     0.0393     1.0481     0.1678     2.1890     2.2326   268.4800     1.9205     0.4516
  841   16.800   5971.76     1.6585     0.0369     1.0186     0.1680     2.0858     2.2226   268.8000     1.8170     0.4675
  842   16.820   5972.79     1.6761     0.0352     0.9896     0.1682     2.0928     2.0999   269.1200     1.8237     0.4517
  843   16.840   5973.77     1.6277     0.0333     1.0051     0.1684     2.0457     2.0412   269.4400     1.7763     0.4655
  844   16.860   5974.76     1.5689     0.0323     1.0413     0.1686     2.0034     2.0459   269.7600     1.7337     0.4995
  845   16.880   5975.72     1.5386     0.0309     1.0538     0.1688     1.9811     2.0038   270.0800     1.7110     0.5171
  846   16.900   5976.72     1.5288     0.0292     1.0651     0.1690     1.9744     1.9074   270.4000     1.7040     0.5234
  847   16.920   5977.74     1.5301     0.0281     1.0649     0.1692     1.9775     1.8391   270.7200     1.7068     0.5250
  848   16.940   5978.73     1.5200     0.0288     1.0584     0.1694     1.9680     1.8946   271.0400     1.6969     0.5287
  849   16.960   5979.73     1.5107     0.0286     1.0710     0.1696     1.9623     1.8957   271.3600     1.6909     0.5356
  850   16.980   5980.70     1.5055     0.0281     1.0686     0.1698     1.9505     1.8569   271.6800     1.6788     0.5300
  851   17.000   5981.70     1.4930     0.0259     1.0607     0.1700     1.9464     1.7321   272.0000     1.6744     0.5432
  852   17.020   5982.75     1.5033     0.0257     1.0741     0.1702     1.9496     1.7070   272.3200     1.6772     0.5321
  853   17.040   5983.78     1.4976     0.0256     1.0965     0.1704     1.9539     1.7078   272.6400     1.6812     0.5449
  854   17.060   5984.79     1.5105     0.0266     1.0963     0.1706     1.9737     1.7640   272.9600     1.7007     0.5481
  855   17.080   5985.76     1.5675     0.0276     1.0732     0.1708     2.0225     1.7744   273.2800     1.7492     0.5218
  856   17.100   5986.73     1.6652     0.0274     0.4724     0.1710     2.0162     1.6046   273.6000     1.7426     0.3712
  857   17.120   5987.76     1.5250     0.0284     0.6935     0.1712     1.7956     1.8592   273.9200     1.5217     0.3107
  858   17.140   5988.78     1.5113     0.0294     0.7897     0.1714     1.8325     1.9470   274.2400     1.5583     0.3807
  859   17.160   5989.77     1.5141     0.0286     0.8575     0.1716     1.8667     1.8855   274.5600     1.5921     0.4196
  860   17.180   5990.77     1.4996     0.0288     0.8966     0.1718     1.8707     1.9138   274.8800     1.5958     0.4461
  861   17.200   5991.71     1.4844     0.0279     0.9301     0.1720     1.8720     1.8795   275.2000     1.5968     0.4702
  862   17.220   5992.73     1.4884     0.0281     0.9458     0.1722     1.8839     1.8903   275.5200     1.6084     0.4783
  863   17.240   5993.78     1.4833     0.0279     0.9561     0.1724     1.8848     1.8842   275.8400     1.6089     0.4869
  864   17.260   5994.78     1.4861     0.0280     0.9647     0.1726     1.8881     1.8818   276.1600     1.6120     0.4868
  865   17.280   5995.74     1.4727     0.0280     0.9925     0.1728     1.8849     1.8986   276.4800     1.6084     0.5027
  866   17.300   5996.66     1.4729     0.0283     0.9973     0.1730     1.8909     1.9239   276.8000     1.6141     0.5094
  867   17.320   5997.70     1.4634     0.0280     1.0202     0.1732     1.8872     1.9132   277.1200     1.6101     0.5193
  868   17.340   5998.73     1.4428     0.0273     1.0154     0.1734     1.8712     1.8928   277.4400     1.5938     0.5312
  869   17.360   5999.75     1.4392     0.0271     1.0246     0.1736     1.8666     1.8836   277.7600     1.5889     0.5312
  870   17.380   6000.75     1.4564     0.0268     1.0379     0.1738     1.8898     1.8406   278.0800     1.6117     0.5325
  871   17.400   6001.72     1.4601     0.0270     1.0535     0.1740     1.8998     1.8489   278.4000     1.6214     0.5383
  872   17.420   6002.74     1.4408     0.0273     1.0581     0.1742     1.8885     1.8960   278.7200     1.6098     0.5539
  873   17.440   6003.71     1.4503     0.0275     1.0490     0.1744     1.8907     1.8928   279.0400     1.6116     0.5424
  874   17.460   6004.74     1.4393     0.0266     1.0388     0.1746     1.8765     1.8464   279.3600     1.5972     0.5424
  875   17.480   6005.74     1.4285     0.0266     1.0386     0.1748     1.8569     1.8576   279.6800     1.5773     0.5358
  876   17.500   6006.73     1.4327     0.0268     1.0190     0.1750     1.8666     1.8720   280.0000     1.5866     0.5409
  877   17.520   6007.76     1.4410     0.0259     1.0485     0.1752     1.8807     1.7973   280.3200     1.6004     0.5447
  878   17.540   6008.76     1.4379     0.0257     1.0521     0.1754     1.8798     1.7871   280.6400     1.5991     0.5482
  879   17.560   6009.73     1.4412     0.0252     1.0641     0.1756     1.8870     1.7484   280.9600     1.6061     0.5516
  880   17.580   6010.80     1.4264     0.0257     1.0570     0.1758     1.8722     1.8016   281.2800     1.5909     0.5567
  881   17.600   6011.81     1.4256     0.0263     1.0582     0.1760     1.8683     1.8437   281.6000     1.5867     0.5534
  882   17.620   6012.80     1.4630     0.0263     1.0466     0.1762     1.9037     1.8021   281.9200     1.6217     0.5383
  883   17.640   6013.76     1.4944     0.0273     1.0484     0.1764     1.9349     1.8320   282.2400     1.6526     0.5279
  884   17.660   6014.76     1.5160     0.0267     1.0420     0.1766     1.9551     1.7646   282.5600     1.6725     0.5195
  885   17.680   6015.80     1.5110     0.0266     1.0486     0.1768     1.9535     1.7553   282.8800     1.6707     0.5249
  886   17.700   6016.83     1.4782     0.0272     1.0307     0.1770     1.9166     1.8407   283.2000     1.6334     0.5306
  887   17.720   6017.81     1.4898     0.0292     1.0145     0.1772     1.9182     1.9646   283.5200     1.6347     0.5156
  888   17.740   6018.78     1.4908     0.0311     1.0489     0.1774     1.9268     2.0884   283.8400     1.6430     0.5239
  889   17.760   6019.75     1.5198     0.0323     1.0395     0.1776     1.9564     2.1512   284.1600     1.6723     0.5154
  890   17.780   6020.78     1.5706     0.0307     1.0469     0.1778     2.0103     1.9716   284.4800     1.7259     0.5037
  891   17.800   6021.79     1.5623     0.0298     1.0311     0.1780     1.9963     1.8902   284.8000     1.7115     0.4998
  892   17.820   6036.51     1.5249     0.0295     1.0233     0.1782     1.9558     1.9130   285.1200     1.6706     0.5076
  893   17.840   6057.06     1.5000     0.0292     1.0154     0.1784     1.9276     1.8935   285.4400     1.6422     0.5115
  894   17.860   6077.61     1.4752     0.0295     1.0164     0.1786     1.8995     1.9121   285.7600     1.6137     0.5154
  895   17.880   6081.52     1.4578     0.0291     1.0360     0.1788     1.8918     1.9917   286.0800     1.6057     0.5322
  896   17.900   6082.56     1.4464     0.0279     1.0227     0.1790     1.8776     1.9261   286.4000     1.5912     0.5327
  897   17.920   6083.54     1.4464     0.0269     1.0175     0.1792     1.8732     1.8581   286.7200     1.5865     0.5276
  898   17.940   6084.55     1.4545     0.0276     1.0209     0.1794     1.8818     1.9043   287.0400     1.5947     0.5254
  899   17.960   6085.54     1.4703     0.0278     1.0227     0.1796     1.8985     1.8930   287.3600     1.6111     0.5214
  900   17.980   6086.59     1.4886     0.0275     1.0312     0.1798     1.9189     1.8509   287.6800     1.6313     0.5179
  901   18.000   6087.57     1.4789     0.0275     1.0519     0.1800     1.9210     1.8582   288.0000     1.6330     0.5344
  902   18.020   6088.54     1.4809     0.0277     1.0448     0.1802     1.9208     1.8688   288.3200     1.6325     0.5312
  903   18.040   6089.59     1.4608     0.0276     1.0604     0.1804     1.9036     1.8864   288.6400     1.6150     0.5411
  904   18.060   6090.55     1.4670     0.0267     1.0704     0.1806     1.9156     1.8217   288.9600     1.6266     0.5456
  905   18.080   6091.56     1.4629     0.0256     1.0706     0.1808     1.9136     1.7468   289.2800     1.6243     0.5494
  906   18.100   6092.63     1.4709     0.0256     1.0734     0.1810     1.9208     1.7406   289.6000     1.6312     0.5458
  907   18.120   6093.60     1.4704     0.0258     1.0845     0.1812     1.9264     1.7560   289.9200     1.6365     0.5527
  908   18.140   6094.60     1.4825     0.0258     1.0811     0.1814     1.9399     1.7428   290.2400     1.6497     0.5502
  909   18.160   6095.57     1.4598     0.0260     1.0466     0.1816     1.9029     1.7808   290.5600     1.6124     0.5417
  910   18.180   6096.60     1.4544     0.0262     1.0500     0.1818     1.8934     1.7978   290.8800     1.6025     0.5388
  911   18.200   6097.60     1.4395     0.0260     1.0622     0.1820     1.8848     1.7898   291.2000     1.5936     0.5511
  912   18.220   6098.60     1.4099     0.0256     1.0641     0.1822     1.8579     1.7955   291.5200     1.5664     0.5647
  913   18.240   6099.61     1.4087     0.0258     1.0524     0.1824     1.8540     1.8368   291.8400     1.5621     0.5618
  914   18.260   6100.68     1.4049     0.0249     1.0531     0.1826     1.8448     1.7730   292.1600     1.5527     0.5571
  915   18.280   6101.71     1.3991     0.0248     1.0666     0.1828     1.8454     1.7703   292.4800     1.5529     0.5665
  916   18.300   6102.71     1.4057     0.0245     1.0737     0.1830     1.8565     1.7471   292.8000     1.5637     0.5693
  917   18.320   6103.74     1.4258     0.0251     1.0708     0.1832     1.8740     1.7652   293.1200     1.5809     0.5592
  918   18.340   6104.73     1.4435     0.0256     1.0575     0.1834     1.8888     1.7787   293.4400     1.5954     0.5496
  919   18.360   6105.71     1.4529     0.0248     1.0193     0.1836     1.8946     1.7089   293.7600     1.6009     0.5423
  920   18.380   6106.74     1.4430     0.0254     1.0486     0.1838     1.8824     1.7636   294.0800     1.5883     0.5429
  921   18.400   6107.74     1.4461     0.0258     1.0484     0.1840     1.8853     1.7820   294.4000     1.5909     0.5417
  922   18.420   6108.72     1.4312     0.0255     1.0628     0.1842     1.8760     1.7805   294.7200     1.5812     0.5533
  923   18.440   6109.68     1.4009     0.0254     1.0641     0.1844     1.8500     1.8118   295.0400     1.5550     0.5691
  924   18.460   6110.71     1.4004     0.0240     1.0196     0.1846     1.8342     1.7107   295.3600     1.5389     0.5512
  925   18.480   6111.72     1.3695     0.0219     1.0360     0.1848     1.8026     1.5993   295.6800     1.5069     0.5617
  926   18.500   6112.70     1.3576     0.0215     1.0441     0.1850     1.7930     1.5829   296.0000     1.4970     0.5690
  927   18.520   6113.67     1.3554     0.0185     1.0701     0.1852     1.7996     1.3647   296.3200     1.5033     0.5804
  928   18.540   6114.71     1.4402     0.0162     1.0665     0.1854     1.8893     1.1678   296.6400     1.5926     0.5549
  929   18.560   6115.74     1.5463     0.0173     1.0184     0.1856     1.9835     1.1262   296.9600     1.6865     0.5074
  930   18.580   6116.73     1.7237     0.0203     0.9892     0.1858     2.1410     1.1902   297.2800     1.8437     0.4383
  931   18.600   6117.78     1.9441     0.0226     0.9363     0.1860     2.3550     1.1825   297.6000     2.0574     0.3858
  932   18.620   6118.77     2.2075     0.0253     0.8085     0.1862     2.5679     1.1603   297.9200     2.2700     0.2963
  933   18.640   6119.75     2.2441     0.0288     0.7320     0.1864     2.5603     1.2790   298.2400     2.2621     0.2503
  934   18.660   6120.77     2.2172     0.0275     0.7496     0.1866     2.5291     1.2366   298.5600     2.2305     0.2493
  935   18.680   6121.76     2.0948     0.0283     0.7899     0.1868     2.4248     1.3441   298.8800     2.1259     0.2819
  936   18.700   6122.81     1.9944     0.0305     0.7961     0.1870     2.3247     1.5294   299.2000     2.0255     0.2959
  937   18.720   6123.81     2.0310     0.0265     0.7954     0.1872     2.3632     1.3015   299.5200     2.0637     0.2926
  938   18.740   6124.75     1.9673     0.0242     0.8084     0.1874     2.3043     1.2351   299.8400     2.0045     0.3068
  939   18.760   6125.74     2.0821     0.0232     0.7820     0.1876     2.4180     1.1557   300.1600     2.1179     0.2892
  940   18.780   6126.77     2.0935     0.0248     0.7622     0.1878     2.4098     1.1832   300.4800     2.1093     0.2680
  941   18.800   6127.79     2.0251     0.0235     0.7530     0.1880     2.3427     1.1574   300.8000     2.0419     0.2783
  942   18.820   6128.80     1.9332     0.0253     0.7612     0.1882     2.2524     1.2953   301.1200     1.9513     0.2931
  943   18.840   6129.79     1.7613     0.0232     0.8073     0.1884     2.0917     1.3068   301.4400     1.7902     0.3345
  944   18.860   6130.80     1.5821     0.0242     0.8553     0.1886     1.9322     1.5152   301.7600     1.6305     0.3960
  945   18.880   6131.80     1.4397     0.0228     0.9187     0.1888     1.8195     1.5799   302.0800     1.5174     0.4716
  946   18.900   6132.83     1.3762     0.0226     0.9671     0.1890     1.7775     1.6388   302.4000     1.4751     0.5197
  947   18.920   6133.80     1.3393     0.0206     0.9737     0.1892     1.7461     1.5372   302.7200     1.4434     0.5400
  948   18.940   6134.80     1.3138     0.0207     0.9780     0.1894     1.7255     1.5704   303.0400     1.4225     0.5559
  949   18.960   6135.85     1.3116     0.0214     0.9881     0.1896     1.7258     1.6349   303.3600     1.4224     0.5599
  950   18.980   6136.87     1.2992     0.0209     0.9995     0.1898     1.7211     1.6131   303.6800     1.4175     0.5748
  951   19.000   6137.85     1.3204     0.0212     1.0079     0.1900     1.7438     1.6167   304.0000     1.4398     0.5683
  952   19.020   6138.85     1.3510     0.0208     1.0098     0.1902     1.7742     1.5412   304.3200     1.4699     0.5562
  953   19.040   6139.87     1.3481     0.0179     1.0339     0.1904     1.7808     1.3217   304.6400     1.4762     0.5689
  954   19.060   6140.89     1.3733     0.0153     1.0490     0.1906     1.8138     1.1108   304.9600     1.5089     0.5688
  955   19.080   6141.90     1.4191     0.0168     1.0194     0.1908     1.8515     1.1874   305.2800     1.5462     0.5425
  956   19.100   6142.90     1.4880     0.0184     1.0471     0.1910     1.9151     1.2705   305.6000     1.6095     0.5130
  957   19.120   6143.92     1.7392     0.0196     1.0374     0.1912     2.1810     1.1461   305.9200     1.8751     0.4602
  958   19.140   6144.92     2.2381     0.0212     0.9158     0.1914     2.6454     0.9793   306.2400     2.3391     0.3344
  959   19.160   6145.96     2.7517     0.0208     0.7446     0.1916     3.0851     0.7637   306.5600     2.7785     0.2172
  960   19.180   6146.96     3.0722     0.0235     0.6942     0.1918     3.3687     0.7667   306.8800     3.0619     0.1680
  961   19.200   6147.98     3.2456     0.0253     0.6755     0.1920     3.5305     0.7816   307.2000     3.2233     0.1509
  962   19.220   6148.97     3.2197     0.0268     0.6714     0.1922     3.4985     0.8269   307.5200     3.1910     0.1478
  963   19.240   6149.97     2.9466     0.0257     0.7202     0.1924     3.2431     0.8654   307.8400     2.9353     0.1751
  964   19.260   6150.96     2.6091     0.0300     0.7937     0.1926     2.9294     1.0851   308.1600     2.6213     0.2178
  965   19.280   6152.00     2.3629     0.0317     0.8651     0.1928     2.7171     1.3352   308.4800     2.4086     0.2702
  966   19.300   6153.02     2.5464     0.0339     0.8763     0.1930     2.9189     1.3392   308.8000     2.6101     0.2660
  967   19.320   6154.02     2.8915     0.0301     0.8138     0.1932     3.2452     1.0492   309.1200     2.9361     0.2212
  968   19.340   6155.01     3.0582     0.0207     0.7262     0.1934     3.3771     0.6926   309.4400     3.0676     0.1845
  969   19.360   6156.04     3.2566     0.0179     0.6572     0.1936     3.5384     0.5555   309.7600     3.2286     0.1478
  970   19.380   6157.06     2.8910     0.0143     0.7292     0.1938     3.1789     0.4587   310.0800     2.8689     0.1718
  971   19.400   6158.01     2.5275     0.0198     0.8420     0.1940     2.8643     0.7356   310.4000     2.5539     0.2383
  972   19.420   6159.06     2.4864     0.0264     0.9408     0.1942     2.8617     1.1069   310.7200     2.5509     0.2741
  973   19.440   6160.11     4.5588     0.0576     0.9328     0.1944     4.9748     1.7721   311.0400     4.6637     0.1723
  974   19.460   6161.15     7.7398     0.1044     0.5976     0.1946     8.0484     1.4226   311.3600     7.7371     0.0700
  975   19.480   6162.18     7.9125     0.1186     0.1446     0.1948     8.0054     1.4628   311.6800     7.6938     0.0033
  976   19.500   6163.15     6.1871     0.1184     0.0875     0.1950     6.2222     1.8786   312.0000     5.9102    -0.0189
  977   19.520   6164.14     4.4584     0.1129     0.1555     0.1952     4.5105     2.2081   312.3200     4.1981    -0.0170
  978   19.540   6165.17     3.5807     0.0880     0.3422     0.1954     3.6971     2.2722   312.6400     3.3844     0.0242
  979   19.560   6166.19     3.1660     0.0586     0.3451     0.1956     3.3063     1.7529   312.9600     2.9933     0.0463
  980   19.580   6167.22     2.8851     0.0505     0.6321     0.1958     3.0959     1.3990   313.2800     2.7826     0.1097
  981   19.600   6168.24     3.1652     0.0556     0.8057     0.1960     3.4968     1.2751   313.6000     3.1832     0.1870
  982   19.620   6169.25     4.2615     0.0606     0.7592     0.1962     4.5920     1.1513   313.9200     4.2780     0.1389
  983   19.640   6170.31     6.1050     0.0656     0.6017     0.1964     6.3950     1.0274   314.2400     6.0808     0.0827
  984   19.660   6171.35     8.9158     0.0707     0.3316     0.1966     9.0945     0.9036   314.5600     8.7799     0.0268
  985   19.680   6175.08    11.7945     0.0905     0.2252     0.1968    11.8932     0.7982   314.8800    11.5783     0.0036
  986   19.700   6185.90    13.4856     0.0934     0.1969     0.1970    13.5724     0.8242   315.2000    13.2572     0.0018
  987   19.720   6196.72    15.1768     0.1578     0.1686     0.1972    15.2517     1.3920   315.5200    14.9362     0.0000
  988   19.740   6207.55    16.8681     0.1493     0.1403     0.1974    16.9311     1.3171   315.8400    16.6153    -0.0019
  989   19.760   6218.37    18.5593     0.1701     0.1120     0.1976    18.6104     1.5000   316.1600    18.2943    -0.0037
  990   19.780   6226.23    18.2532     0.1757     0.1190     0.1978    18.3065     1.1267   316.4800    17.9901    -0.0039
  991   19.800   6227.30    19.7828     0.1765     0.1066     0.1980    19.8268     0.9049   316.8000    19.5100    -0.0048
  992   19.820   6229.69    18.0134     0.1810     0.2049     0.1982    18.0979     0.9835   317.1200    17.7808     0.0002
  993   19.840   6230.76    19.6342     0.1918     0.1477     0.1984    19.6927     1.0457   317.4400    19.3753    -0.0031
  994   19.860   6231.70    18.2248     0.2025     0.1304     0.1986    18.2835     1.1054   317.7600    17.9657    -0.0033
  995   19.880   6232.64    16.4173     0.1993     0.1329     0.1988    16.4699     1.2009   318.0800    16.1518    -0.0046
  996   19.900   6233.54    14.5130     0.1839     0.1160     0.1990    14.5660     1.2518   318.4000    14.2476    -0.0051
  997   19.920   6234.47    13.2547     0.1764     0.1105     0.1992    13.2981     1.2946   318.7200    12.9793    -0.0074
  998   19.940   6235.41    12.8639     0.1802     0.1970     0.1994    12.9351     1.4015   319.0400    12.6161    -0.0024
  999   19.960   6236.30    13.2863     0.1826     0.2103     0.1996    13.3742     1.4053   319.3600    13.0548     0.0008
 1000   19.980   6237.19    13.6163     0.1694     0.1537     0.1998    13.6923     1.2543   319.6800    13.3727    -0.0014
 1001   20.000   6238.11    13.2866     0.1535     0.0796     0.2000    13.3201     1.1345   320.0000    13.0001    -0.0093
 1002   20.020   6239.03    12.7967     0.1421     0.1025     0.2002    12.8348     1.0890   320.3200    12.5145    -0.0087
 1003   20.040   6239.96    12.8392     0.1251     0.0967     0.2004    12.8822     0.9758   320.6400    12.5616    -0.0078
 1004   20.060   6240.91    13.4574     0.1163     0.0835     0.2006    13.4966     0.8670   320.9600    13.1757    -0.0081
 1005   20.080   6241.85    13.6752     0.1313     0.0323     0.2008    13.6941     0.9600   321.2800    13.3729    -0.0116
 1006   20.100   6242.79    13.4775     0.1564     0.0547     0.2010    13.4954     1.1562   321.6000    13.1738    -0.0120
 1007   20.120   6243.67    12.9548     0.1600     0.0499     0.2012    12.9876     1.2057   321.9200    12.6657    -0.0097
 1008   20.140   6244.58    11.9319     0.1596     0.0308     0.2014    11.9432     1.2790   322.2400    11.6209    -0.0150
 1009   20.160   6245.49    11.4974     0.1553     0.0841     0.2016    11.5200     1.3477   322.5600    11.1974    -0.0132
 1010   20.180   6246.46    11.7626     0.1467     0.2000     0.2018    11.8316     1.2581   322.8800    11.5087    -0.0033
 1011   20.200   6247.39    12.5361     0.1431     0.2096     0.2020    12.6288     1.1262   323.2000    12.3056     0.0015
 1012   20.220   6248.36    14.3238     0.1412     0.1831     0.2022    14.4056     0.9969   323.5200    14.0821    -0.0005
 1013   20.240   6249.36    16.8938     0.1392     0.1641     0.2024    16.9681     0.8676   323.8400    16.6443    -0.0015
 1014   20.260   6251.77    19.6920     0.1373     0.0897     0.2026    19.7728     0.7383   324.1600    19.4487    -0.0003
 1015   20.280   6252.88    23.7575     0.1354    -0.0342     0.2028    23.7519     0.6090   324.4800    23.4274    -0.0092
 1016   20.300   6254.70    25.9013     0.1833    -0.0485     0.2030    25.8784     0.7122   324.8000    25.5536    -0.0101
 1017   20.320   6258.19    26.4129     0.1592    -0.0308     0.2032    26.3974     0.6184   325.1200    26.0723    -0.0093
 1018   20.340   6261.68    26.9245     0.1617    -0.0132     0.2034    26.9164     0.6281   325.4400    26.5909    -0.0085
 1019   20.360   6265.18    27.4360     0.1750     0.0045     0.2036    27.4353     0.6797   325.7600    27.1095    -0.0077
 1020   20.380   6268.67    27.9475     0.1960     0.0222     0.2038    27.9543     0.7612   326.0800    27.6282    -0.0068
 1021   20.400   6273.17    25.2775     0.2270     0.1231     0.2040    25.3237     0.8950   326.4000    24.9973    -0.0038
 1022   20.420   6274.48    28.0237     0.2498     0.0311     0.2042    28.0422     0.9213   326.7200    27.7155    -0.0058
 1023   20.440   6277.64    22.3172     0.2719     0.1103     0.2044    22.3858     1.2874   327.0400    22.0588    -0.0018
 1024   20.460   6278.64    28.2251     0.2951     0.1051     0.2046    28.2654     1.0598   327.3600    27.9380    -0.0039
 1025   20.480   6279.61    28.4798     0.3099     0.1225     0.2048    28.5287     1.0884   327.6800    28.2011    -0.0031
 1026   20.500   6280.61    27.8794     0.3193     0.1316     0.2050    27.9329     1.1306   328.0000    27.6049    -0.0028
 1027   20.520   6281.57    26.6750     0.3185     0.1193     0.2052    26.7259     1.1646   328.3200    26.3976    -0.0032
 1028   20.540   6282.52    25.3686     0.2967     0.1261     0.2054    25.4213     1.1665   328.6400    25.0927    -0.0032
 1029   20.560   6283.48    23.7272     0.2705     0.1339     0.2056    23.7821     1.1247   328.9600    23.4532    -0.0032
 1030   20.580   6284.38    22.0489     0.2550     0.1353     0.2058    22.1058     1.1281   329.2800    21.7765    -0.0032
 1031   20.600   6285.30    20.1596     0.2375     0.1514     0.2060    20.2187     1.1345   329.6000    19.8891    -0.0033
 1032   20.620   6286.21    18.4275     0.2259     0.1431     0.2062    18.4906     1.2198   329.9200    18.1607    -0.0031
 1033   20.640   6287.18    16.9998     0.2332     0.1122     0.2064    17.0487     1.3577   330.2400    16.7184    -0.0054
 1034   20.660   6288.12    15.8991     0.2320     0.1156     0.2066    15.9466     1.4371   330.5600    15.6161    -0.0060
 1035   20.680   6289.00    14.9249     0.2288     0.1272     0.2068    14.9761     1.5200   330.8800    14.6452    -0.0058
 1036   20.700   6289.95    13.6853     0.2446     0.1496     0.2070    13.7453     1.7695   331.2000    13.4141    -0.0048
 1037   20.720   6290.83    12.3433     0.2500     0.1547     0.2072    12.4077     1.9928   331.5200    12.0761    -0.0045
 1038   20.740   6291.67    11.0088     0.2416     0.1898     0.2074    11.0815     2.1624   331.8400    10.7496    -0.0032
 1039   20.760   6292.57     9.2870     0.2327     0.2277     0.2076     9.3833     2.4835   332.1600     9.0511     0.0024
 1040   20.780   6293.48     7.6600     0.2186     0.2619     0.2078     7.7635     2.8241   332.4800     7.4310     0.0053
 1041   20.800   6294.43     6.9252     0.1996     0.2778     0.2080     7.0424     2.8669   332.8000     6.7096     0.0106
 1042   20.820   6295.36     6.9377     0.1900     0.2909     0.2082     7.0550     2.7423   333.1200     6.7218     0.0105
 1043   20.840   6296.25     7.2183     0.1782     0.2667     0.2084     7.3378     2.4703   333.4400     7.0044     0.0109
 1044   20.860   6297.16     6.9722     0.1577     0.2459     0.2086     7.0776     2.2449   333.7600     6.7438     0.0063
 1045   20.880   6298.07     6.0597     0.1329     0.0258     0.2088     6.0806     2.1719   334.0800     5.7466    -0.0279
 1046   20.900   6298.96     5.1475     0.1117     0.1453     0.2090     5.1876     2.1420   334.4000     4.8532    -0.0230
 1047   20.920   6299.90     4.5789     0.1040     0.2309     0.2092     4.6680     2.1705   334.7200     4.3332     0.0007
 1048   20.940   6300.84     4.4932     0.1024     0.2950     0.2094     4.6050     2.2802   335.0400     4.2699     0.0133
 1049   20.960   6301.75     4.1365     0.0830     0.1855     0.2096     4.2685     1.9491   335.3600     3.9332     0.0256
 1050   20.980   6302.66     3.5878     0.0653     0.1944     0.2098     3.6512     1.7898   335.6800     3.3155    -0.0176
 1051   21.000   6303.54     2.9031     0.0590     0.3089     0.2100     3.0202     1.9753   336.0000     2.6842     0.0260
 1052   21.020   6304.55     2.4405     0.0561     0.4566     0.2102     2.6034     2.1528   336.3200     2.2671     0.0786
 1053   21.040   6305.62     2.2476     0.0479     0.5987     0.2104     2.4920     2.1114   336.6400     2.1554     0.1724
 1054   21.060   6306.64     2.3169     0.0379     0.6283     0.2106     2.5737     1.6573   336.9600     2.2367     0.1791
 1055   21.080   6307.64     2.3478     0.0381     0.7084     0.2108     2.6337     1.6320   337.2800     2.2964     0.2046
 1056   21.100   6308.67     2.7603     0.0489     0.7920     0.2110     3.0818     1.9953   337.6000     2.7442     0.2023
 1057   21.120   6309.65     3.7765     0.0622     0.7206     0.2112     4.1103     1.9052   337.9200     3.7724     0.1547
 1058   21.140   6310.65     4.8419     0.0721     0.5374     0.2114     5.0776     1.5967   338.2400     4.7394     0.0739
 1059   21.160   6311.77     5.2913     0.0797     0.5428     0.2116     5.5097     1.5459   338.5600     5.1712     0.0596
 1060   21.180   6312.78     5.4656     0.0923     0.5802     0.2118     5.6972     1.6609   338.8800     5.3584     0.0634
 1061   21.200   6313.79     6.1509     0.1090     0.6144     0.2120     6.4158     1.6425   339.2000     6.0766     0.0693
 1062   21.220   6314.79     7.7247     0.1257     0.4845     0.2122     7.9440     1.6242   339.5200     7.6045     0.0410
 1063   21.240   6315.85     9.0952     0.1327     0.1942     0.2124     9.2142     1.4810   339.8400     8.8744     0.0082
 1064   21.260   6316.93    10.4634                0.0995     0.2126    10.5082              340.1600    10.1681    -0.0104
 1065   21.280   6317.90    14.0871                0.1631     0.2128    14.1482              340.4800    13.8078    -0.0051
 1066   21.300   6319.93    18.5361                0.1390     0.2130    18.5980              340.8000    18.2572    -0.0034
 1067   21.320   6322.21    22.6908                0.1150     0.2132    22.7426              341.1200    22.4015    -0.0039
 1068   21.340   6324.29    26.5453                0.0805     0.2134    26.5852              341.4400    26.2438    -0.0045
 1069   21.357   6325.09    28.4396                           0.2136    28.4747              341.7085    28.1330    -0.0046
 
 
