

 Program UNIPLOT                         version 05.36.02
 _______________
 (c) Fugro Netherlands Marine, Nootdorp, The Netherlands


 ASCII representation of data plotted on a graph.

 This ASCII file presents data interpolated to values per fixed depth interval.
 The data are corrected for the depth-offset differences between the various 
 transducers in the penetrometer.

 The records at the start of penetration may include no values or anomalous
 values where a depth offset implies incomplete penetration of a particular
 sensor into the ground.

 The records at the end of penetration may include no values for data channels
 where the transducer did not reach this depth.

 The reference level for test values is (1) the ground surface for onshore tests and (2) the seafloor for nearshore and offshore tests.

 UNICAS data file          : CPT-2013.000                            
 Output using command file : PlotASCII.cmd

 ASCII file created at : date          :28-Apr-2022
                         time          :15:36:35
 Project number                        :20024805
 Date of testing                       :26-Apr-2022
 Location                              :Hong Kong Offshore Wind Farm Project
 Test name                             :CPT-2013
 Penetrometer                          :F7.5CKE2HAW2/B/3342
 Serial no                             :1701-3342

 Table description:
 Column ID                             :Parameter name
 ___________________________________________________________________________________
 Rec                                   :Record ID, Record ID [-]
 Depth                                 :Depth, Depth [m]
 Time                                  :Time, Time [s]
 Cone                                  :Cone Resistance, Cone Resistance [MPa]
 Friction                              :Sleeve Friction, Sleeve Friction [MPa]
 Pore 2                                :Porewater Pressure, Porewater Pressure at Shoulder [MPa]
 HydroPress                            :Hydrostatic Pressure, Hydrostatic Pressure [MPa]
 qt                                    :Total Cone Resistance, Total Cone Resistance [MPa]
 Fric_ratio                            :Friction Ratio, Friction Ratio [%]
 SigmaVert                             :Vertical stress, Vertical stress [kPa] as specified in ground model
 Qnet                                  :Net Cone Resistance, Net Cone Resistance [MPa], unit weight as specified in ground model
 Bq                                    :Porewater Pressure Ratio, Porewater Pressure Ratio [-], unit weight as specified in ground model


 Data table:
  Rec    Depth      Time       Cone   Friction     Pore 2 HydroPress         qt Fric_ratio  SigmaVert       Qnet         Bq
   No        m         s        MPa        MPa        MPa        MPa        MPa          %        kPa        MPa          -
    1    0.000   1716.31     0.0000                           0.0000     0.0000                0.0000     0.0000           
    2    0.020   1717.28     0.0046                0.0004     0.0002     0.0048                0.3200     0.0044     0.0716
    3    0.040   1718.22     0.0029                0.0007     0.0004     0.0032                0.6400     0.0026     0.1100
    4    0.060   1719.16     0.0012     0.0005     0.0008     0.0006     0.0015    30.3209     0.9600     0.0006     0.3171
    5    0.080   1720.14     0.0047     0.0003     0.0008     0.0008     0.0050     8.8679     1.2800     0.0037    -0.0157
    6    0.100   1721.07     0.0033     0.0006     0.0010     0.0010     0.0038    12.8579     1.6000     0.0022     0.0258
    7    0.120   1722.02     0.0035     0.0004     0.0012     0.0012     0.0039    18.8971     1.9200     0.0020    -0.2748
    8    0.140   1722.97     0.0046     0.0005     0.0015     0.0014     0.0051    13.0245     2.2400     0.0029    -0.0282
    9    0.160   1723.90     0.0084     0.0004     0.0016     0.0016     0.0090     6.1471     2.5600     0.0065    -0.0114
   10    0.180   1724.90     0.0089     0.0007     0.0018     0.0018     0.0096     8.6340     2.8800     0.0068    -0.0069
   11    0.200   1725.85     0.0070     0.0009     0.0023     0.0020     0.0078    11.1209     3.2000     0.0046     0.0014
   12    0.220   1726.83     0.0092     0.0010     0.0028     0.0022     0.0103    10.7893     3.5200     0.0068     0.0558
   13    0.240   1727.77     0.0136     0.0007     0.0029     0.0024     0.0149     5.9943     3.8400     0.0110     0.0474
   14    0.260   1728.69     0.0172     0.0008     0.0027     0.0026     0.0184     5.2111     4.1600     0.0143     0.0255
   15    0.280   1733.20     0.0174     0.0011     0.0016     0.0028     0.0183     5.8498     4.4800     0.0138    -0.0783
   16    0.300   1737.96     0.0168     0.0011     0.0006     0.0030     0.0172     6.1355     4.8000     0.0124    -0.1855
   17    0.320   1742.37     0.0161     0.0013     0.0004     0.0032     0.0162     7.4086     5.1200     0.0110    -0.2788
   18    0.340   1743.31     0.0191     0.0013    -0.0012     0.0034     0.0188     7.6150     5.4400     0.0133    -0.3099
   19    0.360   1744.28     0.0194     0.0012    -0.0004     0.0036     0.0190     6.5501     5.7600     0.0132    -0.3504
   20    0.380   1745.26     0.0175     0.0017     0.0024     0.0038     0.0181     8.7456     6.0800     0.0120    -0.2014
   21    0.400   1746.19     0.0219     0.0017     0.0041     0.0040     0.0234     8.0731     6.4000     0.0170    -0.0214
   22    0.420   1747.17     0.0237     0.0016     0.0049     0.0042     0.0258     7.5138     6.7200     0.0191     0.0352
   23    0.440   1748.11     0.0268     0.0017     0.0030     0.0044     0.0284     7.2082     7.0400     0.0214    -0.0292
   24    0.460   1749.09     0.0268     0.0019     0.0015     0.0046     0.0276     8.1490     7.3600     0.0202    -0.1374
   25    0.480   1750.06     0.0250     0.0018     0.0035     0.0048     0.0261     6.9563     7.6800     0.0184    -0.1189
   26    0.500   1751.00     0.0253     0.0019     0.0058     0.0050     0.0275     7.6210     8.0000     0.0195     0.0218
   27    0.520   1751.94     0.0276     0.0020     0.0063     0.0052     0.0302     7.3320     8.3200     0.0219     0.0473
   28    0.540   1752.92     0.0288     0.0021     0.0070     0.0054     0.0314     7.7809     8.6400     0.0228     0.0396
   29    0.560   1753.86     0.0320     0.0020     0.0071     0.0056     0.0349     6.5656     8.9600     0.0259     0.0522
   30    0.580   1754.78     0.0278     0.0022     0.0054     0.0058     0.0306     7.3317     9.2800     0.0213     0.0422
   31    0.600   1755.79     0.0305     0.0021     0.0011     0.0060     0.0322     6.8905     9.6000     0.0226    -0.0810
   32    0.620   1756.71     0.0321     0.0023     0.0018     0.0062     0.0316     7.0852     9.9200     0.0217    -0.3322
   33    0.640   1757.66     0.0285     0.0022     0.0084     0.0064     0.0313     7.1823    10.2400     0.0211     0.0148
   34    0.660   1758.63     0.0280     0.0024     0.0110     0.0066     0.0324     9.6259    10.5600     0.0219     0.1760
   35    0.680   1759.60     0.0273     0.0024     0.0113     0.0068     0.0320     8.9517    10.8800     0.0211     0.2088
   36    0.700   1760.54     0.0269     0.0022     0.0107     0.0070     0.0315     8.7629    11.2000     0.0203     0.2025
   37    0.720   1761.51     0.0277     0.0022     0.0113     0.0072     0.0322     7.8482    11.5200     0.0207     0.1780
   38    0.740   1762.47     0.0279     0.0023     0.0108     0.0074     0.0325     8.4142    11.8400     0.0206     0.1706
   39    0.760   1763.44     0.0276     0.0023     0.0116     0.0076     0.0323     8.0585    12.1600     0.0201     0.1759
   40    0.780   1764.37     0.0240     0.0025     0.0128     0.0078     0.0292    10.1407    12.4800     0.0167     0.2728
   41    0.800   1765.37     0.0255     0.0029     0.0133     0.0080     0.0309    11.2603    12.8000     0.0181     0.2689
   42    0.820   1766.29     0.0246     0.0024     0.0140     0.0082     0.0302     9.3678    13.1200     0.0171     0.2984
   43    0.840   1767.28     0.0246     0.0028     0.0142     0.0084     0.0305    11.4040    13.4400     0.0171     0.3393
   44    0.860   1768.25     0.0273     0.0027     0.0145     0.0086     0.0334     9.8870    13.7600     0.0196     0.2998
   45    0.880   1769.19     0.0275     0.0027     0.0153     0.0088     0.0338     9.9437    14.0800     0.0197     0.3127
   46    0.900   1770.15     0.0232     0.0025     0.0160     0.0090     0.0298    10.3706    14.4000     0.0154     0.4391
   47    0.920   1771.13     0.0264     0.0028     0.0163     0.0092     0.0333    11.1683    14.7200     0.0186     0.3851
   48    0.940   1772.09     0.0261     0.0025     0.0163     0.0094     0.0329     9.4686    15.0400     0.0178     0.3778
   49    0.960   1773.03     0.0231     0.0026     0.0166     0.0096     0.0300    10.9986    15.3600     0.0146     0.4671
   50    0.980   1774.00     0.0249     0.0029     0.0177     0.0098     0.0321    11.8707    15.6800     0.0164     0.4531
   51    1.000   1774.95     0.0248     0.0029     0.0191     0.0100     0.0325    11.7338    16.0000     0.0165     0.5085
   52    1.020   1775.91     0.0215     0.0030     0.0192     0.0102     0.0295    12.8689    16.3200     0.0132     0.6668
   53    1.040   1776.86     0.0212     0.0028     0.0161     0.0104     0.0285    13.1790    16.6400     0.0118     0.6080
   54    1.060   1777.82     0.0199     0.0027     0.0213     0.0106     0.0288    10.6602    16.9600     0.0118     0.8865
   55    1.080   1778.76     0.0209     0.0026     0.0221     0.0108     0.0301    12.3431    17.2800     0.0128     0.8631
   56    1.100   1779.73     0.0199     0.0028     0.0225     0.0110     0.0293    13.9893    17.6000     0.0117     0.9714
   57    1.120   1780.70     0.0231     0.0028     0.0222     0.0112     0.0325    12.0088    17.9200     0.0145     0.7678
   58    1.140   1781.60     0.0261     0.0027     0.0223     0.0114     0.0355    10.9915    18.2400     0.0173     0.6339
   59    1.160   1782.49     0.0267     0.0026     0.0220     0.0116     0.0359     9.7818    18.5600     0.0174     0.5963
   60    1.180   1783.33     0.0251     0.0029     0.0230     0.0118     0.0347    11.2619    18.8800     0.0158     0.6993
   61    1.200   1784.27     0.0296     0.0030     0.0231     0.0120     0.0393    10.9593    19.2000     0.0201     0.5506
   62    1.220   1785.24     0.0256     0.0031     0.0231     0.0122     0.0354    11.6900    19.5200     0.0158     0.6907
   63    1.240   1786.22     0.0294     0.0030     0.0236     0.0124     0.0393    10.0640    19.8400     0.0195     0.5756
   64    1.260   1787.16     0.0321     0.0030     0.0236     0.0126     0.0421     9.6165    20.1600     0.0219     0.5042
   65    1.280   1788.15     0.0349     0.0027     0.0235     0.0128     0.0448     8.0858    20.4800     0.0243     0.4416
   66    1.300   1789.09     0.0327     0.0028     0.0240     0.0130     0.0425     8.7496    20.8000     0.0217     0.4795
   67    1.320   1790.06     0.0322     0.0029     0.0281     0.0132     0.0435     8.5783    21.1200     0.0224     0.6175
   68    1.340   1791.04     0.0322     0.0027     0.0286     0.0134     0.0442     8.2254    21.4400     0.0228     0.6702
   69    1.360   1791.99     0.0332     0.0026     0.0302     0.0136     0.0457     8.1058    21.7600     0.0239     0.6776
   70    1.380   1792.99     0.0359     0.0027     0.0301     0.0138     0.0486     7.7883    22.0800     0.0265     0.6192
   71    1.400   1793.92     0.0375     0.0028     0.0317     0.0140     0.0506     7.7767    22.4000     0.0282     0.6068
   72    1.420   1794.80     0.0381     0.0029     0.0301     0.0142     0.0510     7.5390    22.7200     0.0283     0.5874
   73    1.440   1795.56     0.0392     0.0032     0.0280     0.0144     0.0512     8.2153    23.0400     0.0281     0.5010
   74    1.460   1796.35     0.0430     0.0031     0.0301     0.0146     0.0553     7.3256    23.3600     0.0320     0.4642
   75    1.480   1797.24     0.0404     0.0031     0.0311     0.0148     0.0532     7.6759    23.6800     0.0296     0.5341
   76    1.500   1798.20     0.0430     0.0031     0.0335     0.0150     0.0574     7.2352    24.0000     0.0334     0.5733
   77    1.520   1799.16     0.0407     0.0033     0.0323     0.0152     0.0545     8.1225    24.3200     0.0302     0.5826
   78    1.540   1800.33     0.0372     0.0032     0.0331     0.0154     0.0509     8.3474    24.6400     0.0262     0.6562
   79    1.560   1801.32     0.0414     0.0034     0.0366     0.0156     0.0564     8.6826    24.9600     0.0314     0.6384
   80    1.580   1802.29     0.0462     0.0033     0.0376     0.0158     0.0618     7.5574    25.2800     0.0365     0.5869
   81    1.600   1803.21     0.0498     0.0032     0.0362     0.0160     0.0653     6.4322    25.6000     0.0397     0.5261
   82    1.620   1804.18     0.0478     0.0036     0.0366     0.0162     0.0631     7.5839    25.9200     0.0372     0.5416
   83    1.640   1805.16     0.0486     0.0033     0.0365     0.0164     0.0635     6.8486    26.2400     0.0373     0.5129
   84    1.660   1808.97     0.0450     0.0035     0.0395     0.0166     0.0615     7.7452    26.5600     0.0349     0.6483
   85    1.680   1818.99     0.0444     0.0031     0.0403     0.0168     0.0612     6.9340    26.8800     0.0343     0.6781
   86    1.700   1829.02     0.0437     0.0029     0.0411     0.0170     0.0608     6.3850    27.2000     0.0336     0.7079
   87    1.720   1834.76     0.0405     0.0031     0.0440     0.0172     0.0586     7.1879    27.5200     0.0311     0.8344
   88    1.740   1835.71     0.0447     0.0028     0.0448     0.0174     0.0641     6.3924    27.8400     0.0363     0.7943
   89    1.760   1836.66     0.0452     0.0029     0.0512     0.0176     0.0655     6.3996    28.1600     0.0373     0.8203
   90    1.780   1837.64     0.0513     0.0033     0.0511     0.0178     0.0734     6.8599    28.4800     0.0449     0.7775
   91    1.800   1838.58     0.0539     0.0032     0.0493     0.0180     0.0745     6.0660    28.8000     0.0457     0.6783
   92    1.820   1839.51     0.0553     0.0032     0.0455     0.0182     0.0748     5.8169    29.1200     0.0457     0.6192
   93    1.840   1840.46     0.0554     0.0034     0.0456     0.0184     0.0747     6.2093    29.4400     0.0453     0.6102
   94    1.860   1841.46     0.0537     0.0035     0.0428     0.0186     0.0721     6.2955    29.7600     0.0423     0.5928
   95    1.880   1842.39     0.0519     0.0036     0.0472     0.0188     0.0708     6.8246    30.0800     0.0408     0.6462
   96    1.900   1843.40     0.0544     0.0036     0.0488     0.0190     0.0750     7.0800    30.4000     0.0446     0.6756
   97    1.920   1844.33     0.0511     0.0036     0.0509     0.0192     0.0719     6.9705    30.7200     0.0412     0.7335
   98    1.940   1845.25     0.0549     0.0031     0.0541     0.0194     0.0778     5.7946    31.0400     0.0468     0.7508
   99    1.960   1846.20     0.0554     0.0036     0.0497     0.0196     0.0763     6.3882    31.3600     0.0450     0.6700
  100    1.980   1847.16     0.0588     0.0030     0.0510     0.0198     0.0800     5.0546    31.6800     0.0483     0.6376
  101    2.000   1848.14     0.0636     0.0029     0.0501     0.0200     0.0850     4.9632    32.0000     0.0530     0.5827
  102    2.020   1849.09     0.0657     0.0039     0.0486     0.0202     0.0863     6.2501    32.3200     0.0539     0.5362
  103    2.040   1850.02     0.0708     0.0037     0.0486     0.0204     0.0911     5.5902    32.6400     0.0585     0.4787
  104    2.060   1850.95     0.0718     0.0040     0.0463     0.0206     0.0920     5.5569    32.9600     0.0590     0.4666
  105    2.080   1851.93     0.0741     0.0040     0.0470     0.0208     0.0953     5.4510    33.2800     0.0620     0.4791
  106    2.100   1852.92     0.0755     0.0038     0.0459     0.0210     0.0955     5.1100    33.6000     0.0619     0.4317
  107    2.120   1853.85     0.0735     0.0038     0.0469     0.0212     0.0928     4.9481    33.9200     0.0589     0.4214
  108    2.140   1854.79     0.0693     0.0037     0.0531     0.0214     0.0906     5.3232    34.2400     0.0564     0.5187
  109    2.160   1855.76     0.0680     0.0038     0.0559     0.0216     0.0914     5.3962    34.5600     0.0569     0.5993
  110    2.180   1856.68     0.0681     0.0036     0.0572     0.0218     0.0922     5.1082    34.8800     0.0573     0.6215
  111    2.200   1857.65     0.0704     0.0037     0.0580     0.0220     0.0944     5.3841    35.2000     0.0592     0.5919
  112    2.220   1858.62     0.0722     0.0039     0.0593     0.0222     0.0972     5.5103    35.5200     0.0617     0.6070
  113    2.240   1859.57     0.0727     0.0041     0.0574     0.0224     0.0970     5.6366    35.8400     0.0611     0.5815
  114    2.260   1860.51     0.0763     0.0043     0.0495     0.0226     0.0990     5.7943    36.1600     0.0629     0.5012
  115    2.280   1861.48     0.0757     0.0043     0.0452     0.0228     0.0951     5.6711    36.4800     0.0586     0.3979
  116    2.300   1864.85     0.0731     0.0043     0.0482     0.0230     0.0931     5.9084    36.8000     0.0563     0.4382
  117    2.320   1877.88     0.0775     0.0041     0.0498     0.0232     0.0982     5.7146    37.1200     0.0611     0.4285
  118    2.340   1890.92     0.0820     0.0039     0.0514     0.0234     0.1033     5.3858    37.4400     0.0659     0.4188
  119    2.360   1903.95     0.0864     0.0037     0.0538     0.0236     0.1084     4.5470    37.7600     0.0707     0.4092
  120    2.380   1906.35     0.0836     0.0038     0.0592     0.0238     0.1076     4.5515    38.0800     0.0695     0.4810
  121    2.400   1906.99     0.0863     0.0041     0.0606     0.0240     0.1118     4.7796    38.4000     0.0734     0.5018
  122    2.420   1907.61     0.0856     0.0037     0.0608     0.0242     0.1111     4.3348    38.7200     0.0724     0.5049
  123    2.440   1908.23     0.0848     0.0033     0.0629     0.0244     0.1107     3.9287    39.0400     0.0717     0.5198
  124    2.460   1908.89     0.0882     0.0034     0.0682     0.0246     0.1160     3.9178    39.3600     0.0767     0.5439
  125    2.480   1909.51     0.0945     0.0038     0.0692     0.0248     0.1237     4.0726    39.6800     0.0840     0.5318
  126    2.500   1910.14     0.0979     0.0037     0.0684     0.0250     0.1272     3.7497    40.0000     0.0872     0.5135
  127    2.520   1910.77     0.1052     0.0040     0.0586     0.0252     0.1315     3.8291    40.3200     0.0911     0.4111
  128    2.540   1911.39     0.1107     0.0042     0.0483     0.0254     0.1322     3.9085    40.6400     0.0916     0.2820
  129    2.560   1912.02     0.1113     0.0045     0.0479     0.0256     0.1311     3.9879    40.9600     0.0901     0.2378
  130    2.580   1912.62     0.1079     0.0044     0.0510     0.0258     0.1290     3.9966    41.2800     0.0877     0.2789
  131    2.600   1913.24     0.1064     0.0045     0.0490     0.0260     0.1270     4.2279    41.6000     0.0854     0.2698
  132    2.620   1924.43     0.1042     0.0043     0.0491     0.0262     0.1248     4.0663    41.9200     0.0829     0.2763
  133    2.640   1935.77     0.1020     0.0041     0.0491     0.0264     0.1226     3.8805    42.2400     0.0803     0.2834
  134    2.660   1947.12     0.0997     0.0039     0.0492     0.0266     0.1204     3.6304    42.5600     0.0778     0.2905
  135    2.680   1952.36     0.0998     0.0037     0.0524     0.0268     0.1214     3.6778    42.8800     0.0786     0.3147
  136    2.700   1953.31     0.0978     0.0038     0.0577     0.0270     0.1217     3.8111    43.2000     0.0785     0.3798
  137    2.720   1954.23     0.0924     0.0033     0.0645     0.0272     0.1189     3.4946    43.5200     0.0753     0.4756
  138    2.740   1955.22     0.0896     0.0035     0.0665     0.0274     0.1173     3.7684    43.8400     0.0734     0.5233
  139    2.760   1956.23     0.0905     0.0033     0.0649     0.0276     0.1178     3.7243    44.1600     0.0736     0.5066
  140    2.780   1957.19     0.0867     0.0031     0.0657     0.0278     0.1143     3.6810    44.4800     0.0698     0.5431
  141    2.800   1958.12     0.0777     0.0031     0.0621     0.0280     0.1044     3.9528    44.8000     0.0596     0.5973
  142    2.820   1959.09     0.0801     0.0028     0.0621     0.0282     0.1062     3.5611    45.1200     0.0611     0.5557
  143    2.840   1960.04     0.0817     0.0028     0.0591     0.0284     0.1069     3.5100    45.4400     0.0614     0.5131
  144    2.860   1961.02     0.0806     0.0029     0.0655     0.0286     0.1068     3.6459    45.7600     0.0610     0.5535
  145    2.880   1961.97     0.0825     0.0029     0.0648     0.0288     0.1101     3.5011    46.0800     0.0640     0.5737
  146    2.900   1962.94     0.0852     0.0031     0.0631     0.0290     0.1126     3.6917    46.4000     0.0662     0.5479
  147    2.920   1963.88     0.0885     0.0028     0.0602     0.0292     0.1124     3.2114    46.7200     0.0657     0.4225
  148    2.940   1964.90     0.0894     0.0028     0.0646     0.0294     0.1162     3.0764    47.0400     0.0691     0.4986
  149    2.960   1965.84     0.0826     0.0030     0.0563     0.0296     0.1059     3.5782    47.3600     0.0585     0.4399
  150    2.980   1966.84     0.0886     0.0032     0.0619     0.0298     0.1132     3.6461    47.6800     0.0655     0.4390
  151    3.000   1967.79     0.0903     0.0031     0.0642     0.0300     0.1169     3.4828    48.0000     0.0689     0.4855
  152    3.020   1968.75     0.0846     0.0032     0.0676     0.0302     0.1129     3.7580    48.3200     0.0645     0.5732
  153    3.040   1969.72     0.0908     0.0034     0.0588     0.0304     0.1178     3.8768    48.6400     0.0691     0.4885
  154    3.060   1970.69     0.0908     0.0036     0.0547     0.0306     0.1129     3.9174    48.9600     0.0640     0.3474
  155    3.080   1971.66     0.0926     0.0034     0.0593     0.0308     0.1179     3.7803    49.2800     0.0686     0.4293
  156    3.100   1972.60     0.0953     0.0038     0.0536     0.0310     0.1178     4.0883    49.6000     0.0682     0.3336
  157    3.120   1973.59     0.1016     0.0036     0.0552     0.0312     0.1247     3.5957    49.9200     0.0748     0.3172
  158    3.140   1974.56     0.1032     0.0038     0.0601     0.0314     0.1282     3.6366    50.2400     0.0780     0.3615
  159    3.160   1975.54     0.1066     0.0034     0.0568     0.0316     0.1314     3.1696    50.5600     0.0809     0.3400
  160    3.180   1976.50     0.1109     0.0036     0.0465     0.0318     0.1326     3.2732    50.8800     0.0817     0.2430
  161    3.200   1977.48     0.1146     0.0036     0.0401     0.0320     0.1322     3.1478    51.2000     0.0810     0.1238
  162    3.220   1978.44     0.1168     0.0037     0.0412     0.0322     0.1341     3.1925    51.5200     0.0826     0.1089
  163    3.240   1979.37     0.1171     0.0040     0.0480     0.0324     0.1364     3.4386    51.8400     0.0845     0.1589
  164    3.260   1980.34     0.1158     0.0037     0.0571     0.0326     0.1382     3.1672    52.1600     0.0861     0.2427
  165    3.280   1981.35     0.1148     0.0035     0.0686     0.0328     0.1424     3.0845    52.4800     0.0899     0.3664
  166    3.300   1982.32     0.1123     0.0031     0.0725     0.0330     0.1424     2.6828    52.8000     0.0896     0.4319
  167    3.320   1983.29     0.1109     0.0027     0.0740     0.0332     0.1418     2.4525    53.1200     0.0887     0.4543
  168    3.340   1984.22     0.1120     0.0026     0.0761     0.0334     0.1442     2.2945    53.4400     0.0908     0.4758
  169    3.360   1985.23     0.1173     0.0029     0.0763     0.0336     0.1496     2.5299    53.7600     0.0959     0.4532
  170    3.380   1986.20     0.1135     0.0031     0.0789     0.0338     0.1471     2.7377    54.0800     0.0930     0.4969
  171    3.400   1987.18     0.1225     0.0033     0.0644     0.0340     0.1516     2.7438    54.4000     0.0972     0.3622
  172    3.420   1988.13     0.1261     0.0037     0.0648     0.0342     0.1527     2.9375    54.7200     0.0980     0.2971
  173    3.440   1989.09     0.1260     0.0037     0.0605     0.0344     0.1525     2.9123    55.0400     0.0975     0.2936
  174    3.460   1990.06     0.1260     0.0043     0.0605     0.0346     0.1508     3.4809    55.3600     0.0955     0.2580
  175    3.480   1991.03     0.1322     0.0043     0.0659     0.0348     0.1596     3.2769    55.6800     0.1039     0.2921
  176    3.500   1992.00     0.1474     0.0043     0.0812     0.0350     0.1770     2.9943    56.0000     0.1210     0.2899
  177    3.520   1992.99     0.1590     0.0040     0.0862     0.0352     0.1954     2.5809    56.3200     0.1390     0.3702
  178    3.540   1993.94     0.1656     0.0043     0.0810     0.0354     0.2011     2.6395    56.6400     0.1444     0.3402
  179    3.560   1994.91     0.1679     0.0046     0.0757     0.0356     0.1989     2.8311    56.9600     0.1420     0.2696
  180    3.580   1995.85     0.1656     0.0049     0.0696     0.0358     0.1957     3.0227    57.2800     0.1384     0.2592
  181    3.600   1996.82     0.1631     0.0053     0.0646     0.0360     0.1904     3.2309    57.6000     0.1328     0.2186
  182    3.620   1997.82     0.1528     0.0044     0.0624     0.0362     0.1790     2.9123    57.9200     0.1211     0.2164
  183    3.640   1998.78     0.1490     0.0030     0.0555     0.0364     0.1718     1.9823    58.2400     0.1136     0.1571
  184    3.660   2009.45     0.1697     0.0054     0.0593     0.0366     0.1940     3.6474    58.5600     0.1355     0.1574
  185    3.680   2020.17     0.1905     0.0078     0.0631     0.0368     0.2165     5.2195    58.8800     0.1576     0.1583
  186    3.700   2029.91     0.2122     0.0085     0.0744     0.0370     0.2405     4.6748    59.2000     0.1813     0.1664
  187    3.720   2030.89     0.2358     0.0088     0.0710     0.0372     0.2661     3.8315    59.5200     0.2066     0.1690
  188    3.740   2031.85     0.2824     0.0093     0.0476     0.0374     0.3045     3.5356    59.8400     0.2446     0.0629
  189    3.760   2032.82     0.3467     0.0111     0.0538     0.0376     0.3676     3.3174    60.1600     0.3074     0.0392
  190    3.780   2033.79     0.3383     0.0134     0.0020     0.0378     0.3524     3.9194    60.4800     0.2919    -0.0151
  191    3.800   2034.77     0.3451     0.0145    -0.0382     0.0380     0.3322     4.2318    60.8000     0.2714    -0.2527
  192    3.820   2035.70     0.3501     0.0170    -0.0213     0.0382     0.3381     4.8145    61.1200     0.2770    -0.2413
  193    3.840   2036.67     0.3945     0.0189    -0.0291     0.0384     0.3845     5.0473    61.4400     0.3231    -0.1926
  194    3.860   2037.69     0.4891     0.0198    -0.0233     0.0386     0.4792     4.4201    61.7600     0.4174    -0.1507
  195    3.880   2038.66     0.5322     0.0202    -0.0172     0.0388     0.5220     3.8002    62.0800     0.4599    -0.1374
  196    3.900   2039.60     0.5502     0.0193     0.0092     0.0390     0.5509     3.7272    62.4000     0.4885    -0.0779
  197    3.920   2040.57     0.5921     0.0197     0.0354     0.0392     0.6032     3.3331    62.7200     0.5405    -0.0238
  198    3.940   2041.56     0.5888     0.0205     0.0323     0.0394     0.6033     3.4713    63.0400     0.5402    -0.0093
  199    3.960   2042.49     0.5746     0.0209    -0.0052     0.0396     0.5807     3.6063    63.3600     0.5173    -0.0494
  200    3.980   2043.48     0.5590     0.0223     0.0065     0.0398     0.5597     3.9762    63.6800     0.4960    -0.0769
  201    4.000   2044.42     0.5887     0.0203    -0.0011     0.0400     0.5880     3.5669    64.0000     0.5240    -0.0794
  202    4.020   2045.39     0.6513     0.0177     0.0268     0.0402     0.6562     2.7676    64.3200     0.5919    -0.0481
  203    4.040   2046.35     0.6495     0.0153     0.0610     0.0404     0.6740     2.3474    64.6400     0.6093     0.0294
  204    4.060   2047.35     0.6221     0.0138     0.0479     0.0406     0.6467     2.1945    64.9600     0.5817     0.0308
  205    4.080   2048.30     0.6045     0.0118     0.0502     0.0408     0.6293     1.9172    65.2800     0.5640     0.0322
  206    4.100   2049.23     0.5867     0.0109     0.0177     0.0410     0.5989     1.8714    65.6000     0.5333    -0.0225
  207    4.120   2050.20     0.6069     0.0125    -0.0009     0.0412     0.6095     2.0702    65.9200     0.5436    -0.0641
  208    4.140   2051.21     0.6219     0.0153    -0.0310     0.0414     0.6101     2.5261    66.2400     0.5439    -0.1275
  209    4.160   2052.15     0.6760     0.0196     0.0002     0.0416     0.6691     2.9896    66.5600     0.6025    -0.0967
  210    4.180   2053.13     0.6849     0.0208     0.0269     0.0418     0.6938     3.1490    66.8800     0.6269    -0.0328
  211    4.200   2054.07     0.7252     0.0225     0.0132     0.0420     0.7329     3.1665    67.2000     0.6657    -0.0356
  212    4.220   2055.04     0.7968     0.0224     0.0544     0.0422     0.8127     2.8681    67.5200     0.7451    -0.0063
  213    4.240   2055.99     0.8612     0.0212     0.1109     0.0424     0.9002     2.4943    67.8400     0.8323     0.0603
  214    4.260   2056.95     0.8223     0.0195     0.1445     0.0426     0.8836     2.2914    68.1600     0.8155     0.1271
  215    4.280   2057.89     0.7164     0.0174     0.0917     0.0428     0.7637     2.3871    68.4800     0.6952     0.0999
  216    4.300   2058.86     0.6695     0.0151     0.0345     0.0430     0.6924     2.2252    68.8000     0.6236     0.0185
  217    4.320   2059.89     0.6566     0.0140     0.0022     0.0432     0.6613     2.1165    69.1200     0.5922    -0.0542
  218    4.340   2060.83     0.6686     0.0130    -0.0261     0.0434     0.6626     1.9511    69.4400     0.5932    -0.0969
  219    4.360   2061.80     0.7088     0.0114    -0.0119     0.0436     0.6986     1.6410    69.7600     0.6289    -0.1077
  220    4.380   2062.80     0.5974     0.0118    -0.0221     0.0438     0.5914     1.8758    70.0800     0.5213    -0.1118
  221    4.400   2063.73     0.4910     0.0138    -0.0272     0.0440     0.4822     2.7374    70.4000     0.4118    -0.1581
  222    4.420   2064.71     0.5056     0.0156    -0.0635     0.0442     0.4840     3.0034    70.7200     0.4133    -0.2316
  223    4.440   2065.66     0.4416     0.0176    -0.0678     0.0444     0.4146     3.7999    71.0400     0.3436    -0.3163
  224    4.460   2066.61     0.3615     0.0189    -0.1092     0.0446     0.3187     4.9699    71.3600     0.2473    -0.6046
  225    4.480   2067.59     0.3027     0.0174    -0.0984     0.0448     0.2614     5.4330    71.6800     0.1898    -0.7593
  226    4.500   2068.58     0.2861     0.0169    -0.0851     0.0450     0.2453     6.4536    72.0000     0.1733    -0.8362
  227    4.520   2069.53     0.4277     0.0171    -0.0459     0.0452     0.4067     4.6330    72.3200     0.3344    -0.2908
  228    4.540   2070.50     0.5554     0.0166    -0.0116     0.0454     0.5384     3.2239    72.6400     0.4658    -0.1898
  229    4.560   2071.46     0.6886     0.0185     0.0737     0.0456     0.7064     2.8415    72.9600     0.6334    -0.0075
  230    4.580   2072.40     0.7947     0.0185     0.1500     0.0458     0.8468     2.4511    73.2800     0.7735     0.1004
  231    4.600   2073.40     0.8990     0.0200     0.2101     0.0460     0.9789     2.2681    73.6000     0.9053     0.1593
  232    4.620   2074.37     0.9266     0.0207     0.2725     0.0462     1.0340     2.2586    73.9200     0.9601     0.2182
  233    4.640   2075.31     0.9336     0.0215     0.2461     0.0464     1.0367     2.2876    74.2400     0.9624     0.2069
  234    4.660   2076.28     0.9538     0.0219     0.2980     0.0466     1.0750     2.3015    74.5600     1.0004     0.2420
  235    4.680   2077.28     0.8872     0.0223     0.2361     0.0468     1.0004     2.4434    74.8800     0.9255     0.2406
  236    4.700   2078.22     0.9051     0.0224     0.2049     0.0470     0.9888     2.5008    75.2000     0.9136     0.1667
  237    4.720   2079.19     0.9384     0.0222     0.2487     0.0472     1.0340     2.3929    75.5200     0.9584     0.1882
  238    4.740   2080.14     0.9832     0.0219     0.3052     0.0474     1.1055     2.2427    75.8400     1.0297     0.2365
  239    4.760   2081.11     0.9997     0.0202     0.3119     0.0476     1.1304     2.0282    76.1600     1.0542     0.2499
  240    4.780   2082.09     1.0035     0.0201     0.3379     0.0478     1.1406     2.0038    76.4800     1.0641     0.2618
  241    4.800   2083.05     1.0073     0.0201     0.3540     0.0480     1.1540     1.9955    76.8000     1.0772     0.2797
  242    4.820   2084.01     1.0117     0.0181     0.3726     0.0482     1.1656     1.7861    77.1200     1.0885     0.2924
  243    4.840   2084.98     1.0027     0.0181     0.3775     0.0484     1.1609     1.7955    77.4400     1.0835     0.3029
  244    4.860   2085.98     0.9736     0.0184     0.3761     0.0486     1.1322     1.8841    77.7600     1.0544     0.3119
  245    4.880   2086.95     0.9705     0.0209     0.3816     0.0488     1.1314     2.1558    78.0800     1.0533     0.3173
  246    4.900   2087.92     0.9429     0.0209     0.3614     0.0490     1.1015     2.1757    78.4000     1.0231     0.3211
  247    4.920   2088.89     0.8956     0.0194     0.3254     0.0492     1.0342     2.1533    78.7200     0.9555     0.2940
  248    4.940   2089.81     0.9369     0.0171     0.3222     0.0494     1.0717     1.8521    79.0400     0.9926     0.2734
  249    4.960   2090.81     0.9753     0.0164     0.3367     0.0496     1.1128     1.7098    79.3600     1.0335     0.2688
  250    4.980   2091.79     0.9823     0.0149     0.3569     0.0498     1.1334     1.5072    79.6800     1.0537     0.2940
  251    5.000   2092.75     0.9094     0.0145     0.2700     0.0500     1.0385     1.5407    80.0000     0.9585     0.2683
  252    5.020   2093.72     0.8089     0.0121     0.1573     0.0502     0.8879     1.4397    80.3200     0.8076     0.1700
  253    5.040   2094.70     0.7738     0.0118     0.0788     0.0504     0.8135     1.5239    80.6400     0.7328     0.0598
  254    5.060   2095.67     0.7699     0.0138     0.0564     0.0506     0.7976     1.7602    80.9600     0.7167     0.0212
  255    5.080   2096.63     0.7168     0.0182     0.0190     0.0508     0.7283     2.5075    81.2800     0.6470    -0.0364
  256    5.100   2097.57     0.7153     0.0191     0.0170     0.0510     0.7235     2.6933    81.6000     0.6419    -0.0489
  257    5.120   2098.54     0.6642     0.0193    -0.0194     0.0512     0.6610     2.8002    81.9200     0.5790    -0.1029
  258    5.140   2099.52     0.7096     0.0209    -0.0411     0.0514     0.6975     3.0454    82.2400     0.6153    -0.1298
  259    5.160   2100.51     0.6620     0.0193    -0.0382     0.0516     0.6415     2.8443    82.5600     0.5590    -0.1794
  260    5.180   2101.50     0.5992     0.0163    -0.0223     0.0518     0.5890     2.5930    82.8800     0.5061    -0.1504
  261    5.200   2102.47     0.4667     0.0116    -0.0781     0.0520     0.4456     2.2535    83.2000     0.3624    -0.2958
  262    5.220   2103.42     0.3697     0.0108    -0.0768     0.0522     0.3382     2.8317    83.5200     0.2547    -0.4990
  263    5.240   2104.37     0.3228     0.0123     0.0460     0.0524     0.3008     3.6853    83.8400     0.2169    -0.5064
  264    5.260   2105.36     0.3395     0.0148     0.0117     0.0526     0.3505     4.5571    84.1600     0.2663    -0.0978
  265    5.280   2106.33     0.4528     0.0187    -0.0153     0.0528     0.4437     4.4644    84.4800     0.3593    -0.2073
  266    5.300   2107.30     0.5824     0.0225     0.0482     0.0530     0.5937     4.0688    84.8000     0.5089    -0.0513
  267    5.320   2108.27     0.5692     0.0269     0.0730     0.0532     0.6000     4.5425    85.1200     0.5148     0.0389
  268    5.340   2109.26     0.6116     0.0306     0.1446     0.0534     0.6605     4.9963    85.4400     0.5751     0.1094
  269    5.360   2110.26     0.6074     0.0322     0.1709     0.0536     0.6796     5.3150    85.7600     0.5938     0.1992
  270    5.380   2111.21     0.4902     0.0335     0.1688     0.0538     0.5653     6.5923    86.0800     0.4793     0.2610
  271    5.400   2112.19     0.4724     0.0326     0.1588     0.0540     0.5373     6.8016    86.4000     0.4509     0.2227
  272    5.420   2113.13     0.4424     0.0306     0.1827     0.0542     0.5224     6.6144    86.7200     0.4357     0.3143
  273    5.440   2114.12     0.4557     0.0297     0.0800     0.0544     0.5003     6.1552    87.0400     0.4132     0.1203
  274    5.460   2115.07     0.5622     0.0282     0.0307     0.0546     0.5801     5.3430    87.3600     0.4927    -0.0220
  275    5.480   2116.05     0.6239     0.0259     0.0835     0.0548     0.6509     4.0855    87.6800     0.5632     0.0168
  276    5.500   2117.04     0.7178     0.0226     0.0770     0.0550     0.7513     3.4523    88.0000     0.6633     0.0380
  277    5.520   2118.01     0.7778     0.0215     0.1189     0.0552     0.8256     2.7676    88.3200     0.7373     0.0795
  278    5.540   2118.98     0.8551     0.0221     0.1473     0.0554     0.9080     2.8183    88.6400     0.8194     0.0863
  279    5.560   2119.93     0.8279     0.0227     0.2358     0.0556     0.9013     2.7883    88.9600     0.8124     0.1440
  280    5.580   2120.88     0.9437     0.0226     0.2803     0.0558     1.0586     2.4012    89.2800     0.9693     0.2246
  281    5.600   2121.86     1.0103     0.0240     0.3296     0.0560     1.1407     2.4667    89.6000     1.0511     0.2421
  282    5.620   2123.45     1.0663     0.0247     0.3929     0.0562     1.2283     2.3881    89.9200     1.1384     0.2894
  283    5.640   2135.38     1.0919     0.0264     0.4138     0.0564     1.2627     2.4752    90.2400     1.1724     0.2983
  284    5.660   2147.31     1.1175     0.0276     0.4339     0.0566     1.2971     2.5898    90.5600     1.2065     0.3073
  285    5.680   2151.44     1.1418     0.0281     0.4506     0.0568     1.3274     2.4684    90.8800     1.2365     0.3114
  286    5.700   2152.43     1.1563     0.0285     0.4812     0.0570     1.3527     2.4717    91.2000     1.2615     0.3253
  287    5.720   2153.41     1.1578     0.0284     0.4705     0.0572     1.3595     2.4505    91.5200     1.2680     0.3336
  288    5.740   2154.39     1.1568     0.0286     0.4988     0.0574     1.3588     2.4711    91.8400     1.2670     0.3344
  289    5.760   2155.34     1.1491     0.0282     0.5115     0.0576     1.3620     2.4530    92.1600     1.2699     0.3540
  290    5.780   2156.34     1.1471     0.0277     0.5161     0.0578     1.3649     2.4172    92.4800     1.2725     0.3621
  291    5.800   2157.29     1.1467     0.0271     0.5206     0.0580     1.3631     2.3620    92.8000     1.2703     0.3600
  292    5.820   2158.26     1.1396     0.0255     0.5364     0.0582     1.3605     2.2340    93.1200     1.2674     0.3690
  293    5.840   2159.24     1.1322     0.0231     0.5466     0.0584     1.3628     2.0301    93.4400     1.2694     0.3866
  294    5.860   2160.21     1.1378     0.0229     0.5580     0.0586     1.3700     2.0114    93.7600     1.2762     0.3872
  295    5.880   2161.20     1.1341     0.0231     0.5734     0.0588     1.3734     2.0382    94.0800     1.2793     0.3994
  296    5.900   2162.17     1.1133     0.0229     0.5695     0.0590     1.3550     2.0337    94.4000     1.2606     0.4097
  297    5.920   2163.12     1.0313     0.0241     0.4894     0.0592     1.2519     2.2665    94.7200     1.1572     0.4024
  298    5.940   2164.08     0.9454     0.0236     0.3870     0.0594     1.1218     2.4770    95.0400     1.0268     0.3507
  299    5.960   2165.04     1.0043     0.0235     0.3826     0.0596     1.1604     2.3819    95.3600     1.0651     0.2932
  300    5.980   2166.01     1.0704     0.0241     0.4148     0.0598     1.2413     2.2716    95.6800     1.1456     0.3029
  301    6.000   2166.98     1.0894     0.0245     0.4802     0.0600     1.2848     2.2502    96.0000     1.1888     0.3408
  302    6.020   2167.99     1.0821     0.0247     0.5059     0.0602     1.2943     2.2753    96.3200     1.1979     0.3713
  303    6.040   2168.97     1.0797     0.0242     0.5220     0.0604     1.2949     2.2457    96.6400     1.1983     0.3773
  304    6.060   2169.96     1.0908     0.0249     0.5464     0.0606     1.3145     2.2836    96.9600     1.2175     0.3877
  305    6.080   2170.91     1.0918     0.0246     0.5659     0.0608     1.3284     2.2576    97.2800     1.2311     0.4082
  306    6.100   2171.84     1.0936     0.0237     0.5675     0.0610     1.3308     2.1712    97.6000     1.2332     0.4084
  307    6.120   2172.78     1.0910     0.0230     0.5781     0.0612     1.3327     2.1109    97.9200     1.2348     0.4166
  308    6.140   2173.75     1.1001     0.0221     0.6054     0.0614     1.3450     2.0106    98.2400     1.2468     0.4185
  309    6.160   2174.76     1.1030     0.0207     0.6287     0.0616     1.3710     1.8673    98.5600     1.2724     0.4529
  310    6.180   2175.71     1.0977     0.0203     0.6341     0.0618     1.3557     1.8459    98.8800     1.2569     0.4397
  311    6.200   2176.71     1.0870     0.0193     0.6492     0.0620     1.3639     1.7746    99.2000     1.2647     0.4723
  312    6.220   2177.66     1.0910     0.0192     0.6775     0.0622     1.3677     1.7571    99.5200     1.2682     0.4704
  313    6.240   2178.66     1.0842     0.0188     0.6911     0.0624     1.3735     1.7356    99.8400     1.2737     0.4918
  314    6.260   2179.65     1.0854     0.0179     0.6782     0.0626     1.3738     1.6524   100.1600     1.2737     0.4901
  315    6.280   2180.62     1.0648     0.0178     0.6850     0.0628     1.3488     1.6685   100.4800     1.2483     0.4914
  316    6.300   2181.60     1.0610     0.0178     0.7139     0.0630     1.3586     1.6789   100.8000     1.2578     0.5132
  317    6.320   2182.53     1.0643     0.0183     0.7017     0.0632     1.3614     1.7137   101.1200     1.2603     0.5111
  318    6.340   2183.51     1.0541     0.0166     0.7128     0.0634     1.3532     1.5667   101.4400     1.2517     0.5183
  319    6.360   2184.51     1.0662     0.0149     0.7020     0.0636     1.3646     1.3969   101.7600     1.2628     0.5122
  320    6.380   2185.51     1.0701     0.0158     0.7036     0.0638     1.3669     1.4922   102.0800     1.2649     0.5084
  321    6.400   2186.46     1.1188     0.0160     0.6297     0.0640     1.3888     1.4411   102.4000     1.2864     0.4501
  322    6.420   2187.39     1.0836     0.0180     0.6730     0.0642     1.3748     1.6580   102.7200     1.2720     0.4947
  323    6.440   2188.34     1.1703     0.0187     0.6126     0.0644     1.4325     1.6184   103.0400     1.3295     0.4212
  324    6.460   2189.37     1.3332     0.0183     0.5014     0.0646     1.5645     1.4516   103.3600     1.4612     0.3343
  325    6.480   2190.35     1.7218     0.0194     0.4491     0.0648     1.9017     1.1570   103.6800     1.7980     0.2034
  326    6.500   2191.33     1.2262     0.0212     0.5392     0.0650     1.4392     1.5444   104.0000     1.3352     0.3311
  327    6.520   2192.33     1.0931     0.0237     0.6113     0.0652     1.3302     2.1159   104.3200     1.2259     0.4073
  328    6.540   2193.25     1.0360     0.0236     0.6400     0.0654     1.3087     2.2456   104.6400     1.2041     0.4849
  329    6.560   2194.24     0.9992     0.0221     0.6271     0.0656     1.2646     2.1813   104.9600     1.1597     0.4885
  330    6.580   2195.20     0.9675     0.0214     0.6133     0.0658     1.2256     2.1986   105.2800     1.1203     0.4899
  331    6.600   2196.12     0.9498     0.0209     0.6239     0.0660     1.2095     2.1980   105.6000     1.1039     0.5003
  332    6.620   2197.09     0.9424     0.0205     0.6327     0.0662     1.2082     2.1618   105.9200     1.1023     0.5141
  333    6.640   2198.06     0.9720     0.0185     0.6133     0.0664     1.2300     1.9547   106.2400     1.1237     0.4878
  334    6.660   2199.04     0.9314     0.0175     0.6247     0.0666     1.1996     1.8730   106.5600     1.0930     0.5231
  335    6.680   2200.00     0.9273     0.0171     0.6320     0.0668     1.1903     1.8359   106.8800     1.0834     0.5164
  336    6.700   2201.00     0.9247     0.0172     0.6435     0.0670     1.1934     1.8561   107.2000     1.0862     0.5274
  337    6.720   2201.99     0.9147     0.0178     0.6670     0.0672     1.1938     1.9509   107.5200     1.0862     0.5498
  338    6.740   2202.96     0.9116     0.0168     0.6721     0.0674     1.1937     1.8402   107.8400     1.0858     0.5565
  339    6.760   2203.89     0.9313     0.0172     0.6511     0.0676     1.2060     1.8577   108.1600     1.0978     0.5342
  340    6.780   2204.87     0.9264     0.0192     0.6446     0.0678     1.1914     2.0653   108.4800     1.0829     0.5201
  341    6.800   2205.83     0.9428     0.0190     0.6636     0.0680     1.2232     2.0279   108.8000     1.1144     0.5381
  342    6.820   2206.82     0.9700     0.0178     0.6376     0.0682     1.2419     1.8399   109.1200     1.1328     0.5113
  343    6.840   2207.82     1.0403     0.0163     0.6000     0.0684     1.2907     1.5788   109.4400     1.1812     0.4468
  344    6.860   2208.79     1.0880     0.0166     0.5317     0.0686     1.3114     1.5324   109.7600     1.2016     0.3856
  345    6.880   2209.79     1.0323     0.0178     0.5477     0.0688     1.2584     1.6975   110.0800     1.1484     0.4089
  346    6.900   2210.74     1.0137     0.0182     0.6267     0.0690     1.2599     1.8195   110.4000     1.1495     0.4501
  347    6.920   2211.73     1.0987     0.0168     0.6067     0.0692     1.3565     1.5697   110.7200     1.2458     0.4375
  348    6.940   2212.69     1.1843     0.0158     0.5783     0.0694     1.4332     1.3492   111.0400     1.3221     0.3958
  349    6.960   2213.64     1.1801     0.0153     0.5881     0.0696     1.4168     1.2789   111.3600     1.3054     0.3785
  350    6.980   2214.64     1.1312     0.0162     0.6481     0.0698     1.4016     1.4293   111.6800     1.2900     0.4450
  351    7.000   2215.58     1.1544     0.0157     0.6546     0.0700     1.4285     1.3842   112.0000     1.3165     0.4426
  352    7.020   2216.56     1.2062     0.0138     0.6579     0.0702     1.4845     1.1646   112.3200     1.3722     0.4318
  353    7.040   2217.53     1.2548     0.0124     0.6197     0.0704     1.5184     0.9916   112.6400     1.4058     0.3964
  354    7.060   2218.50     1.2602     0.0153     0.5838     0.0706     1.5138     1.2108   112.9600     1.4008     0.3805
  355    7.080   2219.44     1.2280     0.0186     0.6028     0.0708     1.4792     1.5087   113.2800     1.3659     0.3859
  356    7.100   2220.44     1.3185     0.0213     0.6381     0.0710     1.5831     1.6780   113.6000     1.4695     0.3810
  357    7.120   2221.40     1.6364     0.0223     0.6263     0.0712     1.9093     1.4297   113.9200     1.7954     0.3229
  358    7.140   2222.37     2.0301     0.0188     0.3880     0.0714     2.2169     0.9797   114.2400     2.1027     0.1779
  359    7.160   2223.33     2.1376     0.0161     0.3465     0.0716     2.2808     0.7530   114.5600     2.1662     0.1244
  360    7.180   2224.32     1.8887     0.0165     0.3852     0.0718     2.0415     0.8318   114.8800     1.9266     0.1518
  361    7.200   2225.28     1.5265     0.0168     0.4223     0.0720     1.7009     1.0331   115.2000     1.5857     0.2165
  362    7.220   2226.28     1.2581     0.0170     0.5108     0.0722     1.4584     1.2834   115.5200     1.3428     0.3014
  363    7.240   2227.24     1.1973     0.0159     0.5838     0.0724     1.4352     1.3210   115.8400     1.3194     0.3744
  364    7.260   2228.22     1.1794     0.0152     0.6036     0.0726     1.4317     1.2729   116.1600     1.3155     0.4015
  365    7.280   2229.15     1.1417     0.0159     0.6149     0.0728     1.3963     1.3946   116.4800     1.2798     0.4168
  366    7.300   2230.13     1.1297     0.0157     0.6278     0.0730     1.3940     1.3833   116.8000     1.2772     0.4355
  367    7.320   2231.12     1.1135     0.0150     0.6461     0.0732     1.3802     1.3263   117.1200     1.2631     0.4449
  368    7.340   2232.13     1.1087     0.0155     0.6576     0.0734     1.3855     1.4153   117.4400     1.2681     0.4620
  369    7.360   2233.08     1.1228     0.0160     0.6490     0.0736     1.3955     1.4271   117.7600     1.2777     0.4506
  370    7.380   2234.05     1.1335     0.0165     0.6441     0.0738     1.4041     1.4608   118.0800     1.2860     0.4435
  371    7.400   2235.03     1.1610     0.0159     0.6291     0.0740     1.4275     1.3839   118.4000     1.3091     0.4281
  372    7.420   2235.96     1.1764     0.0161     0.6447     0.0742     1.4415     1.3718   118.7200     1.3228     0.4211
  373    7.440   2236.97     1.1761     0.0159     0.6571     0.0744     1.4510     1.3494   119.0400     1.3320     0.4355
  374    7.460   2237.95     1.1581     0.0153     0.6545     0.0746     1.4359     1.3188   119.3600     1.3166     0.4457
  375    7.480   2238.90     1.1523     0.0163     0.6627     0.0748     1.4308     1.4199   119.6800     1.3111     0.4486
  376    7.500   2239.89     1.1839     0.0166     0.6548     0.0750     1.4620     1.4148   120.0000     1.3420     0.4374
  377    7.520   2240.82     1.2086     0.0172     0.6575     0.0752     1.4871     1.4317   120.3200     1.3668     0.4302
  378    7.540   2241.79     1.2506     0.0170     0.6414     0.0754     1.5222     1.3813   120.6400     1.4015     0.4075
  379    7.560   2242.79     1.2991     0.0158     0.6066     0.0756     1.5594     1.2303   120.9600     1.4384     0.3783
  380    7.580   2243.78     1.2637     0.0170     0.6165     0.0758     1.5155     1.3215   121.2800     1.3942     0.3756
  381    7.600   2244.70     1.2521     0.0177     0.6398     0.0760     1.5200     1.4055   121.6000     1.3984     0.4019
  382    7.620   2245.67     1.2520     0.0183     0.6623     0.0762     1.5248     1.4625   121.9200     1.4028     0.4087
  383    7.640   2246.63     1.2716     0.0197     0.6924     0.0764     1.5600     1.5597   122.2400     1.4377     0.4244
  384    7.660   2247.62     1.3822     0.0222     0.6500     0.0766     1.6622     1.6335   122.5600     1.5397     0.3836
  385    7.680   2248.60     1.4323     0.0222     0.6275     0.0768     1.7016     1.5546   122.8800     1.5787     0.3575
  386    7.700   2252.92     1.4645     0.0215     0.5683     0.0770     1.7114     1.4759   123.2000     1.5882     0.3217
  387    7.720   2264.55     1.4871     0.0201     0.5113     0.0772     1.7101     1.3804   123.5200     1.5866     0.2860
  388    7.740   2276.18     1.5097     0.0182     0.4649     0.0774     1.7088     1.2445   123.8400     1.5849     0.2502
  389    7.760   2279.08     1.3690     0.0162     0.4940     0.0776     1.5693     1.1557   124.1600     1.4452     0.2768
  390    7.780   2280.05     1.2491     0.0155     0.5959     0.0778     1.4820     1.2368   124.4800     1.3575     0.3511
  391    7.800   2281.04     1.2480     0.0171     0.6709     0.0780     1.5226     1.3781   124.8000     1.3978     0.4120
  392    7.820   2281.99     1.3065     0.0221     0.6890     0.0782     1.5942     1.7161   125.1200     1.4691     0.4132
  393    7.840   2282.99     1.4450     0.0280     0.6691     0.0784     1.7279     2.0172   125.4400     1.6024     0.3720
  394    7.860   2283.97     1.8461     0.0273     0.6056     0.0786     2.1102     1.6071   125.7600     1.9845     0.2787
  395    7.880   2284.97     2.4271     0.0255     0.4553     0.0788     2.6415     1.1324   126.0800     2.5154     0.1728
  396    7.900   2285.90     2.8552     0.0339     0.3383     0.0790     3.0113     1.2323   126.4000     2.8849     0.1016
  397    7.920   2286.88     3.0784     0.0293     0.2268     0.0792     3.1902     0.9625   126.7200     3.0635     0.0610
  398    7.940   2287.85     2.9459     0.0274     0.1638     0.0794     3.0141     0.9079   127.0400     2.8870     0.0287
  399    7.960   2288.86     2.5442     0.0287     0.2101     0.0796     2.6208     1.0564   127.3600     2.4935     0.0415
  400    7.980   2289.81     2.0019     0.0312     0.2932     0.0798     2.1227     1.4490   127.6800     1.9950     0.1041
  401    8.000   2290.74     1.5467     0.0326     0.3473     0.0800     1.6792     1.9601   128.0000     1.5512     0.1522
  402    8.020   2291.74     1.3039     0.0301     0.5158     0.0802     1.5016     2.2345   128.3200     1.3733     0.2845
  403    8.040   2292.68     1.2742     0.0232     0.5885     0.0804     1.5132     1.8271   128.6400     1.3845     0.3528
  404    8.060   2293.64     1.2825     0.0184     0.6038     0.0806     1.5352     1.4429   128.9600     1.4062     0.3705
  405    8.080   2294.61     1.2834     0.0197     0.6163     0.0808     1.5412     1.5313   129.2800     1.4120     0.3776
  406    8.100   2295.59     1.2711     0.0211     0.6188     0.0810     1.5317     1.6574   129.6000     1.4021     0.3848
  407    8.120   2296.55     1.3339     0.0202     0.5761     0.0812     1.5832     1.5536   129.9200     1.4533     0.3530
  408    8.140   2297.53     1.4328     0.0194     0.5610     0.0814     1.6690     1.3670   130.2400     1.5387     0.3126
  409    8.160   2298.49     1.4744     0.0188     0.5367     0.0816     1.7047     1.2840   130.5600     1.5741     0.2964
  410    8.180   2299.49     1.4441     0.0185     0.5402     0.0818     1.6714     1.2593   130.8800     1.5405     0.2983
  411    8.200   2300.43     1.3397     0.0142     0.6022     0.0820     1.5758     1.0421   131.2000     1.4446     0.3325
  412    8.220   2301.41     1.2932     0.0113     0.6554     0.0822     1.5627     0.8737   131.5200     1.4311     0.3909
  413    8.240   2302.40     1.3222     0.0163     0.6920     0.0824     1.6077     1.2453   131.8400     1.4759     0.4048
  414    8.260   2303.38     1.4837     0.0222     0.7310     0.0826     1.7844     1.5528   132.1600     1.6522     0.3837
  415    8.280   2304.35     1.9725     0.0246     0.7525     0.0828     2.2892     1.3251   132.4800     2.1567     0.3127
  416    8.300   2305.35     3.5836     0.0288     0.4822     0.0830     3.8463     0.8955   132.8000     3.7135     0.1480
  417    8.320   2306.33     6.1891     0.0323     0.0706     0.0832     6.2810     0.5744   133.1200     6.1479     0.0226
  418    8.340   2307.38     8.3939     0.0432    -0.1586     0.0834     8.3433     0.5432   133.4400     8.2098    -0.0248
  419    8.360   2308.31     8.5986     0.0719    -0.1622     0.0836     8.5296     0.8330   133.7600     8.3959    -0.0295
  420    8.380   2309.35     7.2491     0.1011    -0.1660     0.0838     7.1785     1.3032   134.0800     7.0444    -0.0358
  421    8.400   2310.30     5.7108     0.1081    -0.1471     0.0840     5.6447     1.7638   134.4000     5.5103    -0.0439
  422    8.420   2311.24     4.1080     0.1014    -0.1292     0.0842     4.0515     2.2859   134.7200     3.9168    -0.0559
  423    8.440   2312.24     3.2551     0.0913    -0.0349     0.0844     3.2158     2.6590   135.0400     3.0808    -0.0577
  424    8.460   2313.18     2.7051     0.0827     0.1959     0.0846     2.7796     2.8833   135.3600     2.6442     0.0366
  425    8.480   2314.18     2.1301     0.0729     0.2416     0.0848     2.2090     3.3005   135.6800     2.0733     0.0501
  426    8.500   2315.13     1.8252     0.0545     0.3685     0.0850     1.9628     2.9085   136.0000     1.8268     0.1331
  427    8.520   2316.11     1.7457     0.0337     0.4417     0.0852     1.9278     1.9171   136.3200     1.7915     0.1946
  428    8.540   2317.10     1.6271     0.0221     0.4862     0.0854     1.8210     1.3258   136.6400     1.6844     0.2236
  429    8.560   2318.02     1.4983     0.0186     0.5212     0.0856     1.7157     1.2100   136.9600     1.5788     0.2737
  430    8.580   2319.01     1.3856     0.0188     0.6043     0.0858     1.6239     1.3272   137.2800     1.4867     0.3241
  431    8.600   2319.99     1.3185     0.0189     0.6718     0.0860     1.5966     1.4182   137.6000     1.4590     0.3948
  432    8.620   2320.95     1.3209     0.0188     0.7275     0.0862     1.6165     1.4259   137.9200     1.4786     0.4176
  433    8.640   2321.94     1.3186     0.0186     0.7286     0.0864     1.6284     1.4171   138.2400     1.4902     0.4371
  434    8.660   2322.91     1.3184     0.0179     0.7022     0.0866     1.6167     1.3486   138.5600     1.4781     0.4218
  435    8.680   2323.87     1.3133     0.0171     0.7130     0.0868     1.6100     1.2976   138.8800     1.4711     0.4211
  436    8.700   2324.81     1.3085     0.0170     0.7376     0.0870     1.6123     1.2978   139.2000     1.4731     0.4320
  437    8.720   2325.81     1.3368     0.0168     0.7567     0.0872     1.6538     1.2654   139.5200     1.5143     0.4407
  438    8.740   2326.78     1.4282     0.0166     0.7518     0.0874     1.7410     1.1804   139.8400     1.6011     0.4106
  439    8.760   2327.74     1.4909     0.0147     0.7336     0.0876     1.8054     1.0051   140.1600     1.6652     0.3970
  440    8.780   2328.74     1.5494     0.0149     0.6820     0.0878     1.8425     0.9658   140.4800     1.7020     0.3584
  441    8.800   2329.69     1.5299     0.0159     0.6741     0.0880     1.8128     1.0358   140.8000     1.6720     0.3502
  442    8.820   2330.69     1.4788     0.0209     0.6824     0.0882     1.7655     1.3973   141.1200     1.6244     0.3660
  443    8.840   2331.66     1.5302     0.0222     0.7177     0.0884     1.8240     1.4974   141.4400     1.6826     0.3632
  444    8.860   2332.65     1.7172     0.0246     0.7091     0.0886     2.0285     1.4890   141.7600     1.8868     0.3461
  445    8.880   2333.60     1.9003     0.0280     0.5327     0.0888     2.1475     1.4673   142.0800     2.0054     0.2489
  446    8.900   2334.58     1.8329     0.0310     0.5599     0.0890     2.0519     1.6646   142.4000     1.9095     0.2266
  447    8.920   2335.55     1.7662     0.0358     0.5890     0.0892     2.0144     2.0434   142.7200     1.8717     0.2681
  448    8.940   2336.52     1.8238     0.0382     0.5984     0.0894     2.0785     2.0770   143.0400     1.9355     0.2671
  449    8.960   2337.46     1.8121     0.0375     0.5669     0.0896     2.0537     2.1101   143.3600     1.9104     0.2544
  450    8.980   2338.46     1.9056     0.0510     0.5781     0.0898     2.1442     2.6969   143.6800     2.0005     0.2390
  451    9.000   2339.44     2.0169     0.0581     0.5905     0.0900     2.2511     2.9081   144.0000     2.1071     0.2219
  452    9.020   2340.42     2.1467     0.0604     0.5827     0.0902     2.3825     2.8725   144.3200     2.2382     0.2105
  453    9.040   2341.40     2.4557     0.0712     0.4431     0.0904     2.6603     2.9729   144.6400     2.5156     0.1578
  454    9.060   2342.38     2.4543     0.0785     0.3569     0.0906     2.6067     3.1949   144.9600     2.4617     0.1106
  455    9.080   2343.36     2.5504     0.0784     0.4255     0.0908     2.7100     3.1015   145.2800     2.5647     0.1127
  456    9.100   2344.33     3.4395     0.0778     0.3544     0.0910     3.6302     2.3223   145.6000     3.4846     0.1054
  457    9.120   2345.31     5.5134     0.0707     0.0465     0.0912     5.5848     1.6050   145.9200     5.4389     0.0145
  458    9.140   2346.32     7.9849     0.0704    -0.1110     0.0914     7.9641     1.0269   146.2400     7.8179    -0.0180
  459    9.160   2347.34    10.6863     0.0784    -0.2473     0.0916    10.5955     0.8141   146.5600    10.4490    -0.0294
  460    9.180   2348.42    12.7313     0.0850    -0.2383     0.0918    12.6284     0.7138   146.8800    12.4815    -0.0270
  461    9.200   2349.42    14.0264     0.0898    -0.2314     0.0920    13.9311     0.6650   147.2000    13.7839    -0.0231
  462    9.220   2350.43    14.8167     0.0970    -0.2420     0.0922    14.7159     0.6683   147.5200    14.5683    -0.0228
  463    9.240   2351.46    15.3906     0.1124    -0.2409     0.0924    15.2899     0.7413   147.8400    15.1421    -0.0219
  464    9.260   2352.50    15.8085     0.1226    -0.2344     0.0926    15.7090     0.7839   148.1600    15.5608    -0.0212
  465    9.280   2353.53    16.3206     0.1293    -0.1825     0.0928    16.2354     0.8032   148.4800    16.0870    -0.0184
  466    9.300   2354.56    16.8161     0.1328    -0.1305     0.0930    16.7554     0.7953   148.8000    16.6066    -0.0143
  467    9.320   2355.56    17.1746     0.1374    -0.0889     0.0932    17.1312     0.8083   149.1200    16.9821    -0.0116
  468    9.340   2356.61    17.4746     0.1431    -0.0641     0.0934    17.4449     0.8244   149.4400    17.2955    -0.0095
  469    9.360   2357.65    17.4924     0.1479    -0.0416     0.0936    17.4729     0.8453   149.7600    17.3231    -0.0081
  470    9.380   2358.69    17.4316     0.1499    -0.0557     0.0938    17.4096     0.8598   150.0800    17.2595    -0.0085
  471    9.400   2359.67    17.3435     0.1506    -0.0294     0.0940    17.3290     0.8669   150.4000    17.1786    -0.0075
  472    9.420   2360.67    17.3155     0.1506    -0.0362     0.0942    17.3000     0.8690   150.7200    17.1493    -0.0076
  473    9.440   2361.68    17.2597     0.1510    -0.0227     0.0944    17.2513     0.8747   151.0400    17.1003    -0.0067
  474    9.460   2362.71    17.3202     0.1502    -0.0004     0.0946    17.3222     0.8674   151.3600    17.1708    -0.0052
  475    9.480   2363.76    17.5416     0.1511     0.0225     0.0948    17.5496     0.8626   151.6800    17.3979    -0.0044
  476    9.500   2364.76    17.8903     0.1513     0.0116     0.0950    17.8996     0.8483   152.0000    17.7476    -0.0041
  477    9.520   2365.79    18.3107     0.1512    -0.0123     0.0952    18.3122     0.8314   152.3200    18.1599    -0.0050
  478    9.540   2366.79    18.6917     0.1525    -0.0163     0.0954    18.6955     0.8210   152.6400    18.5429    -0.0047
  479    9.560   2367.77    18.9668     0.1529    -0.0342     0.0956    18.9509     0.8109   152.9600    18.7980    -0.0071
  480    9.580   2368.75    19.2523     0.1562    -0.0356     0.0958    19.2390     0.8182   153.2800    19.0858    -0.0067
  481    9.600   2369.70    19.5461     0.1605    -0.0401     0.0960    19.5299     0.8273   153.6000    19.3763    -0.0069
  482    9.620   2370.65    19.8450     0.1638    -0.0477     0.0962    19.8270     0.8319   153.9200    19.6731    -0.0071
  483    9.640   2371.58    20.1098     0.1670    -0.0550     0.0964    20.0853     0.8364   154.2400    19.9311    -0.0078
  484    9.660   2372.54    20.2603     0.1702    -0.0353     0.0966    20.2447     0.8410   154.5600    20.0901    -0.0067
  485    9.680   2373.48    20.2142     0.1699    -0.0358     0.0968    20.1966     0.8394   154.8800    20.0417    -0.0069
  486    9.700   2374.43    20.0988     0.1726    -0.0136     0.0970    20.0873     0.8574   155.2000    19.9321    -0.0062
  487    9.720   2379.88    20.1485     0.1723    -0.0069     0.0972    20.1447     0.8596   155.5200    19.9892    -0.0053
  488    9.740   2387.98    20.3135     0.1711    -0.0010     0.0974    20.3122     0.8537   155.8400    20.1563    -0.0050
  489    9.760   2396.08    20.4785     0.1739     0.0049     0.0976    20.4797     0.8675   156.1600    20.3235    -0.0047
  490    9.780   2400.32    20.6639     0.1770    -0.0093     0.0978    20.6577     0.8599   156.4800    20.5012    -0.0055
  491    9.800   2401.27    20.8560     0.1773    -0.0286     0.0980    20.8397     0.8532   156.8000    20.6829    -0.0066
  492    9.820   2402.24    21.0399     0.1758    -0.0248     0.0982    21.0292     0.8396   157.1200    20.8721    -0.0059
  493    9.840   2403.21    21.3803     0.1754    -0.0236     0.0984    21.3709     0.8259   157.4400    21.2134    -0.0057
  494    9.860   2404.13    21.6282     0.1768    -0.0439     0.0986    21.6119     0.8208   157.7600    21.4541    -0.0064
  495    9.880   2405.07    21.7794     0.1836    -0.0444     0.0988    21.7627     0.8458   158.0800    21.6046    -0.0064
  496    9.900   2405.97    21.9043     0.1874    -0.0250     0.0990    21.8838     0.8574   158.4000    21.7254    -0.0068
  497    9.920   2406.95    21.9885     0.1867    -0.0404     0.0992    21.9737     0.8504   158.7200    21.8150    -0.0062
  498    9.940   2407.86    22.0403     0.1875    -0.0502     0.0994    22.0196     0.8518   159.0400    21.8606    -0.0068
  499    9.960   2408.81    21.8047     0.1859    -0.0559     0.0996    21.7835     0.8487   159.3600    21.6241    -0.0069
  500    9.980   2409.75    21.4201     0.1875    -0.0520     0.0998    21.3931     0.8683   159.6800    21.2334    -0.0077
  501   10.000   2410.69    21.2625     0.1854    -0.0068     0.1000    21.2557     0.8707   160.0000    21.0957    -0.0055
  502   10.020   2411.62    21.4057     0.1819     0.0101     0.1002    21.4094     0.8532   160.3200    21.2491    -0.0043
  503   10.040   2412.54    21.6561     0.1812    -0.0405     0.1004    21.6484     0.8410   160.6400    21.4878    -0.0055
  504   10.060   2413.49    21.8318     0.1828    -0.0293     0.1006    21.8117     0.8405   160.9600    21.6508    -0.0069
  505   10.080   2414.41    21.8133     0.1829    -0.0256     0.1008    21.8023     0.8373   161.2800    21.6410    -0.0059
  506   10.100   2415.36    21.8616     0.1843    -0.0282     0.1010    21.8484     0.8453   161.6000    21.6868    -0.0061
  507   10.120   2416.30    22.0789     0.1851    -0.0272     0.1012    22.0640     0.8421   161.9200    21.9021    -0.0062
  508   10.140   2417.25    22.3030     0.1872    -0.0015     0.1014    22.3006     0.8437   162.2400    22.1383    -0.0048
  509   10.160   2418.17    22.5033     0.1878    -0.0070     0.1016    22.5019     0.8388   162.5600    22.3394    -0.0047
  510   10.180   2419.12    22.6825     0.1902    -0.0004     0.1018    22.6803     0.8409   162.8800    22.5174    -0.0048
  511   10.200   2420.08    22.6906     0.1899     0.0047     0.1020    22.6934     0.8366   163.2000    22.5302    -0.0042
  512   10.220   2421.01    22.5401     0.1846    -0.0095     0.1022    22.5351     0.8162   163.5200    22.3716    -0.0051
  513   10.240   2421.96    22.3885     0.1798    -0.0204     0.1024    22.3805     0.8002   163.8400    22.2166    -0.0055
  514   10.260   2422.90    22.1398     0.1727     0.0144     0.1026    22.1433     0.7751   164.1600    21.9791    -0.0043
  515   10.280   2423.84    21.7875     0.1697    -0.0229     0.1028    21.7845     0.7703   164.4800    21.6200    -0.0051
  516   10.300   2424.78    21.3748     0.1618    -0.0415     0.1030    21.3700     0.7482   164.8000    21.2052    -0.0054
  517   10.320   2425.73    20.9269     0.1511    -0.0443     0.1032    20.9045     0.7197   165.1200    20.7394    -0.0075
  518   10.340   2426.65    20.4900     0.1371    -0.0483     0.1034    20.4729     0.6633   165.4400    20.3075    -0.0071
  519   10.360   2427.56    20.1689     0.1324    -0.0562     0.1036    20.1436     0.6513   165.7600    19.9778    -0.0082
  520   10.380   2428.48    19.7156     0.1199    -0.0658     0.1038    19.6937     0.6033   166.0800    19.5277    -0.0080
  521   10.400   2429.42    19.0707     0.1127    -0.1523     0.1040    19.0205     0.5787   166.4000    18.8541    -0.0119
  522   10.420   2430.34    18.2346     0.1116    -0.1965     0.1042    18.1525     0.6108   166.7200    17.9858    -0.0167
  523   10.440   2431.25    17.7263     0.1191    -0.1313     0.1044    17.6601     0.6646   167.0400    17.4931    -0.0150
  524   10.460   2432.19    17.2920     0.1303    -0.1425     0.1046    17.2348     0.7457   167.3600    17.0674    -0.0141
  525   10.480   2433.12    16.9662     0.1436    -0.1983     0.1048    16.8904     0.8381   167.6800    16.7227    -0.0171
  526   10.500   2434.03    16.6082     0.1540    -0.2207     0.1050    16.5204     0.9200   168.0000    16.3524    -0.0192
  527   10.520   2434.94    16.3655     0.1561    -0.2079     0.1052    16.2756     0.9489   168.3200    16.1073    -0.0198
  528   10.540   2435.89    16.2238     0.1546    -0.1846     0.1054    16.1411     0.9495   168.6400    15.9725    -0.0189
  529   10.560   2436.81    15.9500     0.1488    -0.1595     0.1056    15.8804     0.9275   168.9600    15.7114    -0.0173
  530   10.580   2437.81    15.9227     0.1460    -0.1384     0.1058    15.8630     0.9201   169.2800    15.6937    -0.0158
  531   10.600   2438.77    16.0741     0.1462    -0.1181     0.1060    16.0209     0.9130   169.6000    15.8513    -0.0147
  532   10.620   2439.70    16.0292     0.1520    -0.0763     0.1062    15.9864     0.9477   169.9200    15.8165    -0.0132
  533   10.640   2440.64    15.8848     0.1557    -0.0523     0.1064    15.8618     0.9797   170.2400    15.6916    -0.0103
  534   10.660   2441.54    15.7344     0.1514    -0.0194     0.1066    15.7228     0.9597   170.5600    15.5523    -0.0086
  535   10.680   2442.50    15.4565     0.1419    -0.0280     0.1068    15.4454     0.9167   170.8800    15.2745    -0.0087
  536   10.700   2443.50    15.2456     0.1406    -0.0130     0.1070    15.2360     0.9196   171.2000    15.0648    -0.0086
  537   10.720   2444.52    15.2233     0.1369    -0.0155     0.1072    15.2198     0.9008   171.5200    15.0483    -0.0077
  538   10.740   2445.51    15.3847     0.1352    -0.0212     0.1074    15.3705     0.8839   171.8400    15.1987    -0.0093
  539   10.760   2446.51    15.6713     0.1327    -0.0306     0.1076    15.6591     0.8533   172.1600    15.4869    -0.0088
  540   10.780   2447.44    16.0104     0.1282    -0.0567     0.1078    15.9905     0.8088   172.4800    15.8180    -0.0098
  541   10.800   2448.43    16.2244     0.1309    -0.0752     0.1080    16.1967     0.8119   172.8000    16.0239    -0.0109
  542   10.820   2449.35    16.2760     0.1359    -0.0891     0.1082    16.2377     0.8357   173.1200    16.0645    -0.0124
  543   10.840   2450.31    16.3149     0.1394    -0.1039     0.1084    16.2708     0.8560   173.4400    16.0973    -0.0133
  544   10.860   2451.21    16.3595     0.1466    -0.0907     0.1086    16.3244     0.8969   173.7600    16.1506    -0.0119
  545   10.880   2452.17    16.3819     0.1501    -0.0963     0.1088    16.3389     0.9158   174.0800    16.1648    -0.0131
  546   10.900   2453.11    16.4530     0.1501    -0.0875     0.1090    16.4172     0.9153   174.4000    16.2428    -0.0120
  547   10.920   2454.05    16.4595     0.1486    -0.0975     0.1092    16.4195     0.9017   174.7200    16.2447    -0.0126
  548   10.940   2455.00    16.3237     0.1456    -0.0739     0.1094    16.2842     0.8869   175.0400    16.1092    -0.0126
  549   10.960   2455.92    16.0275     0.1405    -0.0994     0.1096    15.9859     0.8728   175.3600    15.8106    -0.0132
  550   10.980   2456.84    15.6517     0.1363    -0.0792     0.1098    15.6118     0.8620   175.6800    15.4361    -0.0133
  551   11.000   2457.81    15.2592     0.1326    -0.0826     0.1100    15.2252     0.8567   176.0000    15.0492    -0.0127
  552   11.020   2458.71    14.7920     0.1516    -0.0683     0.1102    14.7612     1.0153   176.3200    14.5849    -0.0126
  553   11.040   2459.66    14.5285     0.1677    -0.0495     0.1104    14.5059     1.1474   176.6400    14.3293    -0.0114
  554   11.060   2460.56    14.4843     0.1758    -0.0262     0.1106    14.4680     1.2159   176.9600    14.2910    -0.0105
  555   11.080   2461.53    14.8923     0.1921    -0.0304     0.1108    14.8843     1.3111   177.2800    14.7070    -0.0088
  556   11.100   2462.52    16.0648     0.1811    -0.0359     0.1110    16.0505     1.1691   177.6000    15.8729    -0.0091
  557   11.120   2463.47    17.6347     0.1500    -0.2456     0.1112    17.5723     0.8900   177.9200    17.3944    -0.0149
  558   11.140   2464.45    18.9942     0.1287    -0.3445     0.1114    18.8552     0.6797   178.2400    18.6769    -0.0237
  559   11.160   2465.35    19.9853     0.0977    -0.3526     0.1116    19.8369     0.5035   178.5600    19.6583    -0.0236
  560   11.180   2466.34    20.1187     0.0958    -0.3508     0.1118    19.9711     0.4755   178.8800    19.7922    -0.0234
  561   11.200   2467.23    19.0566     0.1495    -0.3433     0.1120    18.9102     0.7595   179.2000    18.7310    -0.0246
  562   11.220   2468.15    17.8690     0.1923    -0.3267     0.1122    17.7293     1.0466   179.5200    17.5498    -0.0254
  563   11.240   2469.05    16.2776     0.2337    -0.3189     0.1124    16.1438     1.3868   179.8400    15.9639    -0.0270
  564   11.260   2469.97    13.8285     0.2459    -0.3340     0.1126    13.6908     1.7294   180.1600    13.5106    -0.0327
  565   11.280   2470.93    11.0729     0.2193    -0.3390     0.1128    10.9306     1.9135   180.4800    10.7501    -0.0422
  566   11.300   2471.88     9.0157     0.1781    -0.3169     0.1130     8.8794     1.9548   180.8000     8.6986    -0.0503
  567   11.320   2472.89     8.0999     0.1537    -0.2961     0.1132     7.9745     1.8787   181.1200     7.7933    -0.0529
  568   11.340   2473.92     7.3332     0.1375    -0.2954     0.1134     7.2080     1.8581   181.4400     7.0265    -0.0586
  569   11.360   2474.94     6.8143     0.1165    -0.2734     0.1136     6.6956     1.6995   181.7600     6.5139    -0.0608
  570   11.380   2475.95     6.5216     0.1103    -0.2463     0.1138     6.4146     1.6892   182.0800     6.2325    -0.0591
  571   11.400   2476.93     6.3965     0.1093    -0.2499     0.1140     6.2928     1.7060   182.4000     6.1104    -0.0591
  572   11.420   2477.93     6.2876     0.1263    -0.2358     0.1142     6.1864     2.0081   182.7200     6.0037    -0.0591
  573   11.440   2478.93     6.4541     0.1451    -0.2046     0.1144     6.3612     2.2627   183.0400     6.1781    -0.0544
  574   11.460   2479.94     6.9893     0.1511    -0.1804     0.1146     6.9110     2.1998   183.3600     6.7276    -0.0448
  575   11.480   2480.92     7.8653     0.1312    -0.1978     0.1148     7.7854     1.6980   183.6800     7.6017    -0.0402
  576   11.500   2481.89     8.6485     0.1170    -0.1940     0.1150     8.5653     1.3705   184.0000     8.3813    -0.0374
  577   11.520   2482.90     9.3249     0.1027    -0.2468     0.1152     9.2301     1.1112   184.3200     9.0458    -0.0377
  578   11.540   2483.90     9.7894     0.0928    -0.2833     0.1154     9.6734     0.9529   184.6400     9.4888    -0.0413
  579   11.560   2484.93     9.9269     0.0971    -0.2631     0.1156     9.8097     0.9781   184.9600     9.6248    -0.0410
  580   11.580   2485.93     9.6306     0.1204    -0.2639     0.1158     9.5199     1.2400   185.2800     9.3346    -0.0407
  581   11.600   2486.90     8.8993     0.1568    -0.2632     0.1160     8.7893     1.7480   185.6000     8.6037    -0.0439
  582   11.620   2487.86     8.1005     0.1517    -0.2705     0.1162     7.9876     1.8602   185.9200     7.8017    -0.0494
  583   11.640   2488.86     7.3318     0.1464    -0.2598     0.1164     7.2189     1.9716   186.2400     7.0326    -0.0548
  584   11.660   2489.87     6.6998     0.1412    -0.2341     0.1166     6.5977     2.0831   186.5600     6.4111    -0.0561
  585   11.680   2490.87     6.2536     0.1466    -0.2333     0.1168     6.1552     2.3217   186.8800     5.9683    -0.0588
  586   11.700   2491.85     5.9878     0.1600    -0.2419     0.1170     5.8859     2.6591   187.2000     5.6987    -0.0631
  587   11.720   2497.80     5.9497     0.1552    -0.1972     0.1172     5.8601     2.6143   187.5200     5.6726    -0.0584
  588   11.740   2506.86     5.9710     0.1545    -0.1504     0.1174     5.9010     2.6027   187.8400     5.7132    -0.0498
  589   11.760   2515.93     5.9923     0.1590    -0.1036     0.1176     5.9420     2.6780   188.1600     5.7538    -0.0413
  590   11.780   2520.83     5.7486     0.1716    -0.1814     0.1178     5.6762     2.9491   188.4800     5.4877    -0.0529
  591   11.800   2521.83     5.2365     0.1686    -0.2208     0.1180     5.1518     3.1728   188.8000     4.9630    -0.0644
  592   11.820   2522.80     5.1299     0.1554    -0.2153     0.1182     5.0335     3.0129   189.1200     4.8444    -0.0718
  593   11.840   2523.79     4.4450     0.1429    -0.1852     0.1184     4.3632     3.0854   189.4400     4.1738    -0.0750
  594   11.860   2524.81     4.1556     0.1489    -0.1669     0.1186     4.0851     3.5684   189.7600     3.8954    -0.0735
  595   11.880   2525.76     4.4414     0.1458    -0.1785     0.1188     4.3626     3.3591   190.0800     4.1725    -0.0734
  596   11.900   2526.75     4.6151     0.1289    -0.1311     0.1190     4.5453     2.8127   190.4000     4.3549    -0.0655
  597   11.920   2527.72     4.4412     0.1078    -0.0310     0.1192     4.4126     2.3823   190.7200     4.2218    -0.0443
  598   11.940   2528.68     3.9840     0.1150     0.0266     0.1194     3.9992     2.8229   191.0400     3.8082    -0.0217
  599   11.960   2529.67     3.6054     0.1261     0.0146     0.1196     3.5962     3.4694   191.3600     3.4048    -0.0417
  600   11.980   2530.68     3.7737     0.1334     0.2171     0.1198     3.8452     3.6061   191.6800     3.6535     0.0134
  601   12.000   2531.63     4.0025     0.1243     0.1640     0.1200     4.0841     3.1251   192.0000     3.8921     0.0191
  602   12.020   2532.63     4.1444     0.1261     0.2282     0.1202     4.2189     3.0672   192.3200     4.0266     0.0141
  603   12.040   2533.63     4.1794     0.1281     0.3840     0.1204     4.3307     3.0592   192.6400     4.1381     0.0579
  604   12.060   2534.59     4.0738     0.1296     0.4304     0.1206     4.2426     3.1705   192.9600     4.0497     0.0695
  605   12.080   2535.57     3.8484     0.1280     0.5559     0.1208     4.0619     3.2747   193.2800     3.8686     0.1004
  606   12.100   2536.55     3.6650     0.1180     0.6630     0.1210     3.9231     3.2179   193.6000     3.7295     0.1323
  607   12.120   2537.55     3.6177     0.1205     0.7590     0.1212     3.9256     3.3164   193.9200     3.7317     0.1640
  608   12.140   2538.56     3.7437     0.1154     0.7668     0.1214     4.0704     3.1539   194.2400     3.8761     0.1694
  609   12.160   2539.53     4.0327     0.1038     0.6584     0.1216     4.3226     2.6072   194.5600     4.1281     0.1379
  610   12.180   2540.51     4.1978     0.0919     0.5759     0.1218     4.4503     2.1859   194.8800     4.2554     0.1126
  611   12.200   2541.51     4.0360     0.0848     0.6365     0.1220     4.3003     2.0771   195.2000     4.1051     0.1236
  612   12.220   2542.49     3.7370     0.0838     0.6544     0.1222     4.0145     2.2116   195.5200     3.8190     0.1411
  613   12.240   2543.51     3.5110     0.0895     0.6997     0.1224     3.7939     2.5659   195.8400     3.5980     0.1531
  614   12.260   2544.45     3.6988     0.0925     0.6540     0.1226     3.9856     2.5196   196.1600     3.7894     0.1480
  615   12.280   2545.44     3.9319     0.1001     0.6403     0.1228     4.2110     2.5765   196.4800     4.0145     0.1350
  616   12.300   2546.40     4.3527     0.1281     0.5772     0.1230     4.5966     2.9836   196.8000     4.3998     0.1041
  617   12.320   2547.45     5.1720     0.1740     0.5087     0.1232     5.3991     3.4385   197.1200     5.2020     0.0806
  618   12.340   2548.46     6.0494     0.2131     0.4273     0.1234     6.2362     3.5460   197.4400     6.0388     0.0533
  619   12.360   2549.43     6.7934     0.2166     0.4213     0.1236     6.9674     3.2189   197.7600     6.7697     0.0429
  620   12.380   2550.41     7.4020     0.2256     0.2108     0.1238     7.5274     3.1807   198.0800     7.3293     0.0240
  621   12.400   2551.42     8.1933     0.2225    -0.0362     0.1240     8.2095     2.8545   198.4000     8.0111    -0.0105
  622   12.420   2552.43     9.3121     0.2082    -0.2281     0.1242     9.2358     2.3386   198.7200     9.0371    -0.0338
  623   12.440   2553.49    10.3839     0.1858    -0.3068     0.1244    10.2654     1.8083   199.0400    10.0663    -0.0404
  624   12.460   2554.49    11.2734     0.1543    -0.3258     0.1246    11.1382     1.3780   199.3600    10.9388    -0.0408
  625   12.480   2555.49    11.6496     0.1410    -0.3441     0.1248    11.5085     1.2110   199.6800    11.3088    -0.0407
  626   12.500   2556.55    11.7426     0.1455    -0.3524     0.1250    11.5956     1.2397   200.0000    11.3956    -0.0417
  627   12.520   2557.56    11.7925     0.1589    -0.3556     0.1252    11.6436     1.3485   200.3200    11.4433    -0.0419
  628   12.540   2558.53    11.7850     0.1788    -0.3584     0.1254    11.6348     1.5174   200.6400    11.4341    -0.0422
  629   12.560   2559.52    11.8192     0.1744    -0.3576     0.1256    11.6687     1.4780   200.9600    11.4678    -0.0422
  630   12.580   2560.54    11.7887     0.1579    -0.3588     0.1258    11.6383     1.3346   201.2800    11.4370    -0.0423
  631   12.600   2561.53    11.8917     0.1329    -0.3589     0.1260    11.7408     1.1194   201.6000    11.5392    -0.0421
  632   12.620   2562.57    12.1493     0.0951    -0.3566     0.1262    11.9991     0.7847   201.9200    11.7972    -0.0410
  633   12.640   2563.60    12.2902     0.0829    -0.3550     0.1264    12.1410     0.6746   202.2400    11.9388    -0.0403
  634   12.660   2564.61    12.3082     0.0917    -0.3530     0.1266    12.1598     0.7448   202.5600    11.9573    -0.0401
  635   12.680   2565.61    12.2203     0.1098    -0.3524     0.1268    12.0722     0.8973   202.8800    11.8693    -0.0404
  636   12.700   2566.61    11.7513     0.1351    -0.3530     0.1270    11.6032     1.1430   203.2000    11.4000    -0.0421
  637   12.720   2567.63    11.1095     0.1624    -0.3542     0.1272    10.9609     1.4568   203.5200    10.7574    -0.0447
  638   12.740   2568.61    10.3733     0.1730    -0.3541     0.1274    10.2245     1.6593   203.8400    10.0207    -0.0481
  639   12.760   2569.60     9.8069     0.1805    -0.3525     0.1276     9.6585     1.8116   204.1600     9.4544    -0.0509
  640   12.780   2570.60     9.5654     0.1863    -0.3494     0.1278     9.4182     1.9458   204.4800     9.2137    -0.0519
  641   12.800   2571.60     9.5724     0.1967    -0.3455     0.1280     9.4266     2.0563   204.8000     9.2218    -0.0515
  642   12.820   2572.64     9.5380     0.1870    -0.3401     0.1282     9.3944     1.9588   205.1200     9.1893    -0.0512
  643   12.840   2573.64     9.4302     0.1769    -0.3318     0.1284     9.2890     1.8750   205.4400     9.0836    -0.0511
  644   12.860   2574.64     9.4865     0.1602    -0.3156     0.1286     9.3517     1.6914   205.7600     9.1459    -0.0492
  645   12.880   2575.71     9.5766     0.1499    -0.3105     0.1288     9.4466     1.5695   206.0800     9.2405    -0.0474
  646   12.900   2576.69     9.9587     0.1459    -0.3236     0.1290     9.8243     1.4676   206.4000     9.6179    -0.0467
  647   12.920   2577.70    10.1704     0.1347    -0.3230     0.1292    10.0341     1.3273   206.7200     9.8274    -0.0462
  648   12.940   2578.69    10.1819     0.1078    -0.3198     0.1294    10.0469     1.0583   207.0400     9.8398    -0.0458
  649   12.960   2579.73    10.3004     0.0987    -0.3190     0.1296    10.1666     0.9605   207.3600     9.9592    -0.0450
  650   12.980   2580.71    10.6352     0.1080    -0.3246     0.1298    10.4994     1.0219   207.6800    10.2918    -0.0440
  651   13.000   2581.76    10.9181     0.1119    -0.3299     0.1300    10.7804     1.0278   208.0000    10.5724    -0.0433
  652   13.020   2582.70    10.7512     0.1142    -0.3341     0.1302    10.6112     1.0568   208.3200    10.4029    -0.0446
  653   13.040   2583.69    10.2996     0.1197    -0.3326     0.1304    10.1593     1.1549   208.6400     9.9507    -0.0467
  654   13.060   2584.71     9.7004     0.1399    -0.3289     0.1306     9.5619     1.4309   208.9600     9.3530    -0.0492
  655   13.080   2585.67     9.0632     0.1618    -0.3295     0.1308     8.9249     1.7675   209.2800     8.7157    -0.0528
  656   13.100   2586.68     8.4632     0.1707    -0.3266     0.1310     8.3253     1.9957   209.6000     8.1157    -0.0566
  657   13.120   2587.65     8.1848     0.1612    -0.3127     0.1312     8.0508     1.9663   209.9200     7.8409    -0.0574
  658   13.140   2588.65     7.7134     0.1716    -0.2840     0.1314     7.5886     2.2047   210.2400     7.3783    -0.0581
  659   13.160   2589.67     7.2395     0.1933    -0.2564     0.1316     7.1317     2.6478   210.5600     6.9211    -0.0561
  660   13.180   2590.64     6.6962     0.1967    -0.2571     0.1318     6.5864     2.9220   210.8800     6.3755    -0.0617
  661   13.200   2591.64     6.1258     0.1792    -0.2522     0.1320     6.0203     2.8921   211.2000     5.8091    -0.0660
  662   13.220   2592.63     5.8604     0.1561    -0.2399     0.1322     5.7586     2.6522   211.5200     5.5471    -0.0675
  663   13.240   2593.67     5.9411     0.1429    -0.2521     0.1324     5.8366     2.4123   211.8400     5.6247    -0.0678
  664   13.260   2594.61     5.9238     0.1494    -0.2617     0.1326     5.8156     2.5224   212.1600     5.6035    -0.0696
  665   13.280   2595.64     6.1294     0.1439    -0.2761     0.1328     6.0160     2.3645   212.4800     5.8035    -0.0694
  666   13.300   2596.64     6.4181     0.1222    -0.2752     0.1330     6.3012     1.9119   212.8000     6.0884    -0.0676
  667   13.320   2597.64     6.5528     0.1033    -0.2658     0.1332     6.4396     1.5792   213.1200     6.2264    -0.0647
  668   13.340   2598.62     6.4990     0.1130    -0.2606     0.1334     6.3893     1.7344   213.4400     6.1758    -0.0639
  669   13.360   2599.62     6.4911     0.1143    -0.2481     0.1336     6.3842     1.7640   213.7600     6.1704    -0.0629
  670   13.380   2600.65     6.6113     0.1350    -0.2002     0.1338     6.5196     2.0468   214.0800     6.3055    -0.0558
  671   13.400   2601.63     6.4924     0.1547    -0.1600     0.1340     6.4221     2.3677   214.4000     6.2077    -0.0486
  672   13.420   2602.62     5.9465     0.1511    -0.1407     0.1342     5.8819     2.5049   214.7200     5.6672    -0.0508
  673   13.440   2603.63     5.3139     0.1352    -0.1502     0.1344     5.2563     2.4850   215.0400     5.0412    -0.0540
  674   13.460   2604.60     4.8335     0.1175    -0.1698     0.1346     4.7614     2.4209   215.3600     4.5461    -0.0674
  675   13.480   2605.59     5.3629     0.1048    -0.1613     0.1348     5.2973     2.0261   215.6800     5.0816    -0.0574
  676   13.500   2606.62     6.4462     0.1007    -0.2006     0.1350     6.3680     1.6160   216.0000     6.1520    -0.0522
  677   13.520   2607.60     7.0929     0.0993    -0.2319     0.1352     6.9999     1.4110   216.3200     6.7836    -0.0526
  678   13.540   2608.56     6.7935     0.1077    -0.2335     0.1354     6.6940     1.5441   216.6400     6.4774    -0.0575
  679   13.560   2609.55     5.9715     0.1203    -0.2297     0.1356     5.8743     1.9675   216.9600     5.6574    -0.0649
  680   13.580   2610.54     5.1520     0.1279    -0.2192     0.1358     5.0581     2.4300   217.2800     4.8409    -0.0743
  681   13.600   2611.53     4.4148     0.1254    -0.2076     0.1360     4.3253     2.8428   217.6000     4.1077    -0.0851
  682   13.620   2612.52     3.6431     0.1229    -0.1526     0.1362     3.5682     3.2556   217.9200     3.3502    -0.0938
  683   13.640   2613.49     3.0234     0.1144    -0.0781     0.1364     2.9787     3.5484   218.2400     2.7605    -0.0877
  684   13.660   2614.48     2.4579     0.1031     0.0388     0.1366     2.4564     3.9649   218.5600     2.2379    -0.0623
  685   13.680   2615.46     2.4910     0.1067     0.1648     0.1368     2.5441     4.4580   218.8800     2.3252    -0.0052
  686   13.700   2622.07     3.0648     0.1105     0.0911     0.1370     3.1137     4.1676   219.2000     2.8945    -0.0017
  687   13.720   2631.34     3.6746     0.1050     0.0173     0.1372     3.6925     3.9622   219.5200     3.4730    -0.0218
  688   13.740   2640.31     4.2566     0.1005    -0.0294     0.1374     4.2447     2.8147   219.8400     4.0248    -0.0412
  689   13.760   2641.28     4.1201     0.1005     0.0016     0.1376     4.1144     2.4360   220.1600     3.8942    -0.0389
  690   13.780   2642.27     3.9475     0.1036     0.0220     0.1378     3.9615     2.6026   220.4800     3.7410    -0.0279
  691   13.800   2643.31     3.8283     0.1041    -0.0911     0.1380     3.8045     2.7123   220.8000     3.5837    -0.0543
  692   13.820   2644.28     4.0212     0.0943    -0.0705     0.1382     3.9932     2.3824   221.1200     3.7721    -0.0543
  693   13.840   2645.29     4.0967     0.0815    -0.0125     0.1384     4.0851     1.9925   221.4400     3.8637    -0.0430
  694   13.860   2646.27     4.1418     0.0799    -0.0261     0.1386     4.1406     1.9318   221.7600     3.9189    -0.0361
  695   13.880   2647.27     3.8056     0.0759    -0.0629     0.1388     3.7830     1.9600   222.0800     3.5609    -0.0541
  696   13.900   2648.22     3.4739     0.0758    -0.0820     0.1390     3.4423     2.2157   222.4000     3.2199    -0.0666
  697   13.920   2649.20     3.0606     0.0756    -0.0497     0.1392     3.0298     2.4714   222.7200     2.8070    -0.0757
  698   13.940   2650.20     2.6996     0.0722     0.0772     0.1394     2.7213     2.5417   223.0400     2.4983    -0.0348
  699   13.960   2651.20     2.4504     0.0532     0.0756     0.1396     2.4814     2.1086   223.3600     2.2581    -0.0292
  700   13.980   2652.17     2.4273     0.0526     0.1187     0.1398     2.4711     2.1916   223.6800     2.2474    -0.0159
  701   14.000   2653.15     2.5426     0.0446     0.1450     0.1400     2.5996     1.8276   224.0000     2.3756    -0.0028
  702   14.020   2654.14     2.6591     0.0395     0.1713     0.1402     2.7272     1.6201   224.3200     2.5029     0.0077
  703   14.040   2655.13     2.7756     0.0398     0.2420     0.1404     2.8548     1.5736   224.6400     2.6301     0.0181
  704   14.060   2656.09     3.4529     0.0435     0.3124     0.1406     3.5759     1.2776   224.9600     3.3509     0.0454
  705   14.080   2657.07     3.4359     0.0441     0.3429     0.1408     3.5785     1.2684   225.2800     3.3532     0.0592
  706   14.100   2658.07     3.2153     0.0469     0.3642     0.1410     3.3632     1.4393   225.6000     3.1376     0.0673
  707   14.120   2659.05     3.0511     0.0547     0.3758     0.1412     3.2062     1.7767   225.9200     2.9803     0.0766
  708   14.140   2660.04     2.8355     0.0565     0.3997     0.1414     3.0018     1.9633   226.2400     2.7755     0.0918
  709   14.160   2661.03     2.6581     0.0577     0.3999     0.1416     2.8248     2.1612   226.5600     2.5982     0.0983
  710   14.180   2661.99     2.6977     0.0551     0.4185     0.1418     2.8793     2.0654   226.8800     2.6524     0.1097
  711   14.200   2662.99     3.0727     0.0508     0.4441     0.1420     3.2619     1.7060   227.2000     3.0347     0.1019
  712   14.220   2663.97     3.5164     0.0501     0.3680     0.1422     3.6836     1.4457   227.5200     3.4561     0.0742
  713   14.240   2664.96     3.6893     0.0465     0.3218     0.1424     3.8286     1.2560   227.8400     3.6007     0.0525
  714   14.260   2666.00     3.4320     0.0386     0.3007     0.1426     3.5560     1.1038   228.1600     3.3278     0.0459
  715   14.280   2666.97     3.1633     0.0393     0.3198     0.1428     3.2958     1.2306   228.4800     3.0673     0.0563
  716   14.300   2667.93     2.9516     0.0385     0.3038     0.1430     3.0876     1.2791   228.8000     2.8588     0.0632
  717   14.320   2668.90     2.5560     0.0353     0.3233     0.1432     2.6872     1.3475   229.1200     2.4580     0.0689
  718   14.340   2669.87     2.3275     0.0300     0.3525     0.1434     2.4739     1.2692   229.4400     2.2444     0.0914
  719   14.360   2670.89     1.9802     0.0255     0.4750     0.1436     2.1623     1.2407   229.7600     1.9326     0.1505
  720   14.380   2671.86     1.6580     0.0251     0.5727     0.1438     1.8830     1.4619   230.0800     1.6530     0.2373
  721   14.400   2672.86     1.6162     0.0295     0.6415     0.1440     1.8807     1.8270   230.4000     1.6503     0.2943
  722   14.420   2673.82     1.6055     0.0326     0.6937     0.1442     1.8939     2.0288   230.7200     1.6632     0.3262
  723   14.440   2674.83     1.6829     0.0318     0.6363     0.1444     1.9579     1.9191   231.0400     1.7268     0.2955
  724   14.460   2675.78     1.7664     0.0289     0.6141     0.1446     2.0234     1.6594   231.3600     1.7920     0.2607
  725   14.480   2676.76     1.8864     0.0257     0.5758     0.1448     2.1379     1.3828   231.6800     1.9062     0.2382
  726   14.500   2677.76     2.0041     0.0269     0.5378     0.1450     2.2310     1.3561   232.0000     1.9990     0.1978
  727   14.520   2678.74     2.0538     0.0253     0.5313     0.1452     2.2761     1.2379   232.3200     2.0437     0.1879
  728   14.540   2679.75     1.8404     0.0207     0.5295     0.1454     2.0573     1.0816   232.6400     1.8246     0.2034
  729   14.560   2680.68     1.7157     0.0178     0.5901     0.1456     1.9502     1.0264   232.9600     1.7172     0.2403
  730   14.580   2681.67     1.5968     0.0233     0.6889     0.1458     1.8786     1.4438   233.2800     1.6454     0.3195
  731   14.600   2682.65     1.5726     0.0275     0.7144     0.1460     1.8657     1.7554   233.6000     1.6321     0.3381
  732   14.620   2683.63     1.8544     0.0304     0.7660     0.1462     2.1729     1.7031   233.9200     1.9390     0.3166
  733   14.640   2684.60     2.5746     0.0271     0.5495     0.1464     2.8508     1.1225   234.2400     2.6165     0.1992
  734   14.660   2685.59     3.3428     0.0237     0.3888     0.1466     3.5197     0.7299   234.5600     3.2851     0.0842
  735   14.680   2686.62     3.5167     0.0225     0.3745     0.1468     3.6790     0.6373   234.8800     3.4441     0.0696
  736   14.700   2687.61     3.4002     0.0270     0.3312     0.1470     3.5441     0.7869   235.2000     3.3089     0.0591
  737   14.720   2688.58     3.3365     0.0255     0.3227     0.1472     3.4735     0.7615   235.5200     3.2380     0.0553
  738   14.740   2689.57     3.2430     0.0304     0.3434     0.1474     3.3803     0.9299   235.8400     3.1444     0.0571
  739   14.760   2690.55     2.9775     0.0309     0.3528     0.1476     3.1219     1.0206   236.1600     2.8858     0.0681
  740   14.780   2691.52     2.6368     0.0352     0.4004     0.1478     2.7951     1.3098   236.4800     2.5587     0.0898
  741   14.800   2692.52     2.3215     0.0368     0.4655     0.1480     2.5121     1.5662   236.8000     2.2753     0.1344
  742   14.820   2693.50     2.2733     0.0325     0.5096     0.1482     2.4863     1.4291   237.1200     2.2491     0.1595
  743   14.840   2694.53     2.4441     0.0307     0.5010     0.1484     2.6519     1.2946   237.4400     2.4145     0.1437
  744   14.860   2695.51     2.7457     0.0295     0.4867     0.1486     2.9589     1.0898   237.7600     2.7211     0.1321
  745   14.880   2696.50     2.8485     0.0277     0.4192     0.1488     3.0291     0.9706   238.0800     2.7911     0.1008
  746   14.900   2697.42     2.7790     0.0300     0.4130     0.1490     2.9543     1.0737   238.4000     2.7159     0.0988
  747   14.920   2698.47     2.6059     0.0325     0.4769     0.1492     2.7918     1.2190   238.7200     2.5531     0.1153
  748   14.940   2699.43     2.2783     0.0336     0.5071     0.1494     2.4865     1.4344   239.0400     2.2475     0.1542
  749   14.960   2700.43     2.1752     0.0322     0.5744     0.1496     2.4111     1.4780   239.3600     2.1717     0.1897
  750   14.980   2701.42     2.1174     0.0365     0.6207     0.1498     2.3697     1.7094   239.6800     2.1300     0.2118
  751   15.000   2702.41     1.9898     0.0404     0.6466     0.1500     2.2606     2.0204   240.0000     2.0206     0.2449
  752   15.020   2703.37     2.1404     0.0375     0.6456     0.1502     2.4119     1.7945   240.3200     2.1716     0.2286
  753   15.040   2704.36     2.2710     0.0347     0.6017     0.1504     2.5190     1.5450   240.6400     2.2783     0.1931
  754   15.060   2705.33     2.4692     0.0409     0.5823     0.1506     2.7169     1.6833   240.9600     2.4759     0.1774
  755   15.080   2706.30     2.6021     0.0434     0.5800     0.1508     2.8509     1.6734   241.2800     2.6096     0.1692
  756   15.100   2707.29     2.6167     0.0453     0.5341     0.1510     2.8485     1.7348   241.6000     2.6069     0.1538
  757   15.120   2708.31     2.8660     0.0428     0.4781     0.1512     3.0539     1.5176   241.9200     2.8120     0.1053
  758   15.140   2709.27     2.6685     0.0449     0.5764     0.1514     2.8974     1.6589   242.2400     2.6551     0.1483
  759   15.160   2710.29     2.4791     0.0482     0.7316     0.1516     2.7689     1.9180   242.5600     2.5264     0.2132
  760   15.180   2711.24     2.3088     0.0559     0.6542     0.1518     2.5946     2.4076   242.8800     2.3517     0.2247
  761   15.200   2712.23     2.3384     0.0559     0.6517     0.1520     2.6153     2.4033   243.2000     2.3721     0.2139
  762   15.220   2713.20     2.5582     0.0586     0.6254     0.1522     2.8186     2.3136   243.5200     2.5751     0.1819
  763   15.240   2714.20     2.8229     0.0611     0.6434     0.1524     3.0875     2.1944   243.8400     2.8437     0.1680
  764   15.260   2715.25     3.0749     0.0615     0.6769     0.1526     3.3576     2.0192   244.1600     3.1135     0.1672
  765   15.280   2716.24     2.9405     0.0630     0.6510     0.1528     3.2206     2.1034   244.4800     2.9761     0.1728
  766   15.300   2717.21     2.6636     0.0667     0.7225     0.1530     2.9616     2.4789   244.8000     2.7168     0.2049
  767   15.320   2718.21     2.5079     0.0729     0.6623     0.1532     2.8019     2.8737   245.1200     2.5568     0.2138
  768   15.340   2719.22     2.2734     0.0757     0.5351     0.1534     2.4896     3.3010   245.4400     2.2442     0.1607
  769   15.360   2720.21     2.1973     0.0749     0.5874     0.1536     2.4438     3.4011   245.7600     2.1981     0.1971
  770   15.380   2721.18     2.2154     0.0730     0.5862     0.1538     2.4579     3.3103   246.0800     2.2119     0.1916
  771   15.400   2722.16     2.3357     0.0724     0.6714     0.1540     2.6047     3.1249   246.4000     2.3583     0.2062
  772   15.420   2723.16     2.4856     0.0641     0.7263     0.1542     2.7863     2.5880   246.7200     2.5396     0.2211
  773   15.440   2724.18     2.4198     0.0528     0.7473     0.1544     2.7309     2.1578   247.0400     2.4839     0.2361
  774   15.460   2725.19     2.3428     0.0461     0.8061     0.1546     2.6723     1.9519   247.3600     2.4249     0.2598
  775   15.480   2726.17     2.2660     0.0476     0.9416     0.1548     2.6367     2.0879   247.6800     2.3890     0.3046
  776   15.500   2727.15     2.2376     0.0456     1.0158     0.1550     2.6673     2.0384   248.0000     2.4193     0.3588
  777   15.520   2728.13     2.1404     0.0447     0.9332     0.1552     2.5449     2.0632   248.3200     2.2966     0.3518
  778   15.540   2729.08     1.9755     0.0466     0.8620     0.1554     2.3435     2.3334   248.6400     2.0949     0.3441
  779   15.560   2730.09     1.8866     0.0472     0.8563     0.1556     2.2465     2.5057   248.9600     1.9975     0.3511
  780   15.580   2731.06     1.7781     0.0473     0.9095     0.1558     2.1498     2.6123   249.2800     1.9005     0.3841
  781   15.600   2732.09     1.6689     0.0468     1.0186     0.1560     2.0829     2.7523   249.6000     1.8333     0.4526
  782   15.620   2733.07     1.6539     0.0466     1.1373     0.1562     2.1159     2.8156   249.9200     1.8660     0.5057
  783   15.640   2734.05     1.6030     0.0465     1.1946     0.1564     2.0991     2.8934   250.2400     1.8489     0.5543
  784   15.660   2735.04     1.6211     0.0445     1.2437     0.1566     2.1332     2.7662   250.5600     1.8827     0.5647
  785   15.680   2736.04     1.8304     0.0429     1.3319     0.1568     2.3809     2.3579   250.8800     2.1300     0.5422
  786   15.700   2739.03     2.0849     0.0476     1.3609     0.1570     2.6482     2.3196   251.2000     2.3970     0.4946
  787   15.720   2750.08     2.2554     0.0557     1.4176     0.1572     2.8426     2.7159   251.5200     2.5911     0.4805
  788   15.740   2761.13     2.4260     0.0562     1.4652     0.1574     3.0369     2.6419   251.8400     2.7851     0.4663
  789   15.760   2764.60     2.5328     0.0567     1.2651     0.1576     3.0978     2.2499   252.1600     2.8456     0.4172
  790   15.780   2765.56     2.5206     0.0537     1.2794     0.1578     3.0475     2.1229   252.4800     2.7950     0.3924
  791   15.800   2766.56     2.4641     0.0519     1.3344     0.1580     3.0171     2.0972   252.8000     2.7643     0.4192
  792   15.820   2767.53     2.3842     0.0564     1.3098     0.1582     2.9297     2.3439   253.1200     2.6765     0.4261
  793   15.840   2768.56     2.3067     0.0508     1.3509     0.1584     2.8726     2.1925   253.4400     2.6192     0.4540
  794   15.860   2769.51     2.2483     0.0494     1.3303     0.1586     2.8116     2.2011   253.7600     2.5578     0.4623
  795   15.880   2770.53     2.2268     0.0475     1.2654     0.1588     2.7652     2.1216   254.0800     2.5111     0.4472
  796   15.900   2771.47     2.1873     0.0448     1.2322     0.1590     2.7092     2.0414   254.4000     2.4548     0.4414
  797   15.920   2772.48     2.1086     0.0442     1.1698     0.1592     2.6083     2.0661   254.7200     2.3536     0.4379
  798   15.940   2773.47     1.9899     0.0415     1.1417     0.1594     2.4723     2.0664   255.0400     2.2173     0.4461
  799   15.960   2774.44     1.8695     0.0348     1.1266     0.1596     2.3388     1.8337   255.3600     2.0835     0.4598
  800   15.980   2775.44     1.7698     0.0327     1.1346     0.1598     2.2478     1.8324   255.6800     1.9921     0.4910
  801   16.000   2776.45     1.7322     0.0297     1.1435     0.1600     2.2112     1.7077   256.0000     1.9552     0.5015
  802   16.020   2777.39     1.6780     0.0302     1.1617     0.1602     2.1636     1.7854   256.3200     1.9073     0.5222
  803   16.040   2778.41     1.6712     0.0283     1.1505     0.1604     2.1575     1.6909   256.6400     1.9009     0.5247
  804   16.060   2779.40     1.6584     0.0257     1.1341     0.1606     2.1338     1.5449   256.9600     1.8768     0.5175
  805   16.080   2780.34     1.6660     0.0245     1.1278     0.1608     2.1444     1.4813   257.2800     1.8871     0.5185
  806   16.100   2781.34     1.7825     0.0232     0.9973     0.1610     2.2210     1.3221   257.6000     1.9634     0.4497
  807   16.120   2782.32     1.7699     0.0206     0.9399     0.1612     2.1715     1.1598   257.9200     1.9135     0.4154
  808   16.140   2783.30     1.6445     0.0203     0.9053     0.1614     2.0248     1.2133   258.2400     1.7666     0.4212
  809   16.160   2784.28     1.5288     0.0227     0.9151     0.1616     1.9112     1.4658   258.5600     1.6527     0.4532
  810   16.180   2785.24     1.3943     0.0209     0.9619     0.1618     1.7867     1.4806   258.8800     1.5278     0.5058
  811   16.200   2786.21     1.3434     0.0187     1.0404     0.1620     1.7713     1.3931   259.2000     1.5121     0.5667
  812   16.220   2787.22     1.4414     0.0256     1.0818     0.1622     1.8942     1.7814   259.5200     1.6346     0.5603
  813   16.240   2788.19     1.6945     0.0293     1.0405     0.1624     2.1343     1.7726   259.8400     1.8744     0.4727
  814   16.260   2789.19     2.2637     0.0325     1.0403     0.1626     2.7042     1.5107   260.1600     2.4440     0.3644
  815   16.280   2790.22     3.8088     0.0367     0.8200     0.1628     4.2193     1.2919   260.4800     3.9589     0.2092
  816   16.300   2791.24     6.8196     0.0436     0.2140     0.1630     6.9828     0.7214   260.8000     6.7220     0.0345
  817   16.320   2792.28     9.5067     0.0511    -0.0032     0.1632     9.5147     0.5435   261.1200     9.2535    -0.0155
  818   16.340   2793.31    11.0797     0.0556     0.0245     0.1634    11.0901     0.5066   261.4400    10.8287    -0.0128
  819   16.360   2794.32    11.7182     0.0634     0.0115     0.1636    11.7318     0.5419   261.7600    11.4701    -0.0114
  820   16.380   2795.30    11.8479     0.0651    -0.0025     0.1638    11.8452     0.5503   262.0800    11.5831    -0.0147
  821   16.400   2796.32    11.9118     0.0637     0.0367     0.1640    11.9255     0.5355   262.4000    11.6631    -0.0113
  822   16.420   2797.30    12.2108     0.0588     0.0789     0.1642    12.2375     0.4837   262.7200    11.9748    -0.0084
  823   16.440   2798.33    12.7037     0.0564     0.0220     0.1644    12.7211     0.4449   263.0400    12.4580    -0.0099
  824   16.460   2799.39    12.7162     0.0619    -0.0561     0.1646    12.6973     0.4860   263.3600    12.4340    -0.0169
  825   16.480   2800.41    12.1677     0.0742    -0.0131     0.1648    12.1569     0.6044   263.6800    11.8932    -0.0160
  826   16.500   2801.40    11.4280     0.0911    -0.0179     0.1650    11.4176     0.7916   264.0000    11.1536    -0.0170
  827   16.520   2802.38    10.5813     0.0976     0.0198     0.1652    10.5843     0.9122   264.3200    10.3199    -0.0153
  828   16.540   2803.33     9.9564     0.0899     0.0714     0.1654     9.9825     0.8974   264.6400     9.7179    -0.0106
  829   16.560   2804.35     9.5348     0.0809     0.1166     0.1656     9.5792     0.8459   264.9600     9.3143    -0.0064
  830   16.580   2805.35     9.1995     0.0688     0.1616     0.1658     9.2653     0.7431   265.2800     9.0000    -0.0010
  831   16.600   2806.34     8.7818     0.0561     0.1225     0.1660     8.8506     0.6355   265.6000     8.5850    -0.0003
  832   16.620   2807.38     8.2670     0.0420     0.0938     0.1662     8.2935     0.5053   265.9200     8.0275    -0.0128
  833   16.640   2808.35     7.7962     0.0379     0.1071     0.1664     7.8377     0.4817   266.2400     7.5715    -0.0089
  834   16.660   2809.35     7.2649     0.0473     0.1272     0.1666     7.3103     0.6446   266.5600     7.0437    -0.0083
  835   16.680   2810.34     6.7412     0.0619     0.1506     0.1668     6.8004     0.9165   266.8800     6.5336    -0.0039
  836   16.700   2811.36     6.4364     0.0585     0.1535     0.1670     6.5004     0.9049   267.2000     6.2332    -0.0023
  837   16.720   2812.36     6.3027     0.0392     0.2217     0.1672     6.3845     0.6202   267.5200     6.1170     0.0045
  838   16.740   2813.35     6.2315     0.0365     0.2397     0.1674     6.3298     0.5859   267.8400     6.0619     0.0110
  839   16.760   2814.32     6.3871     0.0419     0.1953     0.1676     6.4752     0.6682   268.1600     6.2070     0.0068
  840   16.780   2815.33     6.6691     0.0577     0.1122     0.1678     6.7343     0.8674   268.4800     6.4658    -0.0020
  841   16.800   2816.36     7.0499     0.0587     0.0880     0.1680     7.0968     0.8337   268.8000     6.8280    -0.0083
  842   16.820   2817.37     7.3106     0.0653     0.1499     0.1682     7.3626     0.8951   269.1200     7.0935    -0.0063
  843   16.840   2818.37     7.8184     0.0844     0.1908     0.1684     7.8978     1.1203   269.4400     7.6283     0.0027
  844   16.860   2819.38     8.4908     0.0876     0.2099     0.1686     8.5864     1.0743   269.7600     8.3166     0.0071
  845   16.880   2820.41     9.2387     0.1014     0.1165     0.1688     9.3060     1.1009   270.0800     9.0359    -0.0009
  846   16.900   2821.40     9.3216     0.1140     0.0479     0.1690     9.3350     1.2217   270.4000     9.0646    -0.0151
  847   16.920   2822.41     9.1425     0.1202     0.0916     0.1692     9.1846     1.3155   270.7200     8.9138    -0.0077
  848   16.940   2823.45     9.5611     0.1284     0.0804     0.1694     9.5933     1.3468   271.0400     9.3223    -0.0099
  849   16.960   2824.44    10.5061     0.1425     0.1829     0.1696    10.5725     1.3613   271.3600    10.3011    -0.0012
  850   16.980   2825.49    11.2857     0.1488     0.1417     0.1698    11.3504     1.3204   271.6800    11.0788    -0.0014
  851   17.000   2826.52    11.6723     0.1645     0.1079     0.1700    11.7260     1.4131   272.0000    11.4540    -0.0037
  852   17.020   2827.50    12.1347     0.1844     0.0154     0.1702    12.1422     1.5233   272.3200    11.8699    -0.0128
  853   17.040   2828.53    12.4532     0.2071     0.0086     0.1704    12.4528     1.6623   272.6400    12.1801    -0.0141
  854   17.060   2829.52    12.1459     0.1981    -0.0277     0.1706    12.1414     1.6281   272.9600    11.8684    -0.0153
  855   17.080   2830.53    11.3861     0.1680    -0.1472     0.1708    11.3404     1.4703   273.2800    11.0671    -0.0253
  856   17.100   2831.53    10.3244     0.1429    -0.1857     0.1710    10.2471     1.3229   273.6000     9.9735    -0.0356
  857   17.120   2832.53     9.7532     0.1313    -0.1937     0.1712     9.6735     1.3152   273.9200     9.3996    -0.0384
  858   17.140   2833.59     9.4587     0.1174    -0.1929     0.1714     9.3772     1.2278   274.2400     9.1029    -0.0402
  859   17.160   2834.59     9.5865     0.1109    -0.2030     0.1716     9.5017     1.1593   274.5600     9.2272    -0.0405
  860   17.180   2835.61    10.2917     0.1135    -0.1823     0.1718    10.2156     1.1446   274.8800     9.9407    -0.0355
  861   17.200   2836.63    11.0887     0.1133    -0.1911     0.1720    11.0082     1.0579   275.2000    10.7330    -0.0339
  862   17.220   2837.64    11.7724     0.1237    -0.1891     0.1722    11.6910     1.0780   275.5200    11.4155    -0.0321
  863   17.240   2838.65    12.1058     0.1287    -0.1965     0.1724    12.0268     1.0671   275.8400    11.7509    -0.0307
  864   17.260   2839.69    12.2007     0.1186    -0.2426     0.1726    12.1062     0.9753   276.1600    11.8300    -0.0336
  865   17.280   2840.72    12.3650     0.1034    -0.2705     0.1728    12.2527     0.8423   276.4800    11.9762    -0.0367
  866   17.300   2841.74    12.6637     0.0854    -0.2703     0.1730    12.5493     0.6818   276.8000    12.2725    -0.0363
  867   17.320   2842.82    13.4918     0.0686    -0.2721     0.1732    13.3787     0.5104   277.1200    13.1016    -0.0338
  868   17.340   2843.85    14.5526     0.0562    -0.2902     0.1734    14.4313     0.3907   277.4400    14.1539    -0.0327
  869   17.360   2844.85    15.6833     0.0538    -0.2778     0.1736    15.5649     0.3462   277.7600    15.2871    -0.0298
  870   17.380   2845.90    16.6453     0.0648    -0.2677     0.1738    16.5314     0.3933   278.0800    16.2534    -0.0274
  871   17.400   2846.90    17.1627     0.0923    -0.2503     0.1740    17.0562     0.5395   278.4000    16.7778    -0.0255
  872   17.420   2847.89    17.0967     0.0951    -0.2398     0.1742    16.9943     0.5543   278.7200    16.7156    -0.0250
  873   17.440   2848.89    16.6471     0.0816    -0.2295     0.1744    16.5476     0.4857   279.0400    16.2685    -0.0253
  874   17.460   2849.82    16.4048     0.0816    -0.1962     0.1746    16.3178     0.4970   279.3600    16.0385    -0.0238
  875   17.480   2850.81    16.8204     0.1024    -0.1768     0.1748    16.7447     0.6125   279.6800    16.4650    -0.0216
  876   17.500   2851.83    17.0434     0.1380    -0.2247     0.1750    16.9608     0.8115   280.0000    16.6808    -0.0223
  877   17.520   2852.76    16.1467     0.1981    -0.2558     0.1752    16.0386     1.2101   280.3200    15.7583    -0.0275
  878   17.540   2853.70    13.6394     0.2395    -0.2679     0.1754    13.5304     1.7414   280.6400    13.2498    -0.0329
  879   17.560   2854.69    10.5355     0.2320    -0.2672     0.1756    10.4210     2.1595   280.9600    10.1401    -0.0444
  880   17.580   2855.62     8.6156     0.2148    -0.2382     0.1758     8.5106     2.3534   281.2800     8.2293    -0.0518
  881   17.600   2856.63     7.5970     0.1990    -0.1889     0.1760     7.5066     2.4749   281.6000     7.2250    -0.0542
  882   17.620   2857.66     6.7049     0.1832     0.0084     0.1762     6.6728     2.5965   281.9200     6.3909    -0.0394
  883   17.640   2858.71     7.1018     0.1828     0.2794     0.1764     7.1537     2.6041   282.2400     6.8715    -0.0078
  884   17.660   2859.74     8.5796     0.1916     0.4366     0.1766     8.7676     2.2673   282.5600     8.4851     0.0319
  885   17.680   2863.68     9.0683     0.2084     0.3281     0.1768     9.2230     2.2505   282.8800     8.9402     0.0202
  886   17.700   2871.98     8.3400     0.1776     0.2114     0.1770     8.4456     1.8974   283.2000     8.1624     0.0064
  887   17.720   2880.28     7.6115     0.1846     0.0946     0.1772     7.6682     1.9715   283.5200     7.3847    -0.0074
  888   17.740   2884.80     6.6623     0.1787     0.1787     0.1774     6.7373     2.6454   283.8400     6.4534     0.0002
  889   17.760   2885.82     5.9464     0.1722     0.2376     0.1776     6.0187     2.7338   284.1600     5.7345    -0.0010
  890   17.780   2886.84     5.0772     0.1868     0.4354     0.1778     5.2280     3.6507   284.4800     4.9435     0.0366
  891   17.800   2887.85     5.7501     0.1991     0.2134     0.1780     5.8530     3.4828   284.8000     5.5682     0.0121
  892   17.820   2888.86     6.5503     0.1850     0.1781     0.1782     6.6331     2.8595   285.1200     6.3480     0.0030
  893   17.840   2889.88     6.4951     0.1703    -0.0839     0.1784     6.4911     2.6119   285.4400     6.2057    -0.0303
  894   17.860   2890.83     5.9111     0.1561    -0.0038     0.1786     5.8843     2.6380   285.7600     5.5985    -0.0433
  895   17.880   2891.86     5.8479     0.1371     0.1911     0.1788     5.8995     2.3412   286.0800     5.6134    -0.0099
  896   17.900   2892.87     5.7742     0.1146     0.2832     0.1790     5.8858     1.9839   286.4000     5.5994     0.0155
  897   17.920   2893.90     6.5528     0.0879     0.2493     0.1792     6.6712     1.3521   286.7200     6.3845     0.0162
  898   17.940   2894.92     8.0236     0.0624     0.0528     0.1794     8.0819     0.7875   287.0400     7.7949    -0.0050
  899   17.960   2895.93     9.0703     0.0574     0.0554     0.1796     9.0848     0.6379   287.3600     8.7974    -0.0165
  900   17.980   2896.94     9.7360     0.0720     0.0805     0.1798     9.7592     0.7430   287.6800     9.4715    -0.0132
  901   18.000   2897.95    10.1573     0.0938     0.0904     0.1800    10.1957     0.9242   288.0000     9.9077    -0.0089
  902   18.020   2898.95    10.1197     0.1044     0.0663     0.1802    10.1478     1.0290   288.3200     9.8595    -0.0115
  903   18.040   2899.91     9.6901     0.0971     0.0924     0.1804     9.7235     0.9993   288.6400     9.4349    -0.0107
  904   18.060   2900.93     9.2604     0.0764     0.1425     0.1806     9.3133     0.8239   288.9600     9.0244    -0.0060
  905   18.080   2901.94     9.2368     0.0634     0.1906     0.1808     9.3057     0.6887   289.2800     9.0165    -0.0019
  906   18.100   2903.01     9.9340     0.0665     0.1106     0.1810     9.9989     0.6805   289.6000     9.7093    -0.0027
  907   18.120   2904.01    10.4620     0.0755    -0.0466     0.1812    10.4619     0.7206   289.9200    10.1719    -0.0179
  908   18.140   2904.98    10.3840     0.0738    -0.0919     0.1814    10.3557     0.7088   290.2400    10.0655    -0.0247
  909   18.160   2905.99     9.8227     0.0675    -0.1239     0.1816     9.7625     0.6761   290.5600     9.4719    -0.0343
  910   18.180   2906.97     8.9597     0.0636    -0.0172     0.1818     8.9327     0.6830   290.8800     8.6419    -0.0284
  911   18.200   2907.97     8.8868     0.0636     0.0820     0.1820     8.9091     0.7216   291.2000     8.6179    -0.0150
  912   18.220   2909.02     9.4224     0.0604     0.0436     0.1822     9.4579     0.6432   291.5200     9.1663    -0.0106
  913   18.240   2910.05     9.9474     0.0566     0.0495     0.1824     9.9619     0.5706   291.8400     9.6700    -0.0153
  914   18.260   2911.07    10.3006     0.0521     0.0315     0.1826    10.3226     0.5062   292.1600    10.0305    -0.0130
  915   18.280   2912.07    10.4160     0.0538     0.1404     0.1828    10.4643     0.5170   292.4800    10.1719    -0.0067
  916   18.300   2913.08    10.5542     0.0624     0.1688     0.1830    10.6232     0.5926   292.8000    10.3304    -0.0018
  917   18.320   2914.09    10.6967     0.0695     0.1799     0.1832    10.7726     0.6537   293.1200    10.4795    -0.0002
  918   18.340   2915.11    10.7677     0.0626     0.1910     0.1834    10.8428     0.5828   293.4400    10.5494    -0.0004
  919   18.360   2916.12    11.0962     0.0568     0.2188     0.1836    11.1914     0.5150   293.7600    10.8977     0.0040
  920   18.380   2917.15    11.7225     0.0557     0.1743     0.1838    11.7977     0.4883   294.0800    11.5037    -0.0004
  921   18.400   2918.17    12.4940     0.0616     0.1271     0.1840    12.5608     0.4989   294.4000    12.2664    -0.0020
  922   18.420   2919.20    13.2387     0.0612     0.0355     0.1842    13.2528     0.4660   294.7200    12.9581    -0.0116
  923   18.440   2920.21    13.6475     0.0618     0.0190     0.1844    13.6654     0.4580   295.0400    13.3704    -0.0106
  924   18.460   2921.25    13.8610     0.0607     0.0043     0.1846    13.8609     0.4387   295.3600    13.5655    -0.0136
  925   18.480   2922.24    14.0635     0.0589     0.0566     0.1848    14.0790     0.4196   295.6800    13.7833    -0.0107
  926   18.500   2923.26    14.2229     0.0639     0.1046     0.1850    14.2571     0.4493   296.0000    13.9611    -0.0074
  927   18.520   2924.30    14.2800     0.0655     0.1806     0.1852    14.3474     0.4593   296.3200    14.0510    -0.0018
  928   18.540   2925.30    13.7958     0.0616     0.2314     0.1854    13.8904     0.4461   296.6400    13.5937     0.0029
  929   18.560   2926.28    13.1819     0.0605     0.2275     0.1856    13.2741     0.4581   296.9600    12.9771     0.0026
  930   18.580   2927.26    12.6688     0.0623     0.2515     0.1858    12.7705     0.4833   297.2800    12.4733     0.0045
  931   18.600   2928.27    12.1629     0.0682     0.2591     0.1860    12.2707     0.5564   297.6000    11.9731     0.0059
  932   18.620   2929.32    12.1713     0.0730     0.2580     0.1862    12.2825     0.5999   297.9200    11.9845     0.0066
  933   18.640   2930.38    12.0369     0.0727     0.2566     0.1864    12.1465     0.6030   298.2400    11.8482     0.0063
  934   18.660   2931.38    11.7780     0.0681     0.2662     0.1866    11.8848     0.5765   298.5600    11.5862     0.0058
  935   18.680   2932.37    11.4194     0.0658     0.2958     0.1868    11.5362     0.5751   298.8800    11.2373     0.0081
  936   18.700   2933.38    11.1152     0.0669     0.3028     0.1870    11.2357     0.6008   299.2000    10.9365     0.0091
  937   18.720   2934.37    10.7910     0.0678     0.3000     0.1872    10.9190     0.6277   299.5200    10.6194     0.0111
  938   18.740   2935.35    10.2909     0.0710     0.2813     0.1874    10.4125     0.6884   299.8400    10.1126     0.0101
  939   18.760   2936.36     9.8507     0.0747     0.2830     0.1876     9.9656     0.7450   300.1600     9.6654     0.0089
  940   18.780   2937.40     9.4947     0.0780     0.3081     0.1878     9.6224     0.8198   300.4800     9.3219     0.0124
  941   18.800   2938.44     9.2057     0.0801     0.3009     0.1880     9.3320     0.8577   300.8000     9.0312     0.0125
  942   18.820   2939.45     8.9499     0.0749     0.3053     0.1882     9.0775     0.8285   301.1200     8.7764     0.0132
  943   18.840   2940.43     8.7941     0.0694     0.2878     0.1884     8.9111     0.7889   301.4400     8.6097     0.0105
  944   18.860   2941.44     8.7984     0.0672     0.2767     0.1886     8.9186     0.7637   301.7600     8.6168     0.0113
  945   18.880   2942.49     8.9940     0.0661     0.2767     0.1888     9.1187     0.7415   302.0800     8.8166     0.0123
  946   18.900   2943.52     9.5567     0.0666     0.2119     0.1890     9.6615     0.6990   302.4000     9.3591     0.0065
  947   18.920   2944.54     9.8877     0.0697     0.1904     0.1892     9.9601     0.7051   302.7200     9.6573    -0.0017
  948   18.940   2945.52     9.8420     0.0700     0.2738     0.1894     9.9434     0.7089   303.0400     9.6404     0.0054
  949   18.960   2946.49     9.9116     0.0702     0.2854     0.1896    10.0296     0.7097   303.3600     9.7262     0.0094
  950   18.980   2947.55    10.0029     0.0731     0.3001     0.1898    10.1285     0.7309   303.6800     9.8248     0.0111
  951   19.000   2948.58    10.1481     0.0771     0.3150     0.1900    10.2788     0.7605   304.0000     9.9748     0.0121
  952   19.020   2949.58    10.3065     0.0754     0.3033     0.1902    10.4360     0.7322   304.3200    10.1317     0.0117
  953   19.040   2950.58    10.3874     0.0741     0.3052     0.1904    10.5152     0.7137   304.6400    10.2106     0.0111
  954   19.060   2951.58    10.2265     0.0713     0.2876     0.1906    10.3482     0.6880   304.9600    10.0433     0.0099
  955   19.080   2952.60     9.6636     0.0680     0.3174     0.1908     9.7913     0.6916   305.2800     9.4861     0.0120
  956   19.100   2953.63     9.2144     0.0674     0.3321     0.1910     9.3528     0.7304   305.6000     9.0472     0.0153
  957   19.120   2954.64     9.2262     0.0672     0.3420     0.1912     9.3675     0.7287   305.9200     9.0616     0.0160
  958   19.140   2955.63     9.3407     0.0672     0.3258     0.1914     9.4817     0.7203   306.2400     9.1754     0.0157
  959   19.160   2956.69     9.2295     0.0648     0.3252     0.1916     9.3656     0.7004   306.5600     9.0591     0.0146
  960   19.180   2957.67     8.9390     0.0643     0.3472     0.1918     9.0807     0.7178   306.8800     8.7738     0.0166
  961   19.200   2958.68     8.7949     0.0626     0.3654     0.1920     8.9472     0.7090   307.2000     8.6400     0.0197
  962   19.220   2959.70     8.7604     0.0604     0.3485     0.1922     8.9111     0.6884   307.5200     8.6036     0.0194
  963   19.240   2960.69     8.9528     0.0595     0.2836     0.1924     9.0798     0.6718   307.8400     8.7720     0.0126
  964   19.260   2961.66     9.2284     0.0584     0.2959     0.1926     9.3491     0.6429   308.1600     9.0409     0.0105
  965   19.280   2962.71     9.5923     0.0592     0.3006     0.1928     9.7163     0.6285   308.4800     9.4079     0.0109
  966   19.300   2963.77     9.9494     0.0597     0.3102     0.1930    10.0833     0.6005   308.8000     9.7745     0.0129
  967   19.320   2964.79    10.0342     0.0596     0.3089     0.1932    10.1618     0.5944   309.1200     9.8526     0.0112
  968   19.340   2965.78     9.9727     0.0644     0.3214     0.1934    10.1096     0.6458   309.4400     9.8002     0.0135
  969   19.360   2966.80     9.6754     0.0696     0.3490     0.1936     9.8167     0.7187   309.7600     9.5069     0.0150
  970   19.380   2967.84     9.4552     0.0742     0.3708     0.1938     9.6094     0.7819   310.0800     9.2993     0.0186
  971   19.400   2968.84     9.2428     0.0854     0.3866     0.1940     9.4035     0.9221   310.4000     9.0931     0.0208
  972   19.420   2969.83     8.9246     0.0971     0.4094     0.1942     9.0935     1.0868   310.7200     8.7828     0.0237
  973   19.440   2970.80     8.4945     0.0788     0.4342     0.1944     8.6757     0.9250   311.0400     8.3647     0.0284
  974   19.460   2971.83     7.8232     0.0677     0.4672     0.1946     8.0107     0.8623   311.3600     7.6993     0.0327
  975   19.480   2972.88     7.4273     0.0596     0.4782     0.1948     7.6287     0.8010   311.6800     7.3170     0.0389
  976   19.500   2973.84     7.3785     0.0551     0.4142     0.1950     7.5673     0.7527   312.0000     7.2553     0.0351
  977   19.520   2974.87     7.9370     0.0457     0.2561     0.1952     8.0709     0.6028   312.3200     7.7586     0.0160
  978   19.540   2975.90     8.6555     0.0444     0.2277     0.1954     8.7381     0.5238   312.6400     8.4254     0.0001
  979   19.560   2976.90     8.8522     0.0527     0.3111     0.1956     8.9683     0.6017   312.9600     8.6554     0.0093
  980   19.580   2977.89     8.9811     0.0594     0.3603     0.1958     9.1240     0.6638   313.2800     8.8107     0.0164
  981   19.600   2978.90     9.3305     0.0633     0.3577     0.1960     9.4832     0.6833   313.6000     9.1696     0.0183
  982   19.620   2979.97     9.6883     0.0588     0.3230     0.1962     9.8235     0.6117   313.9200     9.5095     0.0132
  983   19.640   2982.27    10.0515     0.0591     0.3065     0.1964    10.1889     0.6455   314.2400     9.8747     0.0133
  984   19.660   2994.22    10.8405     0.0600     0.2464     0.1966    10.9527     0.6671   314.5600    10.6381     0.0071
  985   19.680   3006.18    11.6295     0.0648     0.1957     0.1968    11.7165     0.5724   314.8800    11.4016     0.0009
  986   19.700   3007.35    11.4080     0.0745     0.1971     0.1970    11.4910     0.6506   315.2000    11.1758     0.0001
  987   19.720   3008.34    10.5662     0.0803     0.2780     0.1972    10.6606     0.7572   315.5200    10.3450     0.0027
  988   19.740   3009.31     9.3806     0.0751     0.3267     0.1974     9.5048     0.7655   315.8400     9.1889     0.0107
  989   19.760   3010.35     8.9207     0.0805     0.3683     0.1976     9.0710     0.9000   316.1600     8.7548     0.0183
  990   19.780   3011.40     9.0101     0.0822     0.3796     0.1978     9.1734     0.9151   316.4800     8.8569     0.0215
  991   19.800   3012.41     9.2997     0.0726     0.3535     0.1980     9.4573     0.7825   316.8000     9.1405     0.0194
  992   19.820   3013.41     9.5916     0.0675     0.3006     0.1982     9.7278     0.7038   317.1200     9.4107     0.0134
  993   19.840   3014.43     9.3153     0.0664     0.4047     0.1984     9.4618     0.7100   317.4400     9.1444     0.0165
  994   19.860   3015.41     9.0269     0.0615     0.4236     0.1986     9.2064     0.6803   317.7600     8.8887     0.0258
  995   19.880   3016.42     8.8676     0.0602     0.4029     0.1988     9.0358     0.6727   318.0800     8.7177     0.0231
  996   19.900   3017.40     8.8502     0.0586     0.4525     0.1990     9.0376     0.6638   318.4000     8.7192     0.0283
  997   19.920   3018.41     9.1963     0.0600     0.4117     0.1992     9.3715     0.6613   318.7200     9.0528     0.0241
  998   19.940   3019.46     9.7740     0.0666     0.3644     0.1994     9.9359     0.6984   319.0400     9.6169     0.0194
  999   19.960   3020.46    10.2200     0.0731     0.3783     0.1996    10.3760     0.7287   319.3600    10.0566     0.0171
 1000   19.980   3021.53    10.8059     0.0850     0.2545     0.1998    10.9312     0.8080   319.6800    10.6116     0.0093
 1001   20.000   3022.51    11.3064     0.0860     0.2365     0.2000    11.4095     0.7775   320.0000    11.0895     0.0041
 1002   20.020   3023.57    11.8596     0.0845     0.1877     0.2002    11.9487     0.7141   320.3200    11.6284     0.0010
 1003   20.040   3024.56    12.4436     0.0868     0.1564     0.2004    12.5106     0.7003   320.6400    12.1899    -0.0034
 1004   20.060   3025.61    13.1074     0.0795     0.0869     0.2006    13.1591     0.6107   320.9600    12.8382    -0.0060
 1005   20.080   3026.63    13.9432     0.0880    -0.0203     0.2008    13.9519     0.6388   321.2800    13.6306    -0.0132
 1006   20.100   3027.62    14.7188     0.0893    -0.0767     0.2010    14.6901     0.6148   321.6000    14.3685    -0.0187
 1007   20.120   3028.67    15.8730     0.0919    -0.1228     0.2012    15.8311     0.5979   321.9200    15.5092    -0.0194
 1008   20.140   3029.63    17.8599     0.0990    -0.1807     0.2014    17.7905     0.5827   322.2400    17.4683    -0.0210
 1009   20.160   3030.65    20.1143     0.1177    -0.2265     0.2016    20.0278     0.5990   322.5600    19.7052    -0.0207
 1010   20.180   3031.59    21.0204     0.1234    -0.3006     0.2018    20.9024     0.5950   322.8800    20.5796    -0.0235
 1011   20.200   3032.53    20.9240     0.1294    -0.2899     0.2020    20.7999     0.6152   323.2000    20.4767    -0.0243
 1012   20.220   3033.45    20.6463     0.1358    -0.3001     0.2022    20.5211     0.6531   323.5200    20.1976    -0.0248
 1013   20.240   3034.38    20.0861     0.1468    -0.2939     0.2024    19.9616     0.7191   323.8400    19.6377    -0.0254
 1014   20.260   3035.30    19.2823     0.1555    -0.2833     0.2026    19.1613     0.7879   324.1600    18.8372    -0.0260
 1015   20.280   3036.23    18.5791     0.1539    -0.2772     0.2028    18.4627     0.8123   324.4800    18.1382    -0.0265
 1016   20.300   3037.18    17.8114     0.1559    -0.2653     0.2030    17.6969     0.8684   324.8000    17.3721    -0.0274
 1017   20.320   3038.10    17.3953     0.1459    -0.2401     0.2032    17.2906     0.8283   325.1200    16.9655    -0.0267
 1018   20.340   3039.06    17.1481     0.1180    -0.2010     0.2034    17.0573     0.6877   325.4400    16.7318    -0.0251
 1019   20.360   3039.96    17.0024     0.0941    -0.1074     0.2036    16.9394     0.5503   325.7600    16.6136    -0.0213
 1020   20.380   3040.92    16.6540     0.0893    -0.1033     0.2038    16.6187     0.5312   326.0800    16.2927    -0.0177
 1021   20.400   3041.81    16.4661     0.0917    -0.1560     0.2040    16.4080     0.5564   326.4000    16.0816    -0.0213
 1022   20.420   3042.76    16.0593     0.1018    -0.2128     0.2042    15.9797     0.6238   326.7200    15.6529    -0.0252
 1023   20.440   3043.69    15.3518     0.1095    -0.2604     0.2044    15.2460     0.7018   327.0400    14.9190    -0.0306
 1024   20.460   3044.61    14.5626     0.1258    -0.2477     0.2046    14.4568     0.8479   327.3600    14.1294    -0.0323
 1025   20.480   3045.54    13.8185     0.1414    -0.2481     0.2048    13.7128     1.0100   327.6800    13.3851    -0.0341
 1026   20.500   3046.44    13.2466     0.1376    -0.2398     0.2050    13.1453     1.0324   328.0000    12.8173    -0.0348
 1027   20.520   3047.37    12.6498     0.1101    -0.2272     0.2052    12.5514     0.8690   328.3200    12.2231    -0.0360
 1028   20.540   3048.38    12.1578     0.0998    -0.1854     0.2054    12.0699     0.8178   328.6400    11.7412    -0.0353
 1029   20.560   3049.36    11.7994     0.0780    -0.1480     0.2056    11.7338     0.6599   328.9600    11.4048    -0.0317
 1030   20.580   3050.39    11.4417     0.0712    -0.1801     0.2058    11.3723     0.6215   329.2800    11.0430    -0.0336
 1031   20.600   3051.43    11.4898     0.0844    -0.2053     0.2060    11.4061     0.7348   329.6000    11.0765    -0.0366
 1032   20.620   3052.44    11.5291     0.0942    -0.2236     0.2062    11.4373     0.8170   329.9200    11.1073    -0.0383
 1033   20.640   3053.43    11.3006     0.0956    -0.2268     0.2064    11.2044     0.8430   330.2400    10.8741    -0.0401
 1034   20.660   3054.44    10.7005     0.0983    -0.2340     0.2066    10.5993     0.9159   330.5600    10.2688    -0.0436
 1035   20.680   3055.39    10.0867     0.0957    -0.2185     0.2068     9.9911     0.9433   330.8800     9.6602    -0.0450
 1036   20.700   3056.41     9.3152     0.0910    -0.2144     0.2070     9.2249     0.9756   331.2000     8.8937    -0.0474
 1037   20.720   3057.48     8.9923     0.0868    -0.1589     0.2072     8.9168     0.9601   331.5200     8.5852    -0.0451
 1038   20.740   3058.49     8.4903     0.0978    -0.0582     0.2074     8.4521     1.1501   331.8400     8.1203    -0.0367
 1039   20.760   3059.47     7.8854     0.1138    -0.0525     0.2076     7.8709     1.4393   332.1600     7.5387    -0.0322
 1040   20.780   3060.47     7.3916     0.1150    -0.0555     0.2078     7.3739     1.5214   332.4800     7.0414    -0.0355
 1041   20.800   3061.49     7.2508     0.1081    -0.0280     0.2080     7.2341     1.4991   332.8000     6.9013    -0.0359
 1042   20.820   3062.48     7.3971     0.1013     0.0096     0.2082     7.3892     1.3782   333.1200     7.0560    -0.0322
 1043   20.840   3063.51     7.5276     0.1010     0.0271     0.2084     7.5440     1.3582   333.4400     7.2106    -0.0235
 1044   20.860   3064.54     8.1173     0.0946    -0.0558     0.2086     8.1174     1.2214   333.7600     7.7836    -0.0266
 1045   20.880   3065.57     9.3437     0.0979    -0.0604     0.2088     9.3180     1.0892   334.0800     8.9840    -0.0301
 1046   20.900   3066.59    10.1431     0.0946    -0.0488     0.2090    10.1208     0.9665   334.4000     9.7864    -0.0268
 1047   20.920   3067.63    10.9120     0.0986    -0.0341     0.2092    10.8974     0.9055   334.7200    10.5626    -0.0231
 1048   20.940   3068.64    11.5627     0.1158    -0.0193     0.2094    11.5487     1.0047   335.0400    11.2137    -0.0216
 1049   20.960   3069.66    12.3884     0.1286    -0.0207     0.2096    12.3946     1.0457   335.3600    12.0592    -0.0162
 1050   20.980   3070.70    13.1224     0.1440    -0.1306     0.2098    13.0853     1.1131   335.6800    12.7496    -0.0234
 1051   21.000   3071.74    13.9968     0.1656    -0.2049     0.2100    13.9159     1.2049   336.0000    13.5799    -0.0297
 1052   21.020   3072.72    14.8507     0.1862    -0.2073     0.2102    14.7647     1.2816   336.3200    14.4284    -0.0288
 1053   21.040   3073.71    15.5620     0.2158    -0.2548     0.2104    15.4622     1.4071   336.6400    15.1256    -0.0296
 1054   21.060   3074.65    15.9703     0.2289    -0.2725     0.2106    15.8590     1.4481   336.9600    15.5221    -0.0306
 1055   21.080   3075.59    16.2819     0.2354    -0.2940     0.2108    16.1598     1.4562   337.2800    15.8226    -0.0317
 1056   21.100   3076.57    16.5646     0.2321    -0.2999     0.2110    16.4382     1.4125   337.6000    16.1006    -0.0318
 1057   21.120   3077.49    17.1062     0.2159    -0.3163     0.2112    16.9768     1.2854   337.9200    16.6389    -0.0312
 1058   21.140   3078.43    17.8433     0.1743    -0.3243     0.2114    17.7090     0.9980   338.2400    17.3707    -0.0306
 1059   21.160   3079.37    18.3137     0.1669    -0.3206     0.2116    18.1779     0.9128   338.5600    17.8393    -0.0300
 1060   21.180   3080.34    18.5574     0.1726    -0.3213     0.2118    18.4232     0.9312   338.8800    18.0844    -0.0294
 1061   21.200   3081.28    18.8045     0.1801    -0.3224     0.2120    18.6683     0.9595   339.2000    18.3291    -0.0293
 1062   21.220   3082.21    18.5717     0.1941    -0.3187     0.2122    18.4377     1.0336   339.5200    18.0981    -0.0294
 1063   21.240   3083.11    17.6648     0.2146    -0.3136     0.2124    17.5322     1.1870   339.8400    17.1924    -0.0307
 1064   21.260   3084.02    16.2360     0.2339    -0.3181     0.2126    16.1028     1.3821   340.1600    15.7627    -0.0337
 1065   21.280   3084.90    13.4805     0.2568    -0.3244     0.2128    13.3451     1.8061   340.4800    13.0046    -0.0412
 1066   21.300   3085.86     9.4867     0.2504    -0.3224     0.2130     9.3522     2.5226   340.8000     9.0114    -0.0592
 1067   21.320   3086.80     6.3038     0.2291    -0.3277     0.2132     6.1658     3.4836   341.1200     5.8247    -0.0932
 1068   21.340   3087.78     4.9616     0.2002    -0.3150     0.2134     4.8264     4.0159   341.4400     4.4850    -0.1194
 1069   21.360   3088.79     4.7506     0.1974    -0.2736     0.2136     4.6281     4.1483   341.7600     4.2864    -0.1179
 1070   21.380   3089.75     4.4217     0.1819    -0.2179     0.2138     4.3234     4.0989   342.0800     3.9813    -0.1125
 1071   21.400   3090.74     3.8487     0.1673    -0.1463     0.2140     3.7704     4.3227   342.4000     3.4280    -0.1168
 1072   21.420   3091.80     3.5747     0.1511     0.0436     0.2142     3.5605     4.1794   342.7200     3.2177    -0.0771
 1073   21.440   3092.83     3.0098     0.1180     0.3215     0.2144     3.0949     3.8159   343.0400     2.7519    -0.0042
 1074   21.460   3093.81     2.8171     0.0870     0.5997     0.2146     3.0551     3.0485   343.3600     2.7118     0.1299
 1075   21.480   3094.81     2.3849     0.0677     0.7592     0.2148     2.6779     2.8032   343.6800     2.3342     0.2068
 1076   21.500   3095.81     2.4386     0.0638     0.9870     0.2150     2.8243     2.6305   344.0000     2.4803     0.2836
 1077   21.520   3096.82     2.6935     0.0570     1.0483     0.2152     3.1232     2.1365   344.3200     2.7789     0.2907
 1078   21.540   3097.80     2.8642     0.0771     1.0969     0.2154     3.3202     2.7335   344.6400     2.9756     0.2925
 1079   21.560   3098.82     2.9427     0.0993     1.0663     0.2156     3.4200     3.4142   344.9600     3.0751     0.2995
 1080   21.580   3099.78     3.1365     0.1201     0.9692     0.2158     3.5275     3.8437   345.2800     3.1822     0.2247
 1081   21.600   3100.83     3.8076     0.1271     0.9264     0.2160     4.2109     3.6957   345.6000     3.8653     0.1927
 1082   21.620   3101.84     4.4901     0.1137     0.7843     0.2162     4.8163     2.6631   345.9200     4.4703     0.1254
 1083   21.640   3108.25     4.1494     0.1021     0.8165     0.2164     4.4874     2.3297   346.2400     4.1412     0.1448
 1084   21.660   3119.54     3.7071     0.0953     0.8502     0.2166     4.0593     2.1738   346.5600     3.7128     0.1716
 1085   21.680   3129.45     3.2551     0.0820     0.9568     0.2168     3.6301     2.5024   346.8800     3.2832     0.2064
 1086   21.700   3130.50     2.8705     0.0759     1.1673     0.2170     3.3326     2.6210   347.2000     2.9854     0.2963
 1087   21.720   3131.48     2.5852     0.0794     1.4007     0.2172     3.1439     3.0379   347.5200     2.7964     0.3981
 1088   21.740   3132.48     2.5793     0.0701     1.4596     0.2174     3.1883     2.7624   347.8400     2.8405     0.4340
 1089   21.760   3133.51     2.9188     0.0767     1.3999     0.2176     3.5343     2.7298   348.1600     3.1861     0.3926
 1090   21.780   3134.52     3.2902     0.0822     1.0899     0.2178     3.7689     2.4922   348.4800     3.4204     0.2695
 1091   21.800   3135.52     3.2944     0.0874     1.2149     0.2180     3.7756     2.6718   348.8000     3.4268     0.2708
 1092   21.820   3136.52     3.1334     0.0884     1.3180     0.2182     3.6843     2.7637   349.1200     3.3352     0.3278
 1093   21.840   3137.60     2.8804     0.0814     1.2605     0.2184     3.4424     2.8037   349.4400     3.0930     0.3617
 1094   21.860   3138.61     2.5707     0.0670     1.2393     0.2186     3.0764     2.5752   349.7600     2.7267     0.3618
 1095   21.880   3139.59     2.4322     0.0653     1.4153     0.2188     3.0014     2.6647   350.0800     2.6513     0.4288
 1096   21.900   3140.64     2.4130     0.0582     1.5043     0.2190     3.0419     2.4167   350.4000     2.6915     0.4749
 1097   21.920   3141.57     2.4173     0.0501     1.4482     0.2192     3.0369     2.0686   350.7200     2.6862     0.4676
 1098   21.940   3142.61     2.3689     0.0408     1.4594     0.2194     2.9741     1.7262   351.0400     2.6231     0.4657
 1099   21.960   3143.60     2.3371     0.0403     1.5048     0.2196     2.9671     1.7272   351.3600     2.6157     0.4895
 1100   21.980   3144.59     2.3734     0.0377     1.4975     0.2198     3.0061     1.5934   351.6800     2.6544     0.4848
 1101   22.000   3145.58     2.4533     0.0350     1.5007     0.2200     3.0792     1.4310   352.0000     2.7272     0.4657
 1102   22.020   3146.56     2.4522     0.0335     1.5213     0.2202     3.0874     1.3669   352.3200     2.7351     0.4725
 1103   22.040   3147.54     2.4236     0.0341     1.5857     0.2204     3.0861     1.4030   352.6400     2.7335     0.4965
 1104   22.060   3148.60     2.4375     0.0320     1.5944     0.2206     3.1059     1.3170   352.9600     2.7529     0.4980
 1105   22.080   3149.58     2.4734     0.0386     1.5623     0.2208     3.1375     1.5597   353.2800     2.7842     0.4886
 1106   22.100   3150.61     2.4715     0.0498     1.5092     0.2210     3.1120     2.0145   353.6000     2.7584     0.4728
 1107   22.120   3151.60     2.4825     0.0535     1.5490     0.2212     3.1288     2.1550   353.9200     2.7749     0.4749
 1108   22.140   3152.57     2.5243     0.0545     1.5652     0.2214     3.1844     2.1654   354.2400     2.8302     0.4772
 1109   22.160   3153.54     2.6390     0.0453     1.2660     0.2216     3.2115     1.7143   354.5600     2.8570     0.3992
 1110   22.180   3154.56     2.5609     0.0360     1.1549     0.2218     3.0592     1.4043   354.8800     2.7043     0.3566
 1111   22.200   3155.53     2.4699     0.0402     1.1736     0.2220     2.9457     1.6170   355.2000     2.5905     0.3520
 1112   22.220   3156.59     2.1914     0.0457     1.2857     0.2222     2.7197     2.0790   355.5200     2.3642     0.4382
 1113   22.240   3157.61     2.2088     0.0413     1.3902     0.2224     2.7771     1.8766   355.8400     2.4212     0.4668
 1114   22.260   3158.62     2.4620     0.0415     1.3228     0.2226     3.0321     1.7062   356.1600     2.6759     0.4248
 1115   22.280   3159.62     2.8102     0.0453     1.2711     0.2228     3.3510     1.6232   356.4800     2.9945     0.3558
 1116   22.300   3160.62     2.9760     0.0518     1.2511     0.2230     3.5035     1.7434   356.8000     3.1467     0.3283
 1117   22.320   3161.60     3.0774     0.0677     1.2469     0.2232     3.5990     2.2223   357.1200     3.2419     0.3142
 1118   22.340   3162.61     3.1368     0.0846     1.2915     0.2234     3.6692     2.7477   357.4400     3.3117     0.3153
 1119   22.360   3163.66     3.8033     0.0960     1.2320     0.2236     4.3465     2.5513   357.7600     3.9888     0.2691
 1120   22.380   3164.68     4.7986     0.1006     0.9270     0.2238     5.2309     2.1326   358.0800     4.8728     0.1661
 1121   22.400   3165.68     5.4702     0.0862     0.6685     0.2240     5.7784     1.6363   358.4000     5.4200     0.0943
 1122   22.420   3166.71     5.9457     0.0763     0.6247     0.2242     6.2138     1.2919   358.7200     5.8551     0.0707
 1123   22.440   3167.70     6.3601     0.0783     0.5102     0.2244     6.5879     1.2363   359.0400     6.2288     0.0511
 1124   22.460   3168.71     6.2183     0.0793     0.4385     0.2246     6.4067     1.2688   359.3600     6.0473     0.0370
 1125   22.480   3169.71     5.6064     0.0833     0.5314     0.2248     5.8105     1.4670   359.6800     5.4508     0.0480
 1126   22.500   3170.75     4.5372     0.0791     0.6792     0.2250     4.7851     1.6934   360.0000     4.4251     0.0827
 1127   22.520   3171.71     3.9092     0.0703     0.9649     0.2252     4.2721     1.7910   360.3200     3.9117     0.1636
 1128   22.540   3172.72     3.9603     0.0612     0.9943     0.2254     4.3909     1.5524   360.6400     4.0303     0.1986
 1129   22.560   3173.76     4.4581     0.0495     0.6930     0.2256     4.7784     1.1244   360.9600     4.4175     0.1219
 1130   22.580   3174.72     4.4827     0.0357     0.6336     0.2258     4.7519     0.7943   361.2800     4.3906     0.0945
 1131   22.600   3175.76     4.1792     0.0293     0.6680     0.2260     4.4521     0.6982   361.6000     4.0905     0.1036
 1132   22.620   3176.78     3.9500     0.0420     0.7161     0.2262     4.2412     1.0633   361.9200     3.8793     0.1205
 1133   22.640   3177.79     3.9397     0.0468     0.7261     0.2264     4.2436     1.1892   362.2400     3.8814     0.1281
 1134   22.660   3178.79     3.8946     0.0468     0.7921     0.2266     4.2189     1.1970   362.5600     3.8563     0.1415
 1135   22.680   3179.78     3.9415     0.0451     0.9060     0.2268     4.3065     1.1457   362.8800     3.9436     0.1628
 1136   22.700   3180.78     4.0737     0.0466     0.9746     0.2270     4.4756     1.1783   363.2000     4.1124     0.1775
 1137   22.720   3181.83     4.6726     0.0483     0.8279     0.2272     5.0598     1.0391   363.5200     4.6963     0.1480
 1138   22.740   3182.86     4.6790     0.0509     0.7755     0.2274     4.9967     1.0849   363.8400     4.6329     0.1142
 1139   22.760   3183.84     4.3739     0.0440     0.7807     0.2276     4.6977     1.0029   364.1600     4.3335     0.1254
 1140   22.780   3184.86     4.5991     0.0386     0.7862     0.2278     4.9343     0.8469   364.4800     4.5698     0.1249
 1141   22.800   3185.90     5.1458     0.0389     0.7725     0.2280     5.4700     0.7588   364.8000     5.1052     0.1065
 1142   22.820   3186.90     5.6139     0.0436     0.7435     0.2282     5.9392     0.8058   365.1200     5.5741     0.0981
 1143   22.840   3187.92     6.1439     0.0539     0.6346     0.2284     6.4273     0.8796   365.4400     6.0618     0.0736
 1144   22.860   3188.91     6.0397     0.0552     0.6391     0.2286     6.3081     0.8914   365.7600     5.9423     0.0691
 1145   22.880   3189.88     5.3186     0.0504     0.7431     0.2288     5.6161     0.8964   366.0800     5.2500     0.0914
 1146   22.900   3190.94     4.9955     0.0518     0.7745     0.2290     5.3123     1.0352   366.4000     4.9459     0.1062
 1147   22.920   3191.96     5.1266     0.0550     0.8243     0.2292     5.4787     1.0908   366.7200     5.1120     0.1193
 1148   22.940   3192.98     5.7031     0.0571     0.7086     0.2294     6.0088     1.0042   367.0400     5.6418     0.0884
 1149   22.960   3194.02     6.1127     0.0598     0.6190     0.2296     6.3911     0.9820   367.3600     6.0237     0.0720
 1150   22.980   3194.99     6.3273     0.0512     0.6363     0.2298     6.5879     0.8093   367.6800     6.2202     0.0628
 1151   23.000   3195.99     6.3140     0.0393     0.6130     0.2300     6.5796     0.6198   368.0000     6.2116     0.0648
 1152   23.020   3197.03     5.9846     0.0368     0.6123     0.2302     6.2344     0.6118   368.3200     5.8661     0.0622
 1153   23.040   3198.05     5.8124     0.0382     0.6033     0.2304     6.0674     0.6575   368.6400     5.6987     0.0661
 1154   23.060   3199.05     5.8302     0.0381     0.5853     0.2306     6.0784     0.6537   368.9600     5.7094     0.0631
 1155   23.080   3200.04     5.7024     0.0413     0.5489     0.2308     5.9328     0.7221   369.2800     5.5635     0.0571
 1156   23.100   3201.05     5.3801     0.0373     0.6150     0.2310     5.6278     0.6698   369.6000     5.2582     0.0683
 1157   23.120   3202.08     4.9385     0.0333     0.6809     0.2312     5.2166     0.6705   369.9200     4.8467     0.0890
 1158   23.140   3203.06     4.7031     0.0335     0.7553     0.2314     5.0136     0.7102   370.2400     4.6433     0.1094
 1159   23.160   3204.12     4.6627     0.0387     0.7850     0.2316     4.9894     0.8295   370.5600     4.6188     0.1182
 1160   23.180   3205.13     4.5689     0.0438     0.7635     0.2318     4.8871     0.9568   370.8800     4.5163     0.1165
 1161   23.200   3206.12     4.4298     0.0450     0.8381     0.2320     4.7694     1.0128   371.2000     4.3982     0.1312
 1162   23.220   3207.15     4.2491     0.0356     0.8240     0.2322     4.5987     0.8345   371.5200     4.2272     0.1419
 1163   23.240   3208.14     3.7930     0.0380     0.8386     0.2324     4.1415     0.9396   371.8400     3.7696     0.1587
 1164   23.260   3209.17     3.1697     0.0404     0.9182     0.2326     3.5442     1.2043   372.1600     3.1721     0.2083
 1165   23.280   3210.20     2.6344     0.0435     1.0652     0.2328     3.0596     1.5226   372.4800     2.6871     0.2913
 1166   23.300   3211.20     2.7552     0.0382     1.0393     0.2330     3.2043     1.4910   372.8000     2.8315     0.2961
 1167   23.320   3212.22     3.2896     0.0347     1.0417     0.2332     3.7308     1.0892   373.1200     3.3577     0.2435
 1168   23.340   3213.25     4.1532     0.0365     0.8885     0.2334     4.5535     0.9881   373.4400     4.1800     0.1730
 1169   23.360   3214.26     4.8698     0.0470     0.7457     0.2336     5.2003     0.9675   373.7600     4.8265     0.1147
 1170   23.380   3215.29     4.9044     0.0471     0.6711     0.2338     5.1949     0.9593   374.0800     4.8208     0.0950
 1171   23.400   3216.34     4.6309     0.0379     0.7104     0.2340     4.9312     0.8099   374.4000     4.5568     0.1055
 1172   23.420   3217.32     4.2074     0.0358     0.6593     0.2342     4.4821     0.8439   374.7200     4.1074     0.1022
 1173   23.440   3218.30     3.4554     0.0382     0.7610     0.2344     3.7480     1.0990   375.0400     3.3729     0.1371
 1174   23.460   3219.33     3.1304     0.0439     0.8862     0.2346     3.4873     1.3979   375.3600     3.1120     0.1977
 1175   23.480   3220.29     3.1732     0.0470     0.8741     0.2348     3.5560     1.5125   375.6800     3.1803     0.2128
 1176   23.500   3221.28     3.3549     0.0413     0.8817     0.2350     3.7246     1.2271   376.0000     3.3486     0.1927
 1177   23.520   3222.34     3.2656     0.0391     0.8513     0.2352     3.6171     1.1974   376.3200     3.2408     0.1857
 1178   23.540   3223.39     2.9440     0.0446     0.9670     0.2354     3.3260     1.5877   376.6400     2.9494     0.2292
 1179   23.560   3224.35     2.5075     0.0500     1.1048     0.2356     2.9480     1.9781   376.9600     2.5710     0.3163
 1180   23.580   3225.37     2.3528     0.0550     1.2391     0.2358     2.8515     2.3335   377.2800     2.4742     0.3845
 1181   23.600   3226.39     2.6805     0.0572     1.3322     0.2360     3.2368     2.2917   377.6000     2.8592     0.3819
 1182   23.620   3227.42     4.1525     0.0646     1.1549     0.2362     4.6783     1.9508   377.9200     4.3003     0.2390
 1183   23.640   3234.19     7.2061     0.0681     0.7634     0.2364     7.5840     1.3118   378.2400     7.2057     0.1312
 1184   23.660   3244.40    10.4482     0.0717     0.3680     0.2366    10.6601     1.3813   378.5600    10.2815     0.0661
 1185   23.680   3254.61    13.6903     0.0964    -0.0125     0.2368    13.7361     1.7509   378.8800    13.3572     0.0010
 1186   23.700   3258.11    16.2511     0.1159    -0.1262     0.2370    16.2023     0.7359   379.2000    15.8231    -0.0223
 1187   23.720   3259.11    18.1086     0.1360    -0.0947     0.2372    18.0655     0.7694   379.5200    17.6860    -0.0192
 1188   23.740   3260.06    19.8485     0.1502     0.0239     0.2374    19.8457     0.7713   379.8400    19.4658    -0.0126
 1189   23.760   3261.04    21.3369     0.1530     0.0811     0.2376    21.3615     0.7310   380.1600    20.9813    -0.0086
 1190   23.780   3261.99    23.1189     0.1785    -0.0746     0.2378    23.1102     0.7882   380.4800    22.7297    -0.0114
 1191   23.800   3262.97    24.8846     0.2199    -0.2228     0.2380    24.7973     0.8961   380.8000    24.4165    -0.0183
 1192   23.820   3263.97    26.0010     0.2505    -0.2679     0.2382    25.8916     0.9715   381.1200    25.5104    -0.0195
 1193   23.840   3264.92    26.7868     0.2609    -0.2557     0.2384    26.6775     0.9798   381.4400    26.2961    -0.0190
 1194   23.860   3265.93    27.9445     0.2819    -0.2244     0.2386    27.8478     1.0173   381.7600    27.4660    -0.0171
 1195   23.880   3266.86    28.7513     0.3093    -0.2138     0.2388    28.6589     1.0767   382.0800    28.2768    -0.0162
 1196   23.900   3267.87    29.2928     0.3395    -0.1759     0.2390    29.2156     1.1680   382.4000    28.8332    -0.0147
 1197   23.920   3268.87    30.3725     0.3812    -0.1442     0.2392    30.3014     1.2772   382.7200    29.9187    -0.0137
 1198   23.940   3269.84    32.2108     0.4066    -0.0721     0.2394    32.1718     1.2939   383.0400    31.7888    -0.0105
 1199   23.960   3270.88    34.6263     0.4426    -0.0300     0.2396    34.6060     1.3139   383.3600    34.2227    -0.0084
 1200   23.980   3271.92    37.5633     0.4993     0.0682     0.2398    37.5827     1.3722   383.6800    37.1991    -0.0052
 1201   24.000   3272.97    40.0593     0.5566     0.2030     0.2400    40.1214     1.4165   384.0000    39.7374    -0.0023
 1202   24.020   3274.02    42.0693                0.2418     0.2402    42.1612              384.3200    41.7768    -0.0005
 1203   24.040   3275.08    44.4037                0.1037     0.2404    44.4573              384.6400    44.0727    -0.0025
 1204   24.060   3276.10    46.0044                0.1838     0.2406    46.0747              384.9600    45.6897    -0.0016
 1205   24.080   3277.15    47.3152                0.2434     0.2408    47.3994              385.2800    47.0141    -0.0009
 1206   24.100   3278.22    48.7377                0.2611     0.2410    48.8416              385.6000    48.4560     0.0001
 1207   24.120   3279.33    50.0421                           0.2412    50.1661              385.9200    49.7802     0.0011
 
 
