

 Program UNIPLOT                         version 05.36.02
 _______________
 (c) Fugro Netherlands Marine, Nootdorp, The Netherlands


 ASCII representation of data plotted on a graph.

 This ASCII file presents data interpolated to values per fixed depth interval.
 The data are corrected for the depth-offset differences between the various 
 transducers in the penetrometer.

 The records at the start of penetration may include no values or anomalous
 values where a depth offset implies incomplete penetration of a particular
 sensor into the ground.

 The records at the end of penetration may include no values for data channels
 where the transducer did not reach this depth.

 The reference level for test values is (1) the ground surface for onshore tests and (2) the seafloor for nearshore and offshore tests.

 UNICAS data file          : CPT-1018.000                            
 Output using command file : PlotASCII.cmd

 ASCII file created at : date          :18-Mar-2022
                         time          :13:59:41
 Project number                        :20024805                                                                                            
 Date of testing                       :17-Mar-2022                                                                                         
 Location                              :Hong Kong Offshore Wind Farm Project                                                                
 Test name                             :CPT-1018
 Penetrometer                          :F7.5CKE2HAW2/B/3342
 Serial no                             :1701-3342

 Table description:
 Column ID                             :Parameter name
 ___________________________________________________________________________________
 Rec                                   :Record ID, Record ID [-]
 Depth                                 :Depth, Depth [m]
 Time                                  :Time, Time [s]
 Cone                                  :Cone Resistance, Cone Resistance [MPa]
 Friction                              :Sleeve Friction, Sleeve Friction [MPa]
 Pore 2                                :Porewater Pressure, Porewater Pressure at Shoulder [MPa]
 HydroPress                            :Hydrostatic Pressure, Hydrostatic Pressure [MPa]
 qt                                    :Total Cone Resistance, Total Cone Resistance [MPa]
 Fric_ratio                            :Friction Ratio, Friction Ratio [%]
 SigmaVert                             :Vertical stress, Vertical stress [kPa] as specified in ground model
 Qnet                                  :Net Cone Resistance, Net Cone Resistance [MPa], unit weight as specified in ground model
 Bq                                    :Porewater Pressure Ratio, Porewater Pressure Ratio [-], unit weight as specified in ground model


 Data table:
  Rec    Depth      Time       Cone   Friction     Pore 2 HydroPress         qt Fric_ratio  SigmaVert       Qnet         Bq
   No        m         s        MPa        MPa        MPa        MPa        MPa          %        kPa        MPa          -
    1    0.000   1991.78     0.0000                           0.0000     0.0000                0.0000     0.0000           
    2    0.020   1992.69     0.0044               -0.0002     0.0002     0.0043                0.3200     0.0039    -0.1225
    3    0.040   1995.30     0.0106               -0.0006     0.0004     0.0105                0.6400     0.0098    -0.0849
    4    0.060   1999.61     0.0117               -0.0011     0.0006     0.0113                0.9600     0.0104    -0.1474
    5    0.080   2002.25     0.0117     0.0006    -0.0026     0.0008     0.0108     4.6810     1.2800     0.0095    -0.3040
    6    0.100   2003.16     0.0097     0.0007    -0.0040     0.0010     0.0080     6.3915     1.6000     0.0064    -0.8116
    7    0.120   2004.07     0.0093     0.0007    -0.0046     0.0012     0.0074     7.3915     1.9200     0.0055    -1.0344
    8    0.140   2004.99     0.0099     0.0007    -0.0033     0.0014     0.0084     6.9539     2.2400     0.0062    -0.8043
    9    0.160   2005.95     0.0115     0.0009    -0.0012     0.0016     0.0108     8.8646     2.5600     0.0083    -0.3830
   10    0.180   2006.91     0.0133     0.0010    -0.0001     0.0018     0.0131     7.8802     2.8800     0.0102    -0.2297
   11    0.200   2007.92     0.0138     0.0011    -0.0017     0.0020     0.0133     7.7857     3.2000     0.0101    -0.3124
   12    0.220   2008.97     0.0143     0.0011    -0.0010     0.0022     0.0138     7.7074     3.5200     0.0103    -0.3458
   13    0.240   2010.01     0.0154     0.0011    -0.0008     0.0024     0.0149     7.3669     3.8400     0.0111    -0.3226
   14    0.260   2011.03     0.0156     0.0011     0.0010     0.0026     0.0158     7.2550     4.1600     0.0117    -0.1722
   15    0.280   2012.03     0.0178     0.0012     0.0026     0.0028     0.0186     6.5369     4.4800     0.0141    -0.0599
   16    0.300   2013.03     0.0193     0.0012     0.0035     0.0030     0.0207     6.0999     4.8000     0.0159     0.0313
   17    0.320   2014.06     0.0209     0.0012     0.0032     0.0032     0.0223     5.5519     5.1200     0.0172     0.0118
   18    0.340   2015.06     0.0224     0.0013     0.0011     0.0034     0.0233     6.0208     5.4400     0.0179    -0.0684
   19    0.360   2016.06     0.0226     0.0014    -0.0024     0.0036     0.0219     6.3614     5.7600     0.0161    -0.3311
   20    0.380   2017.06     0.0241     0.0012    -0.0010     0.0038     0.0234     5.1865     6.0800     0.0173    -0.3161
   21    0.400   2018.06     0.0230     0.0012     0.0005     0.0040     0.0232     5.2649     6.4000     0.0168    -0.2077
   22    0.420   2019.10     0.0211     0.0012    -0.0006     0.0042     0.0209     5.5636     6.7200     0.0142    -0.3404
   23    0.440   2020.08     0.0174     0.0011     0.0001     0.0044     0.0171     6.1733     7.0400     0.0100    -0.5159
   24    0.460   2021.07     0.0115     0.0011     0.0045     0.0046     0.0129     9.3238     7.3600     0.0055    -0.2140
   25    0.480   2022.07     0.0129     0.0011     0.0036     0.0048     0.0147     9.3577     7.6800     0.0070    -0.0700
   26    0.500   2023.07     0.0163     0.0011     0.0020     0.0050     0.0172     7.0900     8.0000     0.0092    -0.3023
   27    0.520   2024.07     0.0180     0.0013     0.0039     0.0052     0.0194     7.1268     8.3200     0.0110    -0.1686
   28    0.540   2025.08     0.0195     0.0015     0.0048     0.0054     0.0215     7.5805     8.6400     0.0129    -0.0406
   29    0.560   2026.08     0.0191     0.0015     0.0054     0.0056     0.0211     7.6287     8.9600     0.0121    -0.0693
   30    0.580   2027.08     0.0209     0.0016     0.0058     0.0058     0.0237     7.5721     9.2800     0.0144     0.0658
   31    0.600   2028.08     0.0226     0.0017     0.0064     0.0060     0.0246     7.5167     9.6000     0.0150    -0.0890
   32    0.620   2029.10     0.0225     0.0017     0.0082     0.0062     0.0258     7.6581     9.9200     0.0159     0.0982
   33    0.640   2030.10     0.0214     0.0017     0.0090     0.0064     0.0251     7.6570    10.2400     0.0149     0.1631
   34    0.660   2031.10     0.0211     0.0016     0.0094     0.0066     0.0250     7.6769    10.5600     0.0145     0.1847
   35    0.680   2032.10     0.0213     0.0015     0.0097     0.0068     0.0253     6.9788    10.8800     0.0144     0.1851
   36    0.700   2033.10     0.0191     0.0015     0.0095     0.0070     0.0233     7.6665    11.2000     0.0121     0.2549
   37    0.720   2034.08     0.0177     0.0014     0.0090     0.0072     0.0213     8.0331    11.5200     0.0098     0.1443
   38    0.740   2035.09     0.0160     0.0014     0.0098     0.0074     0.0201     8.5736    11.8400     0.0083     0.2955
   39    0.760   2036.10     0.0163     0.0014     0.0092     0.0076     0.0202     8.1725    12.1600     0.0081     0.2241
   40    0.780   2037.09     0.0157     0.0015     0.0086     0.0078     0.0193     9.4122    12.4800     0.0068     0.1289
   41    0.800   2038.06     0.0132     0.0016     0.0088     0.0080     0.0169    11.9929    12.8000     0.0041     0.1797
   42    0.820   2039.08     0.0119     0.0016     0.0096     0.0082     0.0158    13.4792    13.1200     0.0027     0.4095
   43    0.840   2040.09     0.0154     0.0018     0.0099     0.0084     0.0195    12.6470    13.4400     0.0060     0.2132
   44    0.860   2041.06     0.0210     0.0020     0.0116     0.0086     0.0257    11.1600    13.7600     0.0119     0.2045
   45    0.880   2042.06     0.0221     0.0022     0.0136     0.0088     0.0275     9.9617    14.0800     0.0134     0.3050
   46    0.900   2043.07     0.0217     0.0021     0.0137     0.0090     0.0275     9.5179    14.4000     0.0131     0.3691
   47    0.920   2044.04     0.0229     0.0020     0.0137     0.0092     0.0286     8.8503    14.7200     0.0139     0.3162
   48    0.940   2049.99     0.0245     0.0020     0.0135     0.0094     0.0302     8.2373    15.0400     0.0152     0.2845
   49    0.960   2070.41     0.0260     0.0019     0.0130     0.0096     0.0315     8.0170    15.3600     0.0162     0.2268
   50    0.980   2090.84     0.0275     0.0018     0.0129     0.0098     0.0329     7.0466    15.6800     0.0172     0.1692
   51    1.000   2094.57     0.0290     0.0017     0.0130     0.0100     0.0345     5.8136    16.0000     0.0185     0.1732
   52    1.020   2095.55     0.0308     0.0017     0.0133     0.0102     0.0362     5.3694    16.3200     0.0199     0.1409
   53    1.040   2096.55     0.0294     0.0016     0.0124     0.0104     0.0350     5.4205    16.6400     0.0183     0.1514
   54    1.060   2097.55     0.0281     0.0016     0.0137     0.0106     0.0334     5.6606    16.9600     0.0164     0.1189
   55    1.080   2098.58     0.0277     0.0016     0.0141     0.0108     0.0339     5.8295    17.2800     0.0166     0.2410
   56    1.100   2099.55     0.0282     0.0017     0.0129     0.0110     0.0333     5.8833    17.6000     0.0157     0.0777
   57    1.120   2100.55     0.0277     0.0017     0.0164     0.0112     0.0343     6.1117    17.9200     0.0164     0.2673
   58    1.140   2101.58     0.0266     0.0018     0.0172     0.0114     0.0339     6.5983    18.2400     0.0157     0.3824
   59    1.160   2102.56     0.0268     0.0017     0.0137     0.0116     0.0330     6.3197    18.5600     0.0145     0.2097
   60    1.180   2103.54     0.0272     0.0018     0.0163     0.0118     0.0336     6.5965    18.8800     0.0148     0.2316
   61    1.200   2104.54     0.0272     0.0018     0.0177     0.0120     0.0345     6.5050    19.2000     0.0153     0.3554
   62    1.220   2105.53     0.0278     0.0018     0.0177     0.0122     0.0350     6.6880    19.5200     0.0155     0.3264
   63    1.240   2106.54     0.0294     0.0017     0.0197     0.0124     0.0375     5.8859    19.8400     0.0176     0.3905
   64    1.260   2107.56     0.0323     0.0016     0.0207     0.0126     0.0409     5.0557    20.1600     0.0207     0.3765
   65    1.280   2108.52     0.0334     0.0017     0.0217     0.0128     0.0424     5.0500    20.4800     0.0219     0.3915
   66    1.300   2109.51     0.0351     0.0017     0.0228     0.0130     0.0445     4.7893    20.8000     0.0237     0.4039
   67    1.320   2110.52     0.0361     0.0017     0.0240     0.0132     0.0461     4.6857    21.1200     0.0250     0.4230
   68    1.340   2111.50     0.0365     0.0018     0.0225     0.0134     0.0466     5.0036    21.4400     0.0251     0.4164
   69    1.360   2112.50     0.0398     0.0019     0.0218     0.0136     0.0483     4.7131    21.7600     0.0265     0.2533
   70    1.380   2113.47     0.0411     0.0019     0.0242     0.0138     0.0512     4.6793    22.0800     0.0292     0.3567
   71    1.400   2114.49     0.0441     0.0020     0.0231     0.0140     0.0536     4.5054    22.4000     0.0312     0.2747
   72    1.420   2115.49     0.0465     0.0020     0.0260     0.0142     0.0569     4.2884    22.7200     0.0342     0.3085
   73    1.440   2116.49     0.0480     0.0021     0.0237     0.0144     0.0583     4.2516    23.0400     0.0352     0.2845
   74    1.460   2117.50     0.0446     0.0018     0.0254     0.0146     0.0549     3.8852    23.3600     0.0315     0.3157
   75    1.480   2118.49     0.0429     0.0019     0.0271     0.0148     0.0540     4.3503    23.6800     0.0304     0.3830
   76    1.500   2119.46     0.0438     0.0018     0.0280     0.0150     0.0553     4.1082    24.0000     0.0313     0.3993
   77    1.520   2120.46     0.0439     0.0019     0.0297     0.0152     0.0560     4.3266    24.3200     0.0316     0.4251
   78    1.540   2121.45     0.0449     0.0019     0.0312     0.0154     0.0578     4.1727    24.6400     0.0332     0.4644
   79    1.560   2122.45     0.0447     0.0020     0.0318     0.0156     0.0580     4.4024    24.9600     0.0330     0.4845
   80    1.580   2123.47     0.0476     0.0019     0.0330     0.0158     0.0611     4.0643    25.2800     0.0358     0.4601
   81    1.600   2124.47     0.0508     0.0019     0.0358     0.0160     0.0654     3.8857    25.6000     0.0398     0.4744
   82    1.620   2125.46     0.0535     0.0021     0.0377     0.0162     0.0690     3.9651    25.9200     0.0431     0.4817
   83    1.640   2126.47     0.0555     0.0022     0.0364     0.0164     0.0711     4.0195    26.2400     0.0449     0.4639
   84    1.660   2127.44     0.0560     0.0022     0.0353     0.0166     0.0703     3.8851    26.5600     0.0438     0.4017
   85    1.680   2128.44     0.0569     0.0024     0.0379     0.0168     0.0725     4.3390    26.8800     0.0456     0.4475
   86    1.700   2129.44     0.0570     0.0024     0.0404     0.0170     0.0736     4.2975    27.2000     0.0464     0.4845
   87    1.720   2130.44     0.0580     0.0022     0.0417     0.0172     0.0755     3.8055    27.5200     0.0480     0.5091
   88    1.740   2131.42     0.0588     0.0019     0.0436     0.0174     0.0767     3.2511    27.8400     0.0489     0.5174
   89    1.760   2132.45     0.0590     0.0018     0.0445     0.0176     0.0776     3.1275    28.1600     0.0495     0.5402
   90    1.780   2133.40     0.0596     0.0017     0.0480     0.0178     0.0793     2.9211    28.4800     0.0508     0.5709
   91    1.800   2134.40     0.0627     0.0018     0.0506     0.0180     0.0837     2.9421    28.8000     0.0549     0.5805
   92    1.820   2135.40     0.0655     0.0019     0.0519     0.0182     0.0872     2.8940    29.1200     0.0580     0.5742
   93    1.840   2136.40     0.0686     0.0019     0.0515     0.0184     0.0905     2.8102    29.4400     0.0610     0.5504
   94    1.860   2137.37     0.0727     0.0019     0.0502     0.0186     0.0941     2.6510    29.7600     0.0644     0.5018
   95    1.880   2138.37     0.0713     0.0020     0.0484     0.0188     0.0920     2.7817    30.0800     0.0619     0.4919
   96    1.900   2139.36     0.0737     0.0021     0.0505     0.0190     0.0950     2.8890    30.4000     0.0646     0.4890
   97    1.920   2140.32     0.0732     0.0022     0.0515     0.0192     0.0937     2.9653    30.7200     0.0630     0.4725
   98    1.940   2141.32     0.0744     0.0023     0.0518     0.0194     0.0969     3.1022    31.0400     0.0658     0.5167
   99    1.960   2142.32     0.0761     0.0024     0.0528     0.0196     0.0978     3.2246    31.3600     0.0664     0.4826
  100    1.980   2143.35     0.0780     0.0024     0.0534     0.0198     0.1003     3.0915    31.6800     0.0686     0.4830
  101    2.000   2144.35     0.0809     0.0025     0.0526     0.0200     0.1032     3.0998    32.0000     0.0712     0.4646
  102    2.020   2145.35     0.0839     0.0025     0.0494     0.0202     0.1048     2.9808    32.3200     0.0724     0.4065
  103    2.040   2146.32     0.0857     0.0025     0.0477     0.0204     0.1056     2.9311    32.6400     0.0729     0.3694
  104    2.060   2147.27     0.0849     0.0027     0.0490     0.0206     0.1051     3.1404    32.9600     0.0721     0.3808
  105    2.080   2148.30     0.0854     0.0027     0.0515     0.0208     0.1064     3.2232    33.2800     0.0731     0.3996
  106    2.100   2149.30     0.0861     0.0027     0.0539     0.0210     0.1083     3.1748    33.6000     0.0747     0.4262
  107    2.120   2150.31     0.0916     0.0028     0.0569     0.0212     0.1150     3.1036    33.9200     0.0810     0.4233
  108    2.140   2151.31     0.0984     0.0028     0.0541     0.0214     0.1214     2.8498    34.2400     0.0872     0.3836
  109    2.160   2152.31     0.1045     0.0027     0.0566     0.0216     0.1281     2.6197    34.5600     0.0936     0.3706
  110    2.180   2153.31     0.1071     0.0027     0.0588     0.0218     0.1316     2.5531    34.8800     0.0967     0.3777
  111    2.200   2154.25     0.1041     0.0028     0.0569     0.0220     0.1283     2.7021    35.2000     0.0931     0.3823
  112    2.220   2155.25     0.1034     0.0028     0.0561     0.0222     0.1273     2.6798    35.5200     0.0918     0.3778
  113    2.240   2156.22     0.1058     0.0028     0.0557     0.0224     0.1291     2.6184    35.8400     0.0932     0.3544
  114    2.260   2157.22     0.1036     0.0026     0.0584     0.0226     0.1281     2.5308    36.1600     0.0919     0.3893
  115    2.280   2158.22     0.1037     0.0026     0.0577     0.0228     0.1276     2.5125    36.4800     0.0911     0.3722
  116    2.300   2159.22     0.1021     0.0025     0.0611     0.0230     0.1271     2.4666    36.8000     0.0903     0.4054
  117    2.320   2160.22     0.1011     0.0024     0.0631     0.0232     0.1272     2.3484    37.1200     0.0900     0.4313
  118    2.340   2161.17     0.1017     0.0024     0.0627     0.0234     0.1277     2.3493    37.4400     0.0903     0.4263
  119    2.360   2162.19     0.1023     0.0021     0.0645     0.0236     0.1292     2.0745    37.7600     0.0914     0.4412
  120    2.380   2163.18     0.1036     0.0018     0.0645     0.0238     0.1315     1.7645    38.0800     0.0934     0.4559
  121    2.400   2164.18     0.1090     0.0018     0.0649     0.0240     0.1362     1.6444    38.4000     0.0978     0.4163
  122    2.420   2165.15     0.1196     0.0017     0.0633     0.0242     0.1462     1.4309    38.7200     0.1075     0.3652
  123    2.440   2166.14     0.1222     0.0014     0.0648     0.0244     0.1494     1.1577    39.0400     0.1103     0.3654
  124    2.460   2167.15     0.1299     0.0016     0.0587     0.0246     0.1564     1.2237    39.3600     0.1170     0.3292
  125    2.480   2168.10     0.1445     0.0018     0.0493     0.0248     0.1659     1.2545    39.6800     0.1262     0.2077
  126    2.500   2169.13     0.1452     0.0023     0.0499     0.0250     0.1652     1.6028    40.0000     0.1252     0.1818
  127    2.520   2170.13     0.1316     0.0025     0.0447     0.0252     0.1521     1.8494    40.3200     0.1118     0.2098
  128    2.540   2171.11     0.1282     0.0023     0.0298     0.0254     0.1404     1.7747    40.6400     0.0997     0.0345
  129    2.560   2172.10     0.1316     0.0021     0.0393     0.0256     0.1473     1.6286    40.9600     0.1063     0.1097
  130    2.580   2173.11     0.1346     0.0026     0.0470     0.0258     0.1532     1.9165    41.2800     0.1120     0.1649
  131    2.600   2174.13     0.1386     0.0028     0.0550     0.0260     0.1607     1.9916    41.6000     0.1191     0.2221
  132    2.620   2175.09     0.1418     0.0030     0.0582     0.0262     0.1662     2.1081    41.9200     0.1243     0.2574
  133    2.640   2176.09     0.1420     0.0030     0.0577     0.0264     0.1661     2.1028    42.2400     0.1239     0.2509
  134    2.660   2177.09     0.1380     0.0030     0.0481     0.0266     0.1599     2.1812    42.5600     0.1173     0.2157
  135    2.680   2178.10     0.1324     0.0032     0.0488     0.0268     0.1527     2.4208    42.8800     0.1098     0.1949
  136    2.700   2179.10     0.1248     0.0030     0.0521     0.0270     0.1460     2.4168    43.2000     0.1028     0.2277
  137    2.720   2180.10     0.1212     0.0028     0.0553     0.0272     0.1440     2.3393    43.5200     0.1005     0.2690
  138    2.740   2181.11     0.1207     0.0028     0.0523     0.0274     0.1433     2.3186    43.8400     0.0995     0.2650
  139    2.760   2182.11     0.1207     0.0028     0.0533     0.0276     0.1427     2.2916    44.1600     0.0986     0.2521
  140    2.780   2183.08     0.1188     0.0027     0.0523     0.0278     0.1409     2.2333    44.4800     0.0964     0.2575
  141    2.800   2184.08     0.1212     0.0025     0.0486     0.0280     0.1425     2.0991    44.8000     0.0977     0.2320
  142    2.820   2185.08     0.1262     0.0027     0.0490     0.0282     0.1462     2.1432    45.1200     0.1011     0.1919
  143    2.840   2186.08     0.1298     0.0027     0.0462     0.0284     0.1497     2.1166    45.4400     0.1043     0.1828
  144    2.860   2187.06     0.1363     0.0027     0.0510     0.0286     0.1575     2.0088    45.7600     0.1117     0.1965
  145    2.880   2188.06     0.1389     0.0032     0.0541     0.0288     0.1608     2.2837    46.0800     0.1148     0.2043
  146    2.900   2189.04     0.1403     0.0038     0.0535     0.0290     0.1627     2.6515    46.4000     0.1163     0.2098
  147    2.920   2190.04     0.1456     0.0043     0.0577     0.0292     0.1694     2.9894    46.7200     0.1227     0.2244
  148    2.940   2191.05     0.1507     0.0042     0.0586     0.0294     0.1746     2.8197    47.0400     0.1275     0.2148
  149    2.960   2192.06     0.1533     0.0041     0.0610     0.0296     0.1784     2.6851    47.3600     0.1311     0.2305
  150    2.980   2199.24     0.1567     0.0040     0.0659     0.0298     0.1841     2.5815    47.6800     0.1364     0.2590
  151    3.000   2219.26     0.1607     0.0039     0.0679     0.0300     0.1889     2.5213    48.0000     0.1409     0.2638
  152    3.020   2239.28     0.1647     0.0038     0.0702     0.0302     0.1938     2.4081    48.3200     0.1455     0.2686
  153    3.040   2246.41     0.1689     0.0033     0.0764     0.0304     0.2010     1.9715    48.6400     0.1523     0.3011
  154    3.060   2247.40     0.1749     0.0032     0.0774     0.0306     0.2073     1.8221    48.9600     0.1583     0.2943
  155    3.080   2248.42     0.1811     0.0037     0.0786     0.0308     0.2137     2.0289    49.2800     0.1644     0.2850
  156    3.100   2249.43     0.1859     0.0038     0.0798     0.0310     0.2194     2.0564    49.6000     0.1698     0.2874
  157    3.120   2250.40     0.1887     0.0040     0.0772     0.0312     0.2218     2.1363    49.9200     0.1719     0.2762
  158    3.140   2251.41     0.1886     0.0038     0.0726     0.0314     0.2199     2.0004    50.2400     0.1697     0.2546
  159    3.160   2252.37     0.1854     0.0038     0.0636     0.0316     0.2114     2.0468    50.5600     0.1609     0.1886
  160    3.180   2253.39     0.1784     0.0039     0.0769     0.0318     0.2093     2.1690    50.8800     0.1584     0.2635
  161    3.200   2254.38     0.1751     0.0041     0.0787     0.0320     0.2081     2.3225    51.2000     0.1569     0.2964
  162    3.220   2255.38     0.1712     0.0039     0.0821     0.0322     0.2053     2.2475    51.5200     0.1538     0.3185
  163    3.240   2256.35     0.1690     0.0039     0.0815     0.0324     0.2036     2.3003    51.8400     0.1518     0.3294
  164    3.260   2257.37     0.1674     0.0037     0.0811     0.0326     0.2015     2.2288    52.1600     0.1493     0.3255
  165    3.280   2258.37     0.1620     0.0038     0.0823     0.0328     0.1966     2.3528    52.4800     0.1441     0.3446
  166    3.300   2259.33     0.1592     0.0041     0.0832     0.0330     0.1938     2.5605    52.8000     0.1410     0.3498
  167    3.320   2260.32     0.1544     0.0037     0.0832     0.0332     0.1894     2.4185    53.1200     0.1363     0.3677
  168    3.340   2261.33     0.1518     0.0039     0.0833     0.0334     0.1872     2.5353    53.4400     0.1337     0.3806
  169    3.360   2262.32     0.1506     0.0039     0.0839     0.0336     0.1861     2.5741    53.7600     0.1324     0.3852
  170    3.380   2263.33     0.1510     0.0038     0.0815     0.0338     0.1859     2.4941    54.0800     0.1318     0.3746
  171    3.400   2264.28     0.1495     0.0037     0.0847     0.0340     0.1842     2.4460    54.4000     0.1298     0.3742
  172    3.420   2265.28     0.1489     0.0038     0.0811     0.0342     0.1828     2.5437    54.7200     0.1281     0.3639
  173    3.440   2266.28     0.1499     0.0038     0.0799     0.0344     0.1840     2.5169    55.0400     0.1290     0.3624
  174    3.460   2267.25     0.1497     0.0040     0.0836     0.0346     0.1835     2.6798    55.3600     0.1282     0.3594
  175    3.480   2268.25     0.1509     0.0039     0.0870     0.0348     0.1875     2.6047    55.6800     0.1319     0.3977
  176    3.500   2269.29     0.1553     0.0038     0.0877     0.0350     0.1920     2.4750    56.0000     0.1360     0.3852
  177    3.520   2270.24     0.1621     0.0039     0.0882     0.0352     0.1991     2.4466    56.3200     0.1428     0.3709
  178    3.540   2271.26     0.1607     0.0038     0.0842     0.0354     0.1958     2.3539    56.6400     0.1391     0.3463
  179    3.560   2272.21     0.1607     0.0037     0.0854     0.0356     0.1964     2.3091    56.9600     0.1395     0.3548
  180    3.580   2273.24     0.1582     0.0037     0.0828     0.0358     0.1938     2.3153    57.2800     0.1365     0.3575
  181    3.600   2274.24     0.1602     0.0035     0.0835     0.0360     0.1947     2.1724    57.6000     0.1371     0.3361
  182    3.620   2275.20     0.1595     0.0034     0.0837     0.0362     0.1942     2.1140    57.9200     0.1362     0.3402
  183    3.640   2276.20     0.1623     0.0036     0.0911     0.0364     0.1993     2.2216    58.2400     0.1411     0.3672
  184    3.660   2277.20     0.1627     0.0035     0.0938     0.0366     0.2020     2.1395    58.5600     0.1435     0.3977
  185    3.680   2278.19     0.1652     0.0035     0.0943     0.0368     0.2046     2.1275    58.8800     0.1457     0.3910
  186    3.700   2279.19     0.1639     0.0036     0.0939     0.0370     0.2037     2.2126    59.2000     0.1445     0.3991
  187    3.720   2280.15     0.1601     0.0038     0.0950     0.0372     0.1998     2.3570    59.5200     0.1403     0.4089
  188    3.740   2281.15     0.1593     0.0039     0.0970     0.0374     0.1996     2.4581    59.8400     0.1397     0.4188
  189    3.760   2282.15     0.1638     0.0041     0.0959     0.0376     0.2043     2.5274    60.1600     0.1441     0.4087
  190    3.780   2283.11     0.1700     0.0040     0.0913     0.0378     0.2090     2.3544    60.4800     0.1485     0.3706
  191    3.800   2284.12     0.1763     0.0040     0.0911     0.0380     0.2151     2.2961    60.8000     0.1543     0.3519
  192    3.820   2285.10     0.1811     0.0039     0.0911     0.0382     0.2188     2.1559    61.1200     0.1577     0.3262
  193    3.840   2286.06     0.1815     0.0036     0.0958     0.0384     0.2208     1.9656    61.4400     0.1594     0.3460
  194    3.860   2287.07     0.1870     0.0037     0.0980     0.0386     0.2282     1.9956    61.7600     0.1664     0.3575
  195    3.880   2288.06     0.1982     0.0036     0.1010     0.0388     0.2405     1.8149    62.0800     0.1785     0.3479
  196    3.900   2289.02     0.2032     0.0037     0.0984     0.0390     0.2450     1.8234    62.4000     0.1826     0.3321
  197    3.920   2290.02     0.2046     0.0036     0.0816     0.0392     0.2415     1.7423    62.7200     0.1788     0.2721
  198    3.940   2291.03     0.2059     0.0038     0.0774     0.0394     0.2384     1.8255    63.0400     0.1753     0.2162
  199    3.960   2292.02     0.1992     0.0038     0.0878     0.0396     0.2350     1.8773    63.3600     0.1717     0.2660
  200    3.980   2292.99     0.1986     0.0038     0.0893     0.0398     0.2363     1.9385    63.6800     0.1727     0.2899
  201    4.000   2294.00     0.1975     0.0037     0.0879     0.0400     0.2346     1.8850    64.0000     0.1706     0.2830
  202    4.020   2295.00     0.1915     0.0037     0.0863     0.0402     0.2278     1.9463    64.3200     0.1634     0.2815
  203    4.040   2295.99     0.1848     0.0037     0.0870     0.0404     0.2204     1.9943    64.6400     0.1557     0.2846
  204    4.060   2296.97     0.1816     0.0038     0.0917     0.0406     0.2198     2.1129    64.9600     0.1549     0.3262
  205    4.080   2297.96     0.1787     0.0037     0.0917     0.0408     0.2169     2.0825    65.2800     0.1516     0.3300
  206    4.100   2298.96     0.1742     0.0035     0.0937     0.0410     0.2132     2.0226    65.6000     0.1476     0.3507
  207    4.120   2299.92     0.1714     0.0033     0.0946     0.0412     0.2110     1.9436    65.9200     0.1451     0.3655
  208    4.140   2300.96     0.1700     0.0031     0.0985     0.0414     0.2112     1.8379    66.2400     0.1449     0.3910
  209    4.160   2301.94     0.1673     0.0031     0.0993     0.0416     0.2088     1.8405    66.5600     0.1422     0.4022
  210    4.180   2302.94     0.1673     0.0030     0.0996     0.0418     0.2089     1.8214    66.8800     0.1420     0.4039
  211    4.200   2303.91     0.1690     0.0026     0.0930     0.0420     0.2104     1.5596    67.2000     0.1432     0.3953
  212    4.220   2304.89     0.1702     0.0023     0.1003     0.0422     0.2116     1.3771    67.5200     0.1441     0.3901
  213    4.240   2305.89     0.1722     0.0023     0.0972     0.0424     0.2136     1.3646    67.8400     0.1458     0.3851
  214    4.260   2306.85     0.1772     0.0026     0.1006     0.0426     0.2191     1.4699    68.1600     0.1509     0.3789
  215    4.280   2307.84     0.1800     0.0027     0.0990     0.0428     0.2219     1.4764    68.4800     0.1534     0.3708
  216    4.300   2308.84     0.1742     0.0030     0.0921     0.0430     0.2135     1.7374    68.8000     0.1447     0.3486
  217    4.320   2309.87     0.1752     0.0031     0.0880     0.0432     0.2115     1.8019    69.1200     0.1424     0.3030
  218    4.340   2310.83     0.1806     0.0030     0.0930     0.0434     0.2195     1.6862    69.4400     0.1501     0.3279
  219    4.360   2311.83     0.1812     0.0034     0.0964     0.0436     0.2213     1.8670    69.7600     0.1516     0.3422
  220    4.380   2312.81     0.1814     0.0035     0.0966     0.0438     0.2221     1.9444    70.0800     0.1521     0.3498
  221    4.400   2313.81     0.1778     0.0037     0.0992     0.0440     0.2188     2.0642    70.4000     0.1484     0.3611
  222    4.420   2314.80     0.1759     0.0038     0.1040     0.0442     0.2189     2.1581    70.7200     0.1482     0.3928
  223    4.440   2315.81     0.1719     0.0038     0.0992     0.0444     0.2144     2.2100    71.0400     0.1433     0.3958
  224    4.460   2316.74     0.1691     0.0038     0.1016     0.0446     0.2114     2.2236    71.3600     0.1401     0.4008
  225    4.480   2317.74     0.1702     0.0036     0.1020     0.0448     0.2126     2.1092    71.6800     0.1410     0.3997
  226    4.500   2318.74     0.1711     0.0034     0.1032     0.0450     0.2149     2.0174    72.0000     0.1429     0.4146
  227    4.520   2319.72     0.1706     0.0034     0.1028     0.0452     0.2120     2.0127    72.3200     0.1397     0.3821
  228    4.540   2320.76     0.1681     0.0036     0.1072     0.0454     0.2124     2.1337    72.6400     0.1398     0.4308
  229    4.560   2321.75     0.1694     0.0034     0.1108     0.0456     0.2154     2.0094    72.9600     0.1424     0.4487
  230    4.580   2322.77     0.1768     0.0034     0.1116     0.0458     0.2233     1.9545    73.2800     0.1500     0.4331
  231    4.600   2323.76     0.1858     0.0034     0.1100     0.0460     0.2329     1.8151    73.6000     0.1593     0.4141
  232    4.620   2324.72     0.1893     0.0035     0.1039     0.0462     0.2331     1.8546    73.9200     0.1592     0.3646
  233    4.640   2325.77     0.1972     0.0039     0.1010     0.0464     0.2395     2.0219    74.2400     0.1653     0.3286
  234    4.660   2326.72     0.1972     0.0038     0.1049     0.0466     0.2407     1.9637    74.5600     0.1662     0.3433
  235    4.680   2327.71     0.1958     0.0039     0.1040     0.0468     0.2395     2.0101    74.8800     0.1646     0.3479
  236    4.700   2328.71     0.1914     0.0039     0.1020     0.0470     0.2339     2.0448    75.2000     0.1587     0.3419
  237    4.720   2329.73     0.1898     0.0039     0.1069     0.0472     0.2339     2.0701    75.5200     0.1584     0.3653
  238    4.740   2330.72     0.1891     0.0039     0.1146     0.0474     0.2363     2.0784    75.8400     0.1605     0.4052
  239    4.760   2331.68     0.1871     0.0037     0.1176     0.0476     0.2363     1.9883    76.1600     0.1601     0.4344
  240    4.780   2332.67     0.1865     0.0038     0.1201     0.0478     0.2366     2.0200    76.4800     0.1601     0.4459
  241    4.800   2333.66     0.1889     0.0037     0.1199     0.0480     0.2394     1.9818    76.8000     0.1626     0.4442
  242    4.820   2334.66     0.1950     0.0038     0.1202     0.0482     0.2454     1.9635    77.1200     0.1683     0.4274
  243    4.840   2335.62     0.1971     0.0038     0.1211     0.0484     0.2478     1.9353    77.4400     0.1704     0.4246
  244    4.860   2336.62     0.1962     0.0039     0.1178     0.0486     0.2460     2.0008    77.7600     0.1682     0.4159
  245    4.880   2337.62     0.1914     0.0038     0.1206     0.0488     0.2418     1.9860    78.0800     0.1638     0.4348
  246    4.900   2338.59     0.1890     0.0037     0.1204     0.0490     0.2395     1.9801    78.4000     0.1611     0.4419
  247    4.920   2339.59     0.1888     0.0037     0.1196     0.0492     0.2394     1.9633    78.7200     0.1607     0.4437
  248    4.940   2340.60     0.1888     0.0039     0.1181     0.0494     0.2383     2.0701    79.0400     0.1592     0.4300
  249    4.960   2341.57     0.1888     0.0041     0.1227     0.0496     0.2395     2.1755    79.3600     0.1602     0.4451
  250    4.980   2342.59     0.1931     0.0041     0.1235     0.0498     0.2454     2.1339    79.6800     0.1657     0.4499
  251    5.000   2343.57     0.1990     0.0045     0.1184     0.0500     0.2495     2.3030    80.0000     0.1695     0.4143
  252    5.020   2344.54     0.2008     0.0050     0.1161     0.0502     0.2498     2.5025    80.3200     0.1694     0.3911
  253    5.040   2345.55     0.2004     0.0052     0.1145     0.0504     0.2487     2.6157    80.6400     0.1680     0.3840
  254    5.060   2346.55     0.2038     0.0051     0.1175     0.0506     0.2525     2.5061    80.9600     0.1715     0.3807
  255    5.080   2347.55     0.2055     0.0050     0.1177     0.0508     0.2550     2.4499    81.2800     0.1737     0.3868
  256    5.100   2358.51     0.2017     0.0051     0.1173     0.0510     0.2511     3.0399    81.6000     0.1695     0.3945
  257    5.120   2381.77     0.1912     0.0051     0.1160     0.0512     0.2401     3.1238    81.9200     0.1582     0.4142
  258    5.140   2401.86     0.1814     0.0050     0.1173     0.0514     0.2301     2.7989    82.2400     0.1479     0.4365
  259    5.160   2402.84     0.1766     0.0048     0.1173     0.0516     0.2243     2.6823    82.5600     0.1418     0.4381
  260    5.180   2403.87     0.1727     0.0048     0.1186     0.0518     0.2217     2.7511    82.8800     0.1389     0.4686
  261    5.200   2404.82     0.1742     0.0046     0.1232     0.0520     0.2252     2.6891    83.2000     0.1420     0.4888
  262    5.220   2405.79     0.1790     0.0049     0.1246     0.0522     0.2319     2.7796    83.5200     0.1484     0.4976
  263    5.240   2406.81     0.1852     0.0049     0.1221     0.0524     0.2378     2.6693    83.8400     0.1540     0.4738
  264    5.260   2407.80     0.1896     0.0048     0.1134     0.0526     0.2383     2.5543    84.1600     0.1542     0.4117
  265    5.280   2408.78     0.1882     0.0048     0.1109     0.0528     0.2353     2.5533    84.4800     0.1508     0.3931
  266    5.300   2409.62     0.1877     0.0049     0.1120     0.0530     0.2346     2.6141    84.8000     0.1498     0.3917
  267    5.320   2410.54     0.1838     0.0050     0.1144     0.0532     0.2313     2.7329    85.1200     0.1462     0.4098
  268    5.340   2411.51     0.1845     0.0049     0.1166     0.0534     0.2326     2.6451    85.4400     0.1472     0.4157
  269    5.360   2412.52     0.1853     0.0048     0.1226     0.0536     0.2361     2.5747    85.7600     0.1504     0.4480
  270    5.380   2413.50     0.1871     0.0048     0.1245     0.0538     0.2393     2.5594    86.0800     0.1532     0.4606
  271    5.400   2414.50     0.1857     0.0048     0.1269     0.0540     0.2387     2.5745    86.4000     0.1523     0.4751
  272    5.420   2415.53     0.1836     0.0048     0.1297     0.0542     0.2375     2.5884    86.7200     0.1508     0.4922
  273    5.440   2416.51     0.1882     0.0050     0.1309     0.0544     0.2431     2.6569    87.0400     0.1561     0.4899
  274    5.460   2417.48     0.1898     0.0051     0.1339     0.0546     0.2456     2.7078    87.3600     0.1582     0.4950
  275    5.480   2418.49     0.1896     0.0052     0.1333     0.0548     0.2459     2.7479    87.6800     0.1582     0.5009
  276    5.500   2419.47     0.1888     0.0053     0.1320     0.0550     0.2452     2.7776    88.0000     0.1572     0.5049
  277    5.520   2420.48     0.1885     0.0051     0.1201     0.0552     0.2399     2.7213    88.3200     0.1516     0.4429
  278    5.540   2421.46     0.1871     0.0051     0.1233     0.0554     0.2386     2.7160    88.6400     0.1500     0.4479
  279    5.560   2422.30     0.1859     0.0053     0.1208     0.0556     0.2366     2.8408    88.9600     0.1477     0.4419
  280    5.580   2423.10     0.1866     0.0051     0.1215     0.0558     0.2372     2.7436    89.2800     0.1479     0.4370
  281    5.600   2423.97     0.1853     0.0051     0.1316     0.0560     0.2392     2.7369    89.6000     0.1496     0.4834
  282    5.620   2424.90     0.1875     0.0049     0.1377     0.0562     0.2447     2.6222    89.9200     0.1548     0.5159
  283    5.640   2425.95     0.1900     0.0047     0.1401     0.0564     0.2485     2.4524    90.2400     0.1583     0.5236
  284    5.660   2426.92     0.1926     0.0045     0.1398     0.0566     0.2514     2.3535    90.5600     0.1609     0.5186
  285    5.680   2427.91     0.1932     0.0046     0.1404     0.0568     0.2524     2.3926    90.8800     0.1615     0.5216
  286    5.700   2428.90     0.1921     0.0044     0.1448     0.0570     0.2522     2.2963    91.2000     0.1610     0.5348
  287    5.720   2429.90     0.1936     0.0043     0.1456     0.0572     0.2548     2.2429    91.5200     0.1633     0.5424
  288    5.740   2430.92     0.1954     0.0044     0.1451     0.0574     0.2565     2.2630    91.8400     0.1646     0.5352
  289    5.760   2431.89     0.1958     0.0047     0.1468     0.0576     0.2569     2.3747    92.1600     0.1648     0.5338
  290    5.780   2432.87     0.1973     0.0047     0.1473     0.0578     0.2593     2.3638    92.4800     0.1668     0.5382
  291    5.800   2433.86     0.2018     0.0045     0.1454     0.0580     0.2623     2.2653    92.8000     0.1695     0.5072
  292    5.820   2434.81     0.2086     0.0044     0.1428     0.0582     0.2686     2.1278    93.1200     0.1755     0.4822
  293    5.840   2435.81     0.2147     0.0044     0.1385     0.0584     0.2725     2.0574    93.4400     0.1790     0.4415
  294    5.860   2436.84     0.2125     0.0045     0.1423     0.0586     0.2721     2.0936    93.7600     0.1783     0.4672
  295    5.880   2437.81     0.2108     0.0042     0.1439     0.0588     0.2703     2.0137    94.0800     0.1762     0.4702
  296    5.900   2438.78     0.2065     0.0041     0.1460     0.0590     0.2672     1.9836    94.4000     0.1728     0.4961
  297    5.920   2439.81     0.2000     0.0040     0.1413     0.0592     0.2597     1.9738    94.7200     0.1650     0.5024
  298    5.940   2440.76     0.1948     0.0039     0.1460     0.0594     0.2557     1.9880    95.0400     0.1606     0.5324
  299    5.960   2441.74     0.1919     0.0039     0.1448     0.0596     0.2529     2.0083    95.3600     0.1576     0.5441
  300    5.980   2442.77     0.1892     0.0040     0.1492     0.0598     0.2506     2.0983    95.6800     0.1550     0.5574
  301    6.000   2443.77     0.1883     0.0038     0.1541     0.0600     0.2527     2.0379    96.0000     0.1567     0.5961
  302    6.020   2444.77     0.1867     0.0039     0.1551     0.0602     0.2520     2.0714    96.3200     0.1557     0.6116
  303    6.040   2445.77     0.1911     0.0039     0.1563     0.0604     0.2565     2.0511    96.6400     0.1599     0.5957
  304    6.060   2446.77     0.1974     0.0041     0.1546     0.0606     0.2623     2.1057    96.9600     0.1653     0.5679
  305    6.080   2447.77     0.1909     0.0040     0.1542     0.0608     0.2555     2.0955    97.2800     0.1582     0.5883
  306    6.100   2448.75     0.1922     0.0040     0.1467     0.0610     0.2556     2.0902    97.6000     0.1580     0.5698
  307    6.120   2449.71     0.1933     0.0041     0.1479     0.0612     0.2546     2.1013    97.9200     0.1567     0.5412
  308    6.140   2450.70     0.2060     0.0043     0.1420     0.0614     0.2674     2.1446    98.2400     0.1692     0.5020
  309    6.160   2451.69     0.1969     0.0046     0.1424     0.0616     0.2577     2.3200    98.5600     0.1592     0.5231
  310    6.180   2452.70     0.1974     0.0049     0.1362     0.0618     0.2555     2.4681    98.8800     0.1567     0.4897
  311    6.200   2453.70     0.1974     0.0051     0.1292     0.0620     0.2523     2.6016    99.2000     0.1531     0.4489
  312    6.220   2454.68     0.1978     0.0051     0.1321     0.0622     0.2530     2.5622    99.5200     0.1534     0.4509
  313    6.240   2455.63     0.1948     0.0048     0.1317     0.0624     0.2500     2.4576    99.8400     0.1501     0.4594
  314    6.260   2456.63     0.1883     0.0044     0.1375     0.0626     0.2451     2.3463   100.1600     0.1449     0.5009
  315    6.280   2457.60     0.1843     0.0044     0.1430     0.0628     0.2437     2.3594   100.4800     0.1433     0.5491
  316    6.300   2458.61     0.1839     0.0044     0.1469     0.0630     0.2451     2.3763   100.8000     0.1443     0.5729
  317    6.320   2459.61     0.1912     0.0045     0.1501     0.0632     0.2537     2.3555   101.1200     0.1526     0.5608
  318    6.340   2460.64     0.1999     0.0044     0.1511     0.0634     0.2634     2.2310   101.4400     0.1619     0.5421
  319    6.360   2461.63     0.2081     0.0047     0.1472     0.0636     0.2714     2.2930   101.7600     0.1696     0.5140
  320    6.380   2462.63     0.2121     0.0051     0.1458     0.0638     0.2722     2.4580   102.0800     0.1701     0.4662
  321    6.400   2463.59     0.2136     0.0055     0.1506     0.0640     0.2765     2.6229   102.4000     0.1741     0.4934
  322    6.420   2464.57     0.2171     0.0058     0.1431     0.0642     0.2779     2.7052   102.7200     0.1752     0.4598
  323    6.440   2465.56     0.2220     0.0057     0.1503     0.0644     0.2844     2.5829   103.0400     0.1814     0.4640
  324    6.460   2472.36     0.2260     0.0058     0.1502     0.0646     0.2896     2.5750   103.3600     0.1862     0.4657
  325    6.480   2492.23     0.2265     0.0059     0.1468     0.0648     0.2886     2.6250   103.6800     0.1850     0.4494
  326    6.500   2512.10     0.2270     0.0060     0.1435     0.0650     0.2877     2.6730   104.0000     0.1837     0.4331
  327    6.520   2531.98     0.2275     0.0059     0.1436     0.0652     0.2868     2.5764   104.3200     0.1825     0.4168
  328    6.540   2534.32     0.2247     0.0058     0.1515     0.0654     0.2877     2.5678   104.6400     0.1830     0.4623
  329    6.560   2534.96     0.2244     0.0058     0.1543     0.0656     0.2890     2.5827   104.9600     0.1840     0.4783
  330    6.580   2535.60     0.2228     0.0056     0.1582     0.0658     0.2886     2.4919   105.2800     0.1833     0.4961
  331    6.600   2536.26     0.2225     0.0056     0.1615     0.0660     0.2901     2.5262   105.6000     0.1845     0.5152
  332    6.620   2536.92     0.2325     0.0056     0.1629     0.0662     0.3007     2.4843   105.9200     0.1948     0.4939
  333    6.640   2537.56     0.2366     0.0057     0.1624     0.0664     0.3050     2.4276   106.2400     0.1987     0.4848
  334    6.660   2538.26     0.2388     0.0060     0.1597     0.0666     0.3072     2.5010   106.5600     0.2007     0.4799
  335    6.680   2538.93     0.2421     0.0063     0.1489     0.0668     0.3063     2.6244   106.8800     0.1994     0.4311
  336    6.700   2539.57     0.2431     0.0067     0.1434     0.0670     0.3039     2.7477   107.2000     0.1967     0.3957
  337    6.720   2540.20     0.2459     0.0065     0.1450     0.0672     0.3062     2.6564   107.5200     0.1987     0.3841
  338    6.740   2540.80     0.2449     0.0066     0.1465     0.0674     0.3074     2.6818   107.8400     0.1995     0.4071
  339    6.760   2547.83     0.2484     0.0066     0.1412     0.0676     0.3085     2.6444   108.1600     0.2003     0.3758
  340    6.780   2565.54     0.2478     0.0069     0.1361     0.0678     0.3057     2.7885   108.4800     0.1972     0.3545
  341    6.800   2583.25     0.2471     0.0070     0.1311     0.0680     0.3029     2.8303   108.8000     0.1941     0.3332
  342    6.820   2598.89     0.2459     0.0073     0.1317     0.0682     0.3002     2.9724   109.1200     0.1910     0.3195
  343    6.840   2599.92     0.2386     0.0074     0.1416     0.0684     0.2964     3.0749   109.4400     0.1870     0.3707
  344    6.860   2600.93     0.2289     0.0070     0.1513     0.0686     0.2914     2.9816   109.7600     0.1816     0.4413
  345    6.880   2601.95     0.2209     0.0066     0.1536     0.0688     0.2856     2.8882   110.0800     0.1755     0.4855
  346    6.900   2602.95     0.2206     0.0062     0.1576     0.0690     0.2852     2.7949   110.4000     0.1748     0.4852
  347    6.920   2615.14     0.2187     0.0059     0.1618     0.0692     0.2867     2.7077   110.7200     0.1760     0.5265
  348    6.940   2645.16     0.2205     0.0059     0.1618     0.0694     0.2885     2.6850   111.0400     0.1774     0.5209
  349    6.960   2657.89     0.2216     0.0059     0.1633     0.0696     0.2900     2.6683   111.3600     0.1786     0.5215
  350    6.980   2660.48     0.2224     0.0057     0.1649     0.0698     0.2915     2.5793   111.6800     0.1798     0.5257
  351    7.000   2663.07     0.2232     0.0056     0.1664     0.0700     0.2929     2.5523   112.0000     0.1809     0.5299
  352    7.020   2664.81     0.2198     0.0058     0.1665     0.0702     0.2902     2.6321   112.3200     0.1779     0.5480
  353    7.040   2665.82     0.2160     0.0056     0.1640     0.0704     0.2850     2.5790   112.6400     0.1724     0.5455
  354    7.060   2666.79     0.2081     0.0053     0.1725     0.0706     0.2788     2.5413   112.9600     0.1658     0.5892
  355    7.080   2667.83     0.2010     0.0052     0.1804     0.0708     0.2760     2.5704   113.2800     0.1628     0.6626
  356    7.100   2668.79     0.2021     0.0053     0.1835     0.0710     0.2789     2.6259   113.6000     0.1653     0.6774
  357    7.120   2669.82     0.1985     0.0055     0.1856     0.0712     0.2763     2.7702   113.9200     0.1624     0.7026
  358    7.140   2670.79     0.2010     0.0054     0.1841     0.0714     0.2774     2.7081   114.2400     0.1632     0.6784
  359    7.160   2671.77     0.1977     0.0053     0.1889     0.0716     0.2768     2.6706   114.5600     0.1622     0.7192
  360    7.180   2672.79     0.2046     0.0053     0.1914     0.0718     0.2851     2.6121   114.8800     0.1702     0.7036
  361    7.200   2673.77     0.2082     0.0056     0.1921     0.0720     0.2889     2.6786   115.2000     0.1737     0.6912
  362    7.220   2674.79     0.2167     0.0057     0.1951     0.0722     0.2970     2.6753   115.5200     0.1815     0.6563
  363    7.240   2675.78     0.2203     0.0060     0.1946     0.0724     0.3027     2.7509   115.8400     0.1869     0.6630
  364    7.260   2676.75     0.2248     0.0060     0.1910     0.0726     0.3059     2.6900   116.1600     0.1898     0.6360
  365    7.280   2677.78     0.2319     0.0062     0.1860     0.0728     0.3106     2.6878   116.4800     0.1941     0.5906
  366    7.300   2678.75     0.2400     0.0064     0.1832     0.0730     0.3171     2.6577   116.8000     0.2003     0.5518
  367    7.320   2679.73     0.2441     0.0065     0.1799     0.0732     0.3195     2.6620   117.1200     0.2024     0.5248
  368    7.340   2680.70     0.2434     0.0066     0.1832     0.0734     0.3199     2.6885   117.4400     0.2025     0.5375
  369    7.360   2681.69     0.2418     0.0067     0.1840     0.0736     0.3187     2.7829   117.7600     0.2010     0.5451
  370    7.380   2682.71     0.2491     0.0070     0.1850     0.0738     0.3264     2.8011   118.0800     0.2084     0.5300
  371    7.400   2683.74     0.2533     0.0067     0.1835     0.0740     0.3315     2.6406   118.4000     0.2131     0.5268
  372    7.420   2684.69     0.2589     0.0065     0.1770     0.0742     0.3339     2.5028   118.7200     0.2152     0.4852
  373    7.440   2685.70     0.2617     0.0064     0.1751     0.0744     0.3353     2.4513   119.0400     0.2162     0.4657
  374    7.460   2686.69     0.2617     0.0060     0.1748     0.0746     0.3350     2.2834   119.3600     0.2157     0.4638
  375    7.480   2687.72     0.2583     0.0057     0.1746     0.0748     0.3322     2.1916   119.6800     0.2125     0.4759
  376    7.500   2688.66     0.2664     0.0060     0.1745     0.0750     0.3393     2.2489   120.0000     0.2193     0.4497
  377    7.520   2689.65     0.2621     0.0064     0.1760     0.0752     0.3358     2.4377   120.3200     0.2154     0.4653
  378    7.540   2690.66     0.2607     0.0065     0.1762     0.0754     0.3354     2.5009   120.6400     0.2147     0.4766
  379    7.560   2691.68     0.2651     0.0064     0.1660     0.0756     0.3363     2.4299   120.9600     0.2153     0.4362
  380    7.580   2692.69     0.2635     0.0066     0.1569     0.0758     0.3305     2.4890   121.2800     0.2093     0.4004
  381    7.600   2693.67     0.2578     0.0068     0.1542     0.0760     0.3220     2.6327   121.6000     0.2004     0.3835
  382    7.620   2694.69     0.2536     0.0070     0.1653     0.0762     0.3220     2.7563   121.9200     0.2001     0.4327
  383    7.640   2695.68     0.2569     0.0068     0.1686     0.0764     0.3273     2.6675   122.2400     0.2050     0.4452
  384    7.660   2696.67     0.2529     0.0068     0.1681     0.0766     0.3241     2.6792   122.5600     0.2015     0.4614
  385    7.680   2697.69     0.2482     0.0067     0.1683     0.0768     0.3185     2.6963   122.8800     0.1956     0.4630
  386    7.700   2698.67     0.2514     0.0062     0.1659     0.0770     0.3223     2.4624   123.2000     0.1991     0.4615
  387    7.720   2699.65     0.2479     0.0060     0.1546     0.0772     0.3147     2.4076   123.5200     0.1912     0.4286
  388    7.740   2700.67     0.2389     0.0058     0.1598     0.0774     0.3047     2.4324   123.8400     0.1809     0.4381
  389    7.760   2701.70     0.2411     0.0056     0.1713     0.0776     0.3117     2.3395   124.1600     0.1875     0.4823
  390    7.780   2702.68     0.2357     0.0054     0.1735     0.0778     0.3077     2.2784   124.4800     0.1832     0.5107
  391    7.800   2703.69     0.2392     0.0054     0.1786     0.0780     0.3145     2.2656   124.8000     0.1897     0.5334
  392    7.820   2704.65     0.2399     0.0055     0.1736     0.0782     0.3133     2.3040   125.1200     0.1882     0.5137
  393    7.840   2705.67     0.2387     0.0056     0.1760     0.0784     0.3121     2.3340   125.4400     0.1867     0.5168
  394    7.860   2706.65     0.2379     0.0058     0.1835     0.0786     0.3137     2.4114   125.7600     0.1880     0.5426
  395    7.880   2707.66     0.2409     0.0060     0.1857     0.0788     0.3183     2.4913   126.0800     0.1922     0.5489
  396    7.900   2708.67     0.2381     0.0060     0.1897     0.0790     0.3178     2.5011   126.4000     0.1914     0.5785
  397    7.920   2709.67     0.2335     0.0059     0.1918     0.0792     0.3133     2.5108   126.7200     0.1866     0.5943
  398    7.940   2710.69     0.2288     0.0060     0.1918     0.0794     0.3093     2.6031   127.0400     0.1823     0.6163
  399    7.960   2711.68     0.2269     0.0060     0.1955     0.0796     0.3085     2.6417   127.3600     0.1812     0.6331
  400    7.980   2712.66     0.2283     0.0060     0.2024     0.0798     0.3123     2.6504   127.6800     0.1847     0.6515
  401    8.000   2713.67     0.2295     0.0060     0.2001     0.0800     0.3143     2.6152   128.0000     0.1863     0.6538
  402    8.020   2714.65     0.2351     0.0059     0.1918     0.0802     0.3161     2.5213   128.3200     0.1878     0.5992
  403    8.040   2715.71     0.2413     0.0061     0.2022     0.0804     0.3242     2.5217   128.6400     0.1955     0.5973
  404    8.060   2716.67     0.2470     0.0064     0.2116     0.0806     0.3350     2.5872   128.9600     0.2061     0.6261
  405    8.080   2717.69     0.2542     0.0064     0.2097     0.0808     0.3432     2.5222   129.2800     0.2139     0.6127
  406    8.100   2718.71     0.2601     0.0064     0.2112     0.0810     0.3481     2.4513   129.6000     0.2185     0.5885
  407    8.120   2719.71     0.2726     0.0065     0.2115     0.0812     0.3609     2.3871   129.9200     0.2310     0.5586
  408    8.140   2720.71     0.2748     0.0066     0.2130     0.0814     0.3642     2.4189   130.2400     0.2340     0.5626
  409    8.160   2721.69     0.2743     0.0066     0.2133     0.0816     0.3636     2.3987   130.5600     0.2330     0.5617
  410    8.180   2722.69     0.2749     0.0068     0.2109     0.0818     0.3649     2.4704   130.8800     0.2340     0.5659
  411    8.200   2723.70     0.2738     0.0070     0.2078     0.0820     0.3609     2.5686   131.2000     0.2297     0.5452
  412    8.220   2724.69     0.2688     0.0070     0.2125     0.0822     0.3572     2.6129   131.5200     0.2257     0.5685
  413    8.240   2725.68     0.2616     0.0076     0.2184     0.0824     0.3526     2.8797   131.8400     0.2207     0.6080
  414    8.260   2726.68     0.2563     0.0072     0.2174     0.0826     0.3476     2.7900   132.1600     0.2154     0.6260
  415    8.280   2727.64     0.2578     0.0069     0.2180     0.0828     0.3493     2.6804   132.4800     0.2168     0.6225
  416    8.300   2728.67     0.2576     0.0068     0.2177     0.0830     0.3485     2.6323   132.8000     0.2157     0.6178
  417    8.320   2729.65     0.2702     0.0068     0.2202     0.0832     0.3623     2.5789   133.1200     0.2292     0.5947
  418    8.340   2730.71     0.2580     0.0064     0.2275     0.0834     0.3521     2.4930   133.4400     0.2187     0.6435
  419    8.360   2731.66     0.2593     0.0062     0.2279     0.0836     0.3547     2.3971   133.7600     0.2210     0.6501
  420    8.380   2732.67     0.2634     0.0063     0.2332     0.0838     0.3609     2.3988   134.0800     0.2268     0.6543
  421    8.400   2733.66     0.2719     0.0062     0.2304     0.0840     0.3695     2.2847   134.4000     0.2351     0.6317
  422    8.420   2734.65     0.2778     0.0063     0.2270     0.0842     0.3737     2.2754   134.7200     0.2390     0.6036
  423    8.440   2735.65     0.2773     0.0064     0.2218     0.0844     0.3712     2.3028   135.0400     0.2361     0.5890
  424    8.460   2736.65     0.2817     0.0061     0.2220     0.0846     0.3751     2.1705   135.3600     0.2397     0.5747
  425    8.480   2737.66     0.2818     0.0057     0.2196     0.0848     0.3738     2.0190   135.6800     0.2382     0.5640
  426    8.500   2738.66     0.2892     0.0055     0.2161     0.0850     0.3815     1.9262   136.0000     0.2455     0.5486
  427    8.520   2739.65     0.2903     0.0056     0.2195     0.0852     0.3811     1.9248   136.3200     0.2448     0.5350
  428    8.540   2740.63     0.2967     0.0051     0.2256     0.0854     0.3908     1.7392   136.6400     0.2542     0.5460
  429    8.560   2741.62     0.3148     0.0053     0.2193     0.0856     0.4095     1.6910   136.9600     0.2725     0.5133
  430    8.580   2742.64     0.3413     0.0052     0.2155     0.0858     0.4316     1.5337   137.2800     0.2943     0.4391
  431    8.600   2743.64     0.3467     0.0052     0.2086     0.0860     0.4353     1.5059   137.6000     0.2977     0.4192
  432    8.620   2744.65     0.3433     0.0049     0.2013     0.0862     0.4295     1.4343   137.9200     0.2916     0.4079
  433    8.640   2745.65     0.3244     0.0051     0.1866     0.0864     0.4044     1.5582   138.2400     0.2662     0.3913
  434    8.660   2746.67     0.3034     0.0052     0.1872     0.0866     0.3811     1.7055   138.5600     0.2426     0.4062
  435    8.680   2747.66     0.3036     0.0052     0.2006     0.0868     0.3860     1.7057   138.8800     0.2471     0.4431
  436    8.700   2748.65     0.3158     0.0051     0.2059     0.0870     0.4021     1.6222   139.2000     0.2629     0.4508
  437    8.720   2749.62     0.3253     0.0046     0.1996     0.0872     0.4106     1.4303   139.5200     0.2711     0.4277
  438    8.740   2750.62     0.3129     0.0046     0.1857     0.0874     0.3923     1.4421   139.8400     0.2525     0.4026
  439    8.760   2751.65     0.2888     0.0048     0.1951     0.0876     0.3683     1.6434   140.1600     0.2281     0.4460
  440    8.780   2752.65     0.2792     0.0046     0.2073     0.0878     0.3650     1.6544   140.4800     0.2245     0.5182
  441    8.800   2753.64     0.2787     0.0046     0.2158     0.0880     0.3682     1.6596   140.8000     0.2274     0.5499
  442    8.820   2754.64     0.2862     0.0046     0.2232     0.0882     0.3790     1.6105   141.1200     0.2378     0.5573
  443    8.840   2755.63     0.2888     0.0052     0.2274     0.0884     0.3834     1.7897   141.4400     0.2420     0.5661
  444    8.860   2756.62     0.2962     0.0054     0.2206     0.0886     0.3905     1.8385   141.7600     0.2488     0.5464
  445    8.880   2757.63     0.3103     0.0058     0.2180     0.0888     0.4019     1.8814   142.0800     0.2598     0.4981
  446    8.900   2758.64     0.3094     0.0061     0.2238     0.0890     0.4022     1.9586   142.4000     0.2598     0.5083
  447    8.920   2759.63     0.3223     0.0059     0.2292     0.0892     0.4178     1.8514   142.7200     0.2751     0.5026
  448    8.940   2760.65     0.3189     0.0060     0.2319     0.0894     0.4164     1.8747   143.0400     0.2734     0.5226
  449    8.960   2761.62     0.3258     0.0062     0.2362     0.0896     0.4241     1.9182   143.3600     0.2807     0.5142
  450    8.980   2762.60     0.3483     0.0059     0.2351     0.0898     0.4473     1.7819   143.6800     0.3036     0.4807
  451    9.000   2763.62     0.3468     0.0057     0.2388     0.0900     0.4466     1.6456   144.0000     0.3026     0.4874
  452    9.020   2764.62     0.3627     0.0059     0.2413     0.0902     0.4638     1.6413   144.3200     0.3195     0.4714
  453    9.040   2765.60     0.3612     0.0060     0.2372     0.0904     0.4618     1.6382   144.6400     0.3172     0.4700
  454    9.060   2766.62     0.3472     0.0064     0.2201     0.0906     0.4417     1.8019   144.9600     0.2967     0.4529
  455    9.080   2781.03     0.3323     0.0065     0.2177     0.0908     0.4241     1.8893   145.2800     0.2788     0.4594
  456    9.100   2798.21     0.3171     0.0063     0.2152     0.0910     0.4078     1.8175   145.6000     0.2622     0.4779
  457    9.120   2806.81     0.2994     0.0064     0.2264     0.0912     0.3920     2.1107   145.9200     0.2461     0.5253
  458    9.140   2807.80     0.2899     0.0062     0.2379     0.0914     0.3886     2.1492   146.2400     0.2423     0.5926
  459    9.160   2808.77     0.2818     0.0065     0.2443     0.0916     0.3837     2.3066   146.5600     0.2371     0.6362
  460    9.180   2809.80     0.2875     0.0065     0.2508     0.0918     0.3920     2.2626   146.8800     0.2452     0.6412
  461    9.200   2810.82     0.3006     0.0055     0.2548     0.0920     0.4072     1.8437   147.2000     0.2600     0.6224
  462    9.220   2811.82     0.3010     0.0004     0.2588     0.0922     0.4092     0.1396   147.5200     0.2617     0.6326
  463    9.240   2812.79     0.3111    -0.0066     0.2600     0.0924     0.4196    -2.1159   147.8400     0.2717     0.6099
  464    9.260   2813.77     0.3151    -0.0102     0.2651     0.0926     0.4257    -3.2339   148.1600     0.2776     0.6155
  465    9.280   2814.77     0.3428    -0.0104     0.2694     0.0928     0.4559    -3.0620   148.4800     0.3075     0.5743
  466    9.300   2815.76     0.4070    -0.0088     0.2674     0.0930     0.5194    -2.2022   148.8000     0.3706     0.4721
  467    9.320   2816.74     0.5386    -0.0054     0.2597     0.0932     0.6519    -1.0536   149.1200     0.5028     0.3514
  468    9.340   2817.76     1.2132    -0.0004     0.1736     0.0934     1.3054    -0.0512   149.4400     1.1560     0.1128
  469    9.360   2818.73     2.1951     0.0031     0.0653     0.0936     2.2332     0.1460   149.7600     2.0834    -0.0007
  470    9.380   2819.78     3.0735     0.0039     0.0824     0.0938     3.1031     0.1316   150.0800     2.9530    -0.0079
  471    9.400   2820.81     3.6627     0.0080     0.0867     0.0940     3.6978     0.2195   150.4000     3.5474    -0.0030
  472    9.420   2821.75     4.0976     0.0137     0.0956     0.0942     4.1344     0.3357   150.7200     3.9837    -0.0016
  473    9.440   2822.75     4.4080     0.0183     0.0911     0.0944     4.4479     0.4288   151.0400     4.2969     0.0001
  474    9.460   2823.77     4.7164     0.0219     0.0959     0.0946     4.7553     0.4792   151.3600     4.6040    -0.0004
  475    9.480   2824.83     5.1792     0.0233     0.1121     0.0948     5.2243     0.4718   151.6800     5.0727     0.0025
  476    9.500   2825.82     5.5798     0.0258     0.1067     0.0950     5.6290     0.4792   152.0000     5.4770     0.0040
  477    9.520   2826.82     6.0135     0.0282     0.0920     0.0952     6.0539     0.4872   152.3200     5.9015     0.0002
  478    9.540   2827.84     6.3460     0.0304     0.0930     0.0954     6.3857     0.4891   152.6400     6.2331    -0.0001
  479    9.560   2828.88     6.5633     0.0323     0.1004     0.0956     6.6055     0.4975   152.9600     6.4526     0.0008
  480    9.580   2829.91     6.7747     0.0347     0.1089     0.0958     6.8198     0.5135   153.2800     6.6665     0.0018
  481    9.600   2830.92     6.9666     0.0362     0.1070     0.0960     7.0118     0.5213   153.6000     6.8582     0.0017
  482    9.620   2831.92     7.0969     0.0376     0.1071     0.0962     7.1431     0.5344   153.9200     6.9892     0.0020
  483    9.640   2832.96     7.2031     0.0385     0.1103     0.0964     7.2491     0.5357   154.2400     7.0949     0.0019
  484    9.660   2833.97     7.2847     0.0378     0.1084     0.0966     7.3314     0.5209   154.5600     7.1769     0.0020
  485    9.680   2834.99     7.4435     0.0365     0.0999     0.0968     7.4858     0.4907   154.8800     7.3309     0.0005
  486    9.700   2835.99     7.5847     0.0371     0.0833     0.0970     7.6214     0.4912   155.2000     7.4662    -0.0013
  487    9.720   2836.99     7.6998     0.0392     0.0626     0.0972     7.7300     0.5135   155.5200     7.5744    -0.0033
  488    9.740   2838.01     7.8341     0.0408     0.0322     0.0974     7.8500     0.5252   155.8400     7.6942    -0.0077
  489    9.760   2839.04     7.9575     0.0421     0.0325     0.0976     7.9713     0.5306   156.1600     7.8151    -0.0083
  490    9.780   2840.05     8.0249     0.0441     0.0379     0.0978     8.0387     0.5512   156.4800     7.8823    -0.0082
  491    9.800   2841.07     8.1301     0.0464     0.0689     0.0980     8.1558     0.5737   156.8000     7.9990    -0.0046
  492    9.820   2842.11     8.3805     0.0456     0.0769     0.0982     8.4113     0.5531   157.1200     8.2542    -0.0030
  493    9.840   2843.11     8.7878     0.0448     0.0891     0.0984     8.8238     0.5202   157.4400     8.6664    -0.0014
  494    9.860   2844.14     9.3462     0.0467     0.0906     0.0986     9.3837     0.5139   157.7600     9.2260    -0.0010
  495    9.880   2845.16     9.9208     0.0517     0.0880     0.0988     9.9593     0.5326   158.0800     9.8013    -0.0007
  496    9.900   2846.19    10.7536     0.0570     0.0793     0.0990    10.7866     0.5486   158.4000    10.6282    -0.0019
  497    9.920   2847.24    11.7499     0.0623     0.0710     0.0992    11.7839     0.5515   158.7200    11.6252    -0.0016
  498    9.940   2848.32    12.9571     0.0638     0.0544     0.0994    12.9822     0.4947   159.0400    12.8231    -0.0031
  499    9.960   2849.36    14.0880     0.0682     0.0258     0.0996    14.1026     0.5027   159.3600    13.9432    -0.0047
  500    9.980   2850.36    15.0995     0.0723     0.0087     0.0998    15.1072     0.4808   159.6800    14.9475    -0.0055
  501   10.000   2851.37    16.1012     0.0763     0.0058     0.1000    16.1029     0.4755   160.0000    15.9429    -0.0060
  502   10.020   2852.42    16.8282     0.0791    -0.0519     0.1002    16.8186     0.4735   160.3200    16.6583    -0.0074
  503   10.040   2853.43    17.2709     0.0833    -0.0191     0.1004    17.2607     0.4879   160.6400    17.1001    -0.0073
  504   10.060   2854.46    17.5669     0.0875    -0.0077     0.1006    17.5645     0.5035   160.9600    17.4035    -0.0061
  505   10.080   2855.41    17.6598     0.0915    -0.0187     0.1008    17.6517     0.5193   161.2800    17.4904    -0.0069
  506   10.100   2856.41    17.7323     0.0931    -0.0013     0.1010    17.7294     0.5252   161.6000    17.5678    -0.0061
  507   10.120   2857.37    17.7143     0.0929     0.0143     0.1012    17.7176     0.5242   161.9200    17.5556    -0.0053
  508   10.140   2859.91    17.6278     0.0944     0.0406     0.1014    17.6410     0.5340   162.2400    17.4787    -0.0040
  509   10.160   2863.72    17.5356     0.0972     0.0676     0.1016    17.5600     0.5495   162.5600    17.3975    -0.0025
  510   10.180   2867.54    17.4433     0.1008     0.0913     0.1018    17.4791     0.5711   162.8800    17.3162    -0.0010
  511   10.200   2869.09    17.3102     0.1020     0.0854     0.1020    17.3491     0.5877   163.2000    17.1859    -0.0005
  512   10.220   2870.09    17.1953     0.0997     0.0701     0.1022    17.2243     0.5787   163.5200    17.0608    -0.0019
  513   10.240   2871.06    17.0676     0.0966     0.0835     0.1024    17.1017     0.5651   163.8400    16.9378    -0.0013
  514   10.260   2872.00    16.9381     0.0884     0.0772     0.1026    16.9726     0.5210   164.1600    16.8085    -0.0012
  515   10.280   2872.95    16.7774     0.0818     0.0459     0.1028    16.8013     0.4869   164.4800    16.6369    -0.0027
  516   10.300   2873.93    16.4811     0.0710     0.0556     0.1030    16.5028     0.4294   164.8000    16.3380    -0.0032
  517   10.320   2874.88    15.9373     0.0627     0.0789     0.1032    15.9678     0.3924   165.1200    15.8027    -0.0019
  518   10.340   2875.90    15.4410     0.0468     0.0317     0.1034    15.4581     0.2982   165.4400    15.2926    -0.0041
  519   10.360   2876.95    14.8396     0.0368    -0.0954     0.1036    14.8137     0.2468   165.7600    14.6480    -0.0113
  520   10.380   2877.96    14.3911     0.0304    -0.1171     0.1038    14.3428     0.2110   166.0800    14.1767    -0.0154
  521   10.400   2878.96    14.0148     0.0309    -0.1378     0.1040    13.9629     0.2193   166.4000    13.7965    -0.0165
  522   10.420   2879.94    13.5567     0.0242    -0.1642     0.1042    13.4949     0.1773   166.7200    13.3282    -0.0189
  523   10.440   2880.96    12.7102     0.0267    -0.1995     0.1044    12.6361     0.2088   167.0400    12.4691    -0.0226
  524   10.460   2881.99    11.8124     0.0305    -0.2272     0.1046    11.7183     0.2551   167.3600    11.5509    -0.0285
  525   10.480   2882.96    10.7414     0.0358    -0.2382     0.1048    10.6413     0.3172   167.6800    10.4736    -0.0328
  526   10.500   2883.98     9.8977     0.0397    -0.2325     0.1050     9.7980     0.3864   168.0000     9.6300    -0.0356
  527   10.520   2885.00     9.3304     0.0419    -0.2271     0.1052     9.2342     0.4459   168.3200     9.0659    -0.0369
  528   10.540   2886.04     9.0903     0.0433    -0.2159     0.1054     8.9977     0.4721   168.6400     8.8290    -0.0369
  529   10.560   2887.03     9.1565     0.0430    -0.1952     0.1056     9.0714     0.4725   168.9600     8.9025    -0.0346
  530   10.580   2888.10     9.3129     0.0374    -0.1601     0.1058     9.2394     0.4052   169.2800     9.0702    -0.0310
  531   10.600   2889.11     9.4062     0.0320    -0.0887     0.1060     9.3601     0.3406   169.6000     9.1905    -0.0235
  532   10.620   2890.11     9.4424     0.0279    -0.0260     0.1062     9.4208     0.2967   169.9200     9.2508    -0.0170
  533   10.640   2891.14     9.6177     0.0270    -0.0005     0.1064     9.6160     0.2832   170.2400     9.4458    -0.0117
  534   10.660   2892.18    10.0926     0.0280     0.0193     0.1066    10.0981     0.2850   170.5600     9.9275    -0.0094
  535   10.680   2893.22    11.0648     0.0292     0.0074     0.1068    11.0710     0.2778   170.8800    10.9001    -0.0085
  536   10.700   2894.26    12.6906     0.0302    -0.0587     0.1070    12.6738     0.2401   171.2000    12.5026    -0.0118
  537   10.720   2895.32    14.3379     0.0352    -0.0711     0.1072    14.3054     0.2498   171.5200    14.1339    -0.0130
  538   10.740   2896.29    15.4884     0.0454    -0.0740     0.1074    15.4573     0.2957   171.8400    15.2854    -0.0119
  539   10.760   2897.29    16.6621     0.0566    -0.0518     0.1076    16.6393     0.3438   172.1600    16.4671    -0.0098
  540   10.780   2898.31    17.6928     0.0685    -0.0056     0.1078    17.6885     0.3926   172.4800    17.5160    -0.0067
  541   10.800   2899.30    18.5056     0.0797     0.0662     0.1080    18.5175     0.4363   172.8000    18.3447    -0.0043
  542   10.820   2900.27    19.5536     0.0919     0.0976     0.1082    19.5908     0.4781   173.1200    19.4176    -0.0010
  543   10.840   2901.25    20.4618     0.1032     0.0973     0.1084    20.5017     0.5113   173.4400    20.3283    -0.0007
  544   10.860   2902.22    21.3658     0.1123     0.0967     0.1086    21.4045     0.5322   173.7600    21.2307    -0.0008
  545   10.880   2903.19    22.0323     0.1171     0.1042     0.1088    22.0752     0.5358   174.0800    21.9011    -0.0003
  546   10.900   2904.14    22.6274     0.1209     0.1020     0.1090    22.6716     0.5372   174.4000    22.4972    -0.0002
  547   10.920   2905.10    23.1862     0.1253     0.0973     0.1092    23.2269     0.5423   174.7200    23.0522    -0.0005
  548   10.940   2906.08    23.8900     0.1284     0.1137     0.1094    23.9357     0.5387   175.0400    23.7607     0.0000
  549   10.960   2907.09    24.6032     0.1311     0.1028     0.1096    24.6473     0.5342   175.3600    24.4719    -0.0002
  550   10.980   2908.05    25.1204     0.1389     0.1090     0.1098    25.1655     0.5538   175.6800    24.9898    -0.0001
  551   11.000   2909.03    25.5231     0.1427     0.1087     0.1100    25.5681     0.5597   176.0000    25.3921    -0.0001
  552   11.020   2910.02    25.8521     0.1490     0.1082     0.1102    25.8979     0.5773   176.3200    25.7216     0.0000
  553   11.040   2919.86    26.0551     0.1554     0.1015     0.1104    26.0995     0.6475   176.6400    25.9229    -0.0002
  554   11.060   2945.57    25.9846     0.1604     0.0966     0.1106    26.0239     0.6682   176.9600    25.8469    -0.0007
  555   11.080   2950.55    26.1627     0.1656     0.1081     0.1108    26.2084     0.6343   177.2800    26.0311    -0.0001
  556   11.100   2951.55    26.2399     0.1714     0.1051     0.1110    26.2831     0.6531   177.6000    26.1055    -0.0003
  557   11.120   2952.51    26.1380     0.1776     0.1106     0.1112    26.1839     0.6778   177.9200    26.0060    -0.0001
  558   11.140   2953.44    25.9094     0.1832     0.1067     0.1114    25.9565     0.7048   178.2400    25.7783     0.0000
  559   11.160   2954.40    25.5514     0.1850     0.1134     0.1116    25.5965     0.7204   178.5600    25.4179    -0.0002
  560   11.180   2955.42    24.9359     0.1837     0.1103     0.1118    24.9834     0.7298   178.8800    24.8045     0.0001
  561   11.200   2956.39    24.1949     0.1799     0.1016     0.1120    24.2390     0.7347   179.2000    24.0598    -0.0003
  562   11.220   2957.34    23.4555     0.1764     0.1057     0.1122    23.4986     0.7447   179.5200    23.3191    -0.0004
  563   11.240   2958.28    22.3359     0.1718     0.1102     0.1124    22.3800     0.7559   179.8400    22.2002    -0.0003
  564   11.260   2959.24    21.2796     0.1653     0.1072     0.1126    21.3250     0.7646   180.1600    21.1449    -0.0002
  565   11.280   2960.19    20.4289     0.1535     0.1094     0.1128    20.4738     0.7425   180.4800    20.2933    -0.0003
  566   11.300   2961.19    19.6489     0.1415     0.1111     0.1130    19.6955     0.7131   180.8000    19.5147    -0.0001
  567   11.320   2962.15    19.1211     0.1386     0.1071     0.1132    19.1675     0.7191   181.1200    18.9863    -0.0002
  568   11.340   2963.07    18.6052     0.1369     0.1090     0.1134    18.6496     0.7316   181.4400    18.4681    -0.0004
  569   11.360   2964.08    18.2831     0.1335     0.0816     0.1136    18.3244     0.7278   181.7600    18.1426    -0.0008
  570   11.380   2965.04    18.2154     0.1212     0.0449     0.1138    18.2368     0.6659   182.0800    18.0548    -0.0035
  571   11.400   2966.06    18.6593     0.1077     0.0744     0.1140    18.6849     0.5845   182.4000    18.5025    -0.0029
  572   11.420   2966.99    19.6647     0.1009     0.0861     0.1142    19.6992     0.5214   182.7200    19.5165    -0.0016
  573   11.440   2967.95    20.7571     0.0960     0.0080     0.1144    20.7796     0.4686   183.0400    20.5966    -0.0029
  574   11.460   2968.90    21.6524     0.0967    -0.0847     0.1146    21.6283     0.4508   183.3600    21.4449    -0.0080
  575   11.480   2969.89    22.4153     0.0949    -0.0732     0.1148    22.3828     0.4262   183.6800    22.1992    -0.0087
  576   11.500   2970.90    22.9850     0.0961    -0.0620     0.1150    22.9540     0.4204   184.0000    22.7700    -0.0083
  577   11.520   2971.85    23.4611     0.1032    -0.0410     0.1152    23.4399     0.4423   184.3200    23.2555    -0.0071
  578   11.540   2972.84    23.7303     0.1110    -0.0017     0.1154    23.7225     0.4686   184.6400    23.5379    -0.0057
  579   11.560   2973.78    23.9923     0.1171     0.0163     0.1156    23.9994     0.4892   184.9600    23.8144    -0.0041
  580   11.580   2974.76    24.3002     0.1216     0.0592     0.1158    24.3188     0.5018   185.2800    24.1335    -0.0030
  581   11.600   2975.75    25.0205     0.1231     0.0565     0.1160    25.0458     0.4951   185.6000    24.8602    -0.0022
  582   11.620   2976.76    25.4654     0.1222     0.0874     0.1162    25.4941     0.4821   185.9200    25.3082    -0.0019
  583   11.640   2977.71    26.1144     0.1218     0.0866     0.1164    26.1520     0.4690   186.2400    25.9657    -0.0010
  584   11.660   2978.71    26.8988     0.1265     0.0800     0.1166    26.9353     0.4740   186.5600    26.7488    -0.0011
  585   11.680   2979.68    27.7462     0.1340     0.0952     0.1168    27.7832     0.4878   186.8800    27.5964    -0.0010
  586   11.700   2980.66    28.4394     0.1435     0.1040     0.1170    28.4824     0.5073   187.2000    28.2952    -0.0005
  587   11.720   2981.61    28.9137     0.1497     0.1050     0.1172    28.9577     0.5195   187.5200    28.7702    -0.0004
  588   11.740   2982.58    28.9755     0.1516     0.1117     0.1174    29.0211     0.5233   187.8400    28.8333    -0.0003
  589   11.760   2983.59    28.8460     0.1524     0.1161     0.1176    28.8940     0.5272   188.1600    28.7059    -0.0001
  590   11.780   2984.56    28.5682     0.1603     0.1216     0.1178    28.6186     0.5596   188.4800    28.4302     0.0001
  591   11.800   2985.51    28.1322     0.1678     0.1158     0.1180    28.1816     0.5946   188.8000    27.9928     0.0000
  592   11.820   2986.50    27.7614     0.1655     0.1148     0.1182    27.8098     0.5951   189.1200    27.6207    -0.0001
  593   11.840   2987.46    27.5989     0.1516     0.1123     0.1184    27.6454     0.5486   189.4400    27.4559    -0.0003
  594   11.860   2988.45    27.4380     0.1410     0.1095     0.1186    27.4842     0.5130   189.7600    27.2945    -0.0003
  595   11.880   2989.43    27.2626     0.1337     0.0997     0.1188    27.3081     0.4901   190.0800    27.1180    -0.0004
  596   11.900   2990.39    27.1498     0.1245     0.1000     0.1190    27.1942     0.4581   190.4000    27.0038    -0.0005
  597   11.920   2991.40    27.0580     0.1129     0.0661     0.1192    27.0943     0.4163   190.7200    26.9036    -0.0012
  598   11.940   2992.36    26.3948     0.1024     0.0739     0.1194    26.4197     0.3842   191.0400    26.2287    -0.0023
  599   11.960   2993.31    25.3217     0.0927     0.0719     0.1196    25.3524     0.3611   191.3600    25.1611    -0.0018
  600   11.980   2994.26    24.6500     0.0920     0.0919     0.1198    24.6859     0.3712   191.6800    24.4943    -0.0014
  601   12.000   2995.24    24.0634     0.0940     0.0987     0.1200    24.1061     0.3881   192.0000    23.9141    -0.0008
  602   12.020   2996.19    23.4374     0.0996     0.1065     0.1202    23.4787     0.4208   192.3200    23.2864    -0.0009
  603   12.040   2997.18    22.7192     0.0966     0.1076     0.1204    22.7660     0.4200   192.6400    22.5734    -0.0004
  604   12.060   2998.14    21.8088     0.0937     0.1098     0.1206    21.8547     0.4229   192.9600    21.6617    -0.0005
  605   12.080   2999.11    20.7262     0.0934     0.1114     0.1208    20.7719     0.4419   193.2800    20.5786    -0.0006
  606   12.100   3000.06    19.4959     0.0912     0.1193     0.1210    19.5451     0.4583   193.6000    19.3515    -0.0002
  607   12.120   3000.99    18.3254     0.0795     0.1198     0.1212    18.3758     0.4248   193.9200    18.1819    -0.0001
  608   12.140   3001.93    17.2707     0.0688     0.1000     0.1214    17.3161     0.3913   194.2400    17.1219    -0.0008
  609   12.160   3002.92    16.5366     0.0678     0.1094     0.1216    16.5789     0.4058   194.5600    16.3844    -0.0013
  610   12.180   3003.88    16.1289     0.0638     0.1101     0.1218    16.1743     0.3942   194.8800    15.9794    -0.0009
  611   12.200   3004.85    16.1546     0.0620     0.1120     0.1220    16.2007     0.3848   195.2000    16.0055    -0.0008
  612   12.220   3005.79    16.6109     0.0615     0.1125     0.1222    16.6596     0.3729   195.5200    16.4641    -0.0004
  613   12.240   3006.76    17.3757     0.0638     0.0989     0.1224    17.4204     0.3715   195.8400    17.2246    -0.0009
  614   12.260   3007.77    18.5171     0.0620    -0.0020     0.1226    18.5338     0.3407   196.1600    18.3377    -0.0045
  615   12.280   3008.76    19.1721     0.0612     0.0509     0.1228    19.1953     0.3204   196.4800    18.9988    -0.0036
  616   12.300   3009.71    19.7696     0.0656     0.0528     0.1230    19.7924     0.3341   196.8000    19.5956    -0.0035
  617   12.320   3010.67    20.2960     0.0733    -0.0308     0.1232    20.2975     0.3634   197.1200    20.1004    -0.0059
  618   12.340   3011.65    20.7038     0.0857    -0.0916     0.1234    20.6686     0.4161   197.4400    20.4712    -0.0101
  619   12.360   3012.64    21.0037     0.1019    -0.1056     0.1236    20.9615     0.4865   197.7600    20.7637    -0.0108
  620   12.380   3013.59    21.2001     0.1169    -0.0641     0.1238    21.1661     0.5544   198.0800    20.9680    -0.0098
  621   12.400   3014.56    21.4295     0.1249    -0.0355     0.1240    21.4106     0.5828   198.4000    21.2122    -0.0080
  622   12.420   3015.52    21.2266     0.1329    -0.0057     0.1242    21.2216     0.6237   198.7200    21.0229    -0.0065
  623   12.440   3016.44    20.9695     0.1390     0.0198     0.1244    20.9735     0.6618   199.0400    20.7745    -0.0055
  624   12.460   3017.44    20.9488     0.1452     0.0351     0.1246    20.9595     0.6937   199.3600    20.7602    -0.0048
  625   12.480   3018.41    21.2323     0.1409     0.0639     0.1248    21.2528     0.6672   199.6800    21.0531    -0.0036
  626   12.500   3019.40    21.8831     0.1425     0.0816     0.1250    21.9173     0.6575   200.0000    21.7173    -0.0020
  627   12.520   3020.36    22.6762     0.1531     0.0883     0.1252    22.7135     0.6806   200.3200    22.5131    -0.0016
  628   12.540   3021.35    23.4220     0.1625     0.1031     0.1254    23.4601     0.6987   200.6400    23.2595    -0.0015
  629   12.560   3022.30    24.0702     0.1694     0.0823     0.1256    24.1062     0.7090   200.9600    23.9053    -0.0017
  630   12.580   3023.31    24.4455     0.1701     0.0990     0.1258    24.4831     0.6977   201.2800    24.2818    -0.0015
  631   12.600   3024.28    24.2776     0.1662     0.1189     0.1260    24.3241     0.6826   201.6000    24.1225    -0.0006
  632   12.620   3025.26    24.2926     0.1665     0.1099     0.1262    24.3397     0.6865   201.9200    24.1378    -0.0006
  633   12.640   3026.22    24.4683     0.1570     0.0992     0.1264    24.5090     0.6428   202.2400    24.3067    -0.0012
  634   12.660   3027.17    25.1359     0.1393     0.0944     0.1266    25.1758     0.5588   202.5600    24.9732    -0.0013
  635   12.680   3028.19    26.4248     0.1251     0.0985     0.1268    26.4680     0.4798   202.8800    26.2651    -0.0009
  636   12.700   3029.12    27.7000     0.1099     0.0965     0.1270    27.7412     0.4023   203.2000    27.5380    -0.0011
  637   12.720   3030.12    28.8102     0.0996     0.0711     0.1272    28.8434     0.3489   203.5200    28.6399    -0.0017
  638   12.740   3031.12    29.2766     0.0956     0.0468     0.1274    29.2998     0.3281   203.8400    29.0959    -0.0025
  639   12.760   3032.08    28.8752     0.0910     0.0509     0.1276    28.8968     0.3134   204.1600    28.6926    -0.0027
  640   12.780   3033.05    27.8746     0.0975     0.0360     0.1278    27.8863     0.3444   204.4800    27.6819    -0.0036
  641   12.800   3034.01    26.7031     0.1018     0.0328     0.1280    26.7174     0.3745   204.8000    26.5126    -0.0035
  642   12.820   3034.94    25.6390     0.1081     0.0677     0.1282    25.6669     0.4167   205.1200    25.4618    -0.0024
  643   12.840   3035.91    24.8470     0.1126     0.0548     0.1284    24.8732     0.4494   205.4400    24.6678    -0.0027
  644   12.860   3036.85    24.2777     0.1118     0.1068     0.1286    24.3143     0.4578   205.7600    24.1086    -0.0017
  645   12.880   3037.85    23.7141     0.1103     0.0917     0.1288    23.7561     0.4636   206.0800    23.5500    -0.0012
  646   12.900   3038.77    22.9394     0.1088     0.1015     0.1290    22.9821     0.4694   206.4000    22.7757    -0.0012
  647   12.920   3039.75    21.8225     0.1012     0.0916     0.1292    21.8637     0.4532   206.7200    21.6570    -0.0014
  648   12.940   3040.72    20.3336     0.0814     0.0814     0.1294    20.3676     0.3880   207.0400    20.1606    -0.0024
  649   12.960   3046.83    18.4549     0.0685     0.0880     0.1296    18.4908     0.3541   207.3600    18.2834    -0.0024
  650   12.980   3059.97    16.3114     0.0579     0.0955     0.1298    16.3504     0.2991   207.6800    16.1428    -0.0022
  651   13.000   3073.10    14.1678     0.0476     0.1031     0.1300    14.2100     0.2457   208.0000    14.0020    -0.0021
  652   13.020   3083.48    12.2254     0.0436     0.1074     0.1302    12.2702     0.3538   208.3200    12.0619    -0.0019
  653   13.040   3084.50    10.8423     0.0418     0.1130     0.1304    10.8885     0.3721   208.6400    10.6799    -0.0019
  654   13.060   3085.47     9.3417     0.0431     0.1201     0.1306     9.3892     0.4326   208.9600     9.1802    -0.0019
  655   13.080   3086.48     8.0399     0.0448     0.1181     0.1308     8.0892     0.5287   209.2800     7.8799    -0.0017
  656   13.100   3087.49     6.7348     0.0430     0.1235     0.1310     6.7862     0.6129   209.6000     6.5766    -0.0013
  657   13.120   3088.53     5.5049     0.0436     0.1175     0.1312     5.5539     0.7781   209.9200     5.3440    -0.0027
  658   13.140   3089.53     4.4853     0.0474     0.1235     0.1314     4.5358     1.0108   210.2400     4.3256    -0.0025
  659   13.160   3090.58     3.6948     0.0552     0.1299     0.1316     3.7478     1.4770   210.5600     3.5372    -0.0015
  660   13.180   3091.58     3.1957     0.0582     0.1349     0.1318     3.2523     1.7970   210.8800     3.0414     0.0009
  661   13.200   3092.56     2.7994     0.0555     0.1384     0.1320     2.8567     1.9661   211.2000     2.6455     0.0017
  662   13.220   3093.56     2.4949     0.0522     0.1458     0.1322     2.5545     2.0642   211.5200     2.3430     0.0042
  663   13.240   3094.53     2.2757     0.0503     0.1714     0.1324     2.3450     2.1992   211.8400     2.1332     0.0153
  664   13.260   3095.63     2.1306     0.0477     0.1680     0.1326     2.2027     2.2273   212.1600     1.9906     0.0196
  665   13.280   3096.62     2.0464     0.0447     0.1656     0.1328     2.1145     2.1683   212.4800     1.9020     0.0155
  666   13.300   3097.56     1.8675     0.0396     0.2034     0.1330     1.9478     2.1010   212.8000     1.7350     0.0338
  667   13.320   3098.57     1.7106     0.0331     0.1856     0.1332     1.7943     1.9207   213.1200     1.5811     0.0417
  668   13.340   3099.57     1.5979     0.0294     0.1550     0.1334     1.6644     1.8006   213.4400     1.4509     0.0172
  669   13.360   3100.59     1.6371     0.0289     0.1376     0.1336     1.6993     1.7766   213.7600     1.4855     0.0097
  670   13.380   3101.59     1.7522     0.0290     0.1152     0.1338     1.8007     1.6609   214.0800     1.5866    -0.0115
  671   13.400   3102.62     1.7697     0.0316     0.1011     0.1340     1.8145     1.7829   214.4000     1.6001    -0.0172
  672   13.420   3103.61     1.6965     0.0363     0.1079     0.1342     1.7405     2.1311   214.7200     1.5258    -0.0192
  673   13.440   3104.62     1.5742     0.0394     0.1151     0.1344     1.6222     2.4781   215.0400     1.4072    -0.0144
  674   13.460   3105.60     1.4059     0.0412     0.1212     0.1346     1.4546     2.8088   215.3600     1.2392    -0.0152
  675   13.480   3106.59     1.2274     0.0363     0.1498     0.1348     1.2859     2.9386   215.6800     1.0703     0.0044
  676   13.500   3107.58     1.0856     0.0316     0.1833     0.1350     1.1582     2.7348   216.0000     0.9422     0.0406
  677   13.520   3108.55     0.9033     0.0318     0.2130     0.1352     0.9885     3.1960   216.3200     0.7722     0.0884
  678   13.540   3109.59     0.9445     0.0327     0.2681     0.1354     1.0468     4.0507   216.6400     0.8302     0.1303
  679   13.560   3110.62     2.3382     0.0339     0.3088     0.1356     2.4655     1.9707   216.9600     2.2486     0.0772
  680   13.580   3111.65     4.5993     0.0374     0.1558     0.1358     4.6873     0.8504   217.2800     4.4700     0.0182
  681   13.600   3112.67     6.0417     0.0432     0.1199     0.1360     6.0922     0.7291   217.6000     5.8746    -0.0027
  682   13.620   3113.69     7.1124     0.0526     0.1238     0.1362     7.1638     0.7859   217.9200     6.9459    -0.0020
  683   13.640   3114.69     8.0586     0.0636     0.1082     0.1364     8.1065     0.7931   218.2400     7.8883    -0.0028
  684   13.660   3115.68     8.1073     0.0743     0.0996     0.1366     8.1501     0.9137   218.5600     7.9315    -0.0044
  685   13.680   3116.73     7.3442     0.0838     0.1025     0.1368     7.3855     1.1271   218.8800     7.1666    -0.0054
  686   13.700   3117.71     6.3027     0.0838     0.1137     0.1370     6.3492     1.3167   219.2000     6.1300    -0.0043
  687   13.720   3118.73     5.1316     0.0882     0.1183     0.1372     5.1813     1.6685   219.5200     4.9618    -0.0038
  688   13.740   3119.74     4.2475     0.0825     0.1233     0.1374     4.2981     1.9221   219.8400     4.0782    -0.0042
  689   13.760   3120.71     3.8335     0.0753     0.1394     0.1376     3.8886     1.9238   220.1600     3.6684    -0.0017
  690   13.780   3121.72     4.1651     0.0685     0.1496     0.1378     4.2277     1.7779   220.4800     4.0073     0.0028
  691   13.800   3122.74     5.5735     0.0610     0.1478     0.1380     5.6362     1.2182   220.8000     5.4154     0.0021
  692   13.820   3123.75     6.0598     0.0625     0.1351     0.1382     6.1206     1.0279   221.1200     5.8995     0.0011
  693   13.840   3124.77     5.5041     0.0572     0.0974     0.1384     5.5492     1.0260   221.4400     5.3277    -0.0058
  694   13.860   3125.80     4.9579     0.0502     0.0796     0.1386     4.9917     1.0018   221.7600     4.7699    -0.0122
  695   13.880   3126.79     4.4663     0.0542     0.0788     0.1388     4.4997     1.2032   222.0800     4.2776    -0.0139
  696   13.900   3127.80     3.9934     0.0655     0.0763     0.1390     4.0281     1.6247   222.4000     3.8057    -0.0148
  697   13.920   3128.82     3.1533     0.0771     0.0801     0.1392     3.1838     2.3497   222.7200     2.9611    -0.0225
  698   13.940   3129.80     2.3373     0.0792     0.0936     0.1394     2.3733     3.2909   223.0400     2.1502    -0.0251
  699   13.960   3130.81     1.7431     0.0734     0.1067     0.1396     1.7853     4.1455   223.3600     1.5619    -0.0250
  700   13.980   3131.78     1.2593     0.0649     0.1340     0.1398     1.3132     4.9846   223.6800     1.0895    -0.0105
  701   14.000   3132.81     0.9099     0.0572     0.1487     0.1400     0.9684     6.0994   224.0000     0.7444    -0.0008
  702   14.020   3133.78     0.7612     0.0474     0.1684     0.1402     0.8307     6.0583   224.3200     0.6064     0.0418
  703   14.040   3134.81     0.5111     0.0383     0.1879     0.1404     0.5861     7.3498   224.6400     0.3614     0.1053
  704   14.060   3135.81     0.4095     0.0296     0.1989     0.1406     0.4919     7.1295   224.9600     0.2670     0.2081
  705   14.080   3136.81     0.3804     0.0208     0.2764     0.1408     0.4859     5.4330   225.2800     0.2606     0.4236
  706   14.100   3137.78     0.3682     0.0191     0.3224     0.1410     0.4988     5.1640   225.6000     0.2732     0.6217
  707   14.120   3138.79     0.3424     0.0194     0.3443     0.1412     0.4856     5.6309   225.9200     0.2597     0.7689
  708   14.140   3139.79     0.3330     0.0197     0.3518     0.1414     0.4796     5.9032   226.2400     0.2534     0.8198
  709   14.160   3140.82     0.3198     0.0200     0.3524     0.1416     0.4670     6.2366   226.5600     0.2404     0.8690
  710   14.180   3141.84     0.3192     0.0200     0.3633     0.1418     0.4706     6.2545   226.8800     0.2437     0.8973
  711   14.200   3142.79     0.3129     0.0202     0.3608     0.1420     0.4632     6.4447   227.2000     0.2360     0.9148
  712   14.220   3143.84     0.3027     0.0204     0.3702     0.1422     0.4571     6.7042   227.5200     0.2296     0.9817
  713   14.240   3144.80     0.3040     0.0205     0.3783     0.1424     0.4616     6.7613   227.8400     0.2337     0.9964
  714   14.260   3145.84     0.2981     0.0205     0.3845     0.1426     0.4594     6.8674   228.1600     0.2312     1.0439
  715   14.280   3146.85     0.2977     0.0205     0.3898     0.1428     0.4608     6.8819   228.4800     0.2324     1.0571
  716   14.300   3147.85     0.2906     0.0210     0.3982     0.1430     0.4566     7.1770   228.8000     0.2278     1.1078
  717   14.320   3148.83     0.2775     0.0214     0.4035     0.1432     0.4461     7.6833   229.1200     0.2170     1.1908
  718   14.340   3149.85     0.2735     0.0208     0.4078     0.1434     0.4441     7.5996   229.4400     0.2147     1.2244
  719   14.360   3150.81     0.2757     0.0202     0.4107     0.1436     0.4477     7.3300   229.7600     0.2179     1.2197
  720   14.380   3151.81     0.2785     0.0199     0.4126     0.1438     0.4516     7.1528   230.0800     0.2215     1.2115
  721   14.400   3152.83     0.2828     0.0199     0.4159     0.1440     0.4564     7.0462   230.4000     0.2260     1.1917
  722   14.420   3153.86     0.3086     0.0196     0.4187     0.1442     0.4851     6.4656   230.7200     0.2543     1.0867
  723   14.440   3154.85     0.3653     0.0190     0.4028     0.1444     0.5380     5.2744   231.0400     0.3070     0.8718
  724   14.460   3155.86     0.4569     0.0181     0.3802     0.1446     0.6193     3.9934   231.3600     0.3879     0.6245
  725   14.480   3156.84     0.5366     0.0190     0.3779     0.1448     0.6972     3.8140   231.6800     0.4655     0.5109
  726   14.500   3157.86     0.6434     0.0198     0.3639     0.1450     0.7976     3.1135   232.0000     0.5656     0.3930
  727   14.520   3158.89     0.7141     0.0201     0.3567     0.1452     0.8634     2.8391   232.3200     0.6310     0.3330
  728   14.540   3159.87     0.7531     0.0191     0.3653     0.1454     0.9048     2.5438   232.6400     0.6722     0.3210
  729   14.560   3160.91     0.7591     0.0215     0.3866     0.1456     0.9194     2.8431   232.9600     0.6864     0.3436
  730   14.580   3161.88     0.7520     0.0218     0.4065     0.1458     0.9195     2.8883   233.2800     0.6863     0.3689
  731   14.600   3162.92     0.7331     0.0240     0.4250     0.1460     0.9101     3.2745   233.6000     0.6765     0.4068
  732   14.620   3163.90     0.7805     0.0263     0.4352     0.1462     0.9626     3.4823   233.9200     0.7287     0.3952
  733   14.640   3164.88     1.0260     0.0326     0.4586     0.1464     1.2109     3.2120   234.2400     0.9767     0.3010
  734   14.660   3165.88     1.2703     0.0415     0.4039     0.1466     1.4479     3.3063   234.5600     1.2133     0.2284
  735   14.680   3166.91     1.4660     0.0478     0.3914     0.1468     1.6333     3.2794   234.8800     1.3984     0.1800
  736   14.700   3167.95     1.5698     0.0462     0.2562     0.1470     1.7040     2.9707   235.2000     1.4688     0.1177
  737   14.720   3168.95     1.6573     0.0481     0.1711     0.1472     1.7333     2.8962   235.5200     1.4978     0.0225
  738   14.740   3169.95     1.7174     0.0464     0.2217     0.1474     1.8055     2.7302   235.8400     1.5697     0.0396
  739   14.760   3170.96     1.8789     0.0446     0.2782     0.1476     1.9895     2.3836   236.1600     1.7533     0.0658
  740   14.780   3171.93     1.9072     0.0439     0.2786     0.1478     2.0215     2.2886   236.4800     1.7851     0.0697
  741   14.800   3172.94     1.7565     0.0459     0.2574     0.1480     1.8684     2.5762   236.8000     1.6316     0.0726
  742   14.820   3173.95     1.5133     0.0429     0.2135     0.1482     1.6104     2.7725   237.1200     1.3732     0.0601
  743   14.840   3174.94     1.2990     0.0404     0.1684     0.1484     1.3756     3.0339   237.4400     1.1382     0.0295
  744   14.860   3175.95     1.0058     0.0384     0.1598     0.1486     1.0765     3.6992   237.7600     0.8388     0.0234
  745   14.880   3176.94     0.8517     0.0335     0.1714     0.1488     0.9181     3.8165   238.0800     0.6801     0.0147
  746   14.900   3177.97     0.6603     0.0313     0.2032     0.1490     0.7427     4.5571   238.4000     0.5043     0.0948
  747   14.920   3178.97     0.5507     0.0265     0.2682     0.1492     0.6503     4.3104   238.7200     0.4116     0.2161
  748   14.940   3179.93     0.5083     0.0217     0.3493     0.1494     0.6451     4.1709   239.0400     0.4061     0.4340
  749   14.960   3180.94     0.5142     0.0169     0.3715     0.1496     0.6661     3.3103   239.3600     0.4267     0.4969
  750   14.980   3181.95     0.5444     0.0203     0.3937     0.1498     0.7077     3.8522   239.6800     0.4681     0.5120
  751   15.000   3182.95     0.6894     0.0237     0.4196     0.1500     0.8639     3.6888   240.0000     0.6239     0.4267
  752   15.020   3192.35     0.8439     0.0191     0.3153     0.1502     0.9929     2.4952   240.3200     0.7526     0.2904
  753   15.040   3212.64     1.0211     0.0217     0.2013     0.1504     1.1222     2.8274   240.6400     0.8815     0.1208
  754   15.060   3223.81     1.1451     0.0394     0.2102     0.1506     1.2338     3.4597   240.9600     0.9928     0.0611
  755   15.080   3224.81     1.3288     0.0393     0.2553     0.1508     1.4251     3.0207   241.2800     1.1839     0.0663
  756   15.100   3225.81     1.3726     0.0441     0.3028     0.1510     1.4923     3.2497   241.6000     1.2507     0.1072
  757   15.120   3226.84     2.1817     0.0532     0.4254     0.1512     2.3455     2.6747   241.9200     2.1036     0.1152
  758   15.140   3227.85     5.7030     0.0759     0.4719     0.1514     5.8986     1.4326   242.2400     5.6563     0.0557
  759   15.160   3228.85     6.9669     0.1148     0.2308     0.1516     7.1524     1.6391   242.5600     6.9098     0.0417
  760   15.180   3229.86     5.5184     0.1232     0.0735     0.1518     5.5563     2.1543   242.8800     5.3134    -0.0117
  761   15.200   3230.79     4.3573     0.1272     0.0761     0.1520     4.3904     2.8527   243.2000     4.1472    -0.0177
  762   15.220   3231.80     3.3728     0.1256     0.1008     0.1522     3.4027     3.2900   243.5200     3.1592    -0.0257
  763   15.240   3232.82     2.9599     0.1240     0.1741     0.1524     3.0235     4.0230   243.8400     2.7796    -0.0003
  764   15.260   3233.83     3.3497     0.1238     0.1635     0.1526     3.4245     4.1557   244.1600     3.1804     0.0081
  765   15.280   3234.85     4.1549     0.1065     0.1841     0.1528     4.2345     2.8600   244.4800     3.9900     0.0092
  766   15.300   3235.83     4.5780     0.0973     0.1203     0.1530     4.6466     2.1832   244.8000     4.4018     0.0023
  767   15.320   3236.86     4.6359     0.0848     0.0849     0.1532     4.6568     1.9146   245.1200     4.4117    -0.0240
  768   15.340   3237.94     8.6952     0.0818     0.1282     0.1534     8.7408     0.9784   245.4400     8.4953    -0.0054
  769   15.360   3238.93    11.8043     0.0744     0.1438     0.1536    11.8704     0.6339   245.7600    11.6247     0.0004
  770   15.380   3239.97    11.9275     0.0727    -0.0018     0.1538    11.9338     0.6058   246.0800    11.6877    -0.0119
  771   15.400   3240.96    10.9084     0.0689    -0.0127     0.1540    10.9041     0.6202   246.4000    10.6577    -0.0154
  772   15.420   3241.94     9.3596     0.0878    -0.0228     0.1542     9.3530     0.9224   246.7200     9.1063    -0.0187
  773   15.440   3242.97     7.5249     0.1147    -0.0319     0.1544     7.5117     1.4913   247.0400     7.2647    -0.0257
  774   15.460   3243.95     5.6828     0.1279    -0.0313     0.1546     5.6680     2.1855   247.3600     5.4206    -0.0352
  775   15.480   3244.97     4.3720     0.1288    -0.0269     0.1548     4.3606     2.9151   247.6800     4.1129    -0.0444
  776   15.500   3245.94     3.4289     0.1183    -0.0045     0.1550     3.4225     3.3474   248.0000     3.1745    -0.0536
  777   15.520   3246.99     2.6902     0.1036     0.0734     0.1552     2.7099     3.8129   248.3200     2.4616    -0.0436
  778   15.540   3247.95     2.1894     0.0913     0.1588     0.1554     2.2480     4.1054   248.6400     1.9994    -0.0077
  779   15.560   3248.97     2.0159     0.0829     0.3610     0.1556     2.1300     4.1765   248.9600     1.8810     0.0599
  780   15.580   3249.97     2.7289     0.0666     0.5001     0.1558     2.9234     2.5103   249.2800     2.6742     0.1150
  781   15.600   3251.02     3.6206     0.0677     0.5024     0.1560     3.8353     1.9067   249.6000     3.5857     0.0995
  782   15.620   3252.03     4.6110     0.0796     0.3047     0.1562     4.7835     1.7544   249.9200     4.5335     0.0566
  783   15.640   3253.02     4.5676     0.0948     0.1320     0.1564     4.6395     2.0147   250.2400     4.3893     0.0031
  784   15.660   3253.99     3.7267     0.0928     0.1190     0.1566     3.7772     2.4274   250.5600     3.5266    -0.0103
  785   15.680   3255.02     2.7961     0.0919     0.1036     0.1568     2.8422     3.2437   250.8800     2.5914    -0.0183
  786   15.700   3256.05     2.2212     0.0927     0.1353     0.1570     2.2670     4.0749   251.2000     2.0158    -0.0235
  787   15.720   3257.03     1.8415     0.0839     0.1920     0.1572     1.9222     4.4885   251.5200     1.6706     0.0211
  788   15.740   3258.02     1.4243     0.0686     0.2122     0.1574     1.5021     4.7424   251.8400     1.2503     0.0232
  789   15.760   3259.04     1.2490     0.0510     0.2720     0.1576     1.3498     4.0656   252.1600     1.0977     0.0752
  790   15.780   3260.03     1.2195     0.0313     0.3680     0.1578     1.3627     2.5620   252.4800     1.1102     0.1649
  791   15.800   3261.02     1.2568     0.0240     0.4082     0.1580     1.4226     1.9106   252.8000     1.1698     0.2023
  792   15.820   3262.06     1.1568     0.0280     0.4537     0.1582     1.3359     2.3418   253.1200     1.0828     0.2484
  793   15.840   3263.04     1.0293     0.0292     0.5285     0.1584     1.2422     2.7137   253.4400     0.9887     0.3527
  794   15.860   3264.06     0.9905     0.0319     0.6010     0.1586     1.2323     3.2035   253.7600     0.9785     0.4262
  795   15.880   3265.07     1.0962     0.0293     0.6551     0.1588     1.3649     2.8790   254.0800     1.1108     0.4342
  796   15.900   3266.07     1.4395     0.0316     0.7262     0.1590     1.7362     2.4587   254.4000     1.4818     0.3700
  797   15.920   3267.11     3.7401     0.0689     0.7168     0.1592     4.0494     2.5160   254.7200     3.7946     0.1945
  798   15.940   3268.16     9.8617     0.1222     0.6627     0.1594    10.1536     1.5955   255.0400     9.8986     0.0554
  799   15.960   3269.23    14.4738     0.1249     0.0961     0.1596    14.5606     0.8959   255.3600    14.3053     0.0040
  800   15.980   3270.27    16.4832     0.1189     0.1201     0.1598    16.5302     0.7328   255.6800    16.2745    -0.0030
  801   16.000   3271.27    18.5522     0.1341     0.1603     0.1600    18.6193     0.7325   256.0000    18.3633     0.0000
  802   16.020   3272.21    17.3018     0.1525     0.1225     0.1602    17.3669     0.8721   256.3200    17.1106    -0.0003
  803   16.040   3273.20    14.9670     0.1665     0.0842     0.1604    15.0033     1.1008   256.6400    14.7466    -0.0050
  804   16.060   3274.18    11.8494     0.1629     0.0875     0.1606    11.8861     1.2440   256.9600    11.6291    -0.0063
  805   16.080   3275.20     9.9932     0.1777     0.0814     0.1608    10.0302     1.7672   257.2800     9.7729    -0.0075
  806   16.100   3276.18     8.6524     0.2061     0.0635     0.1610     8.6803     2.3602   257.6000     8.4227    -0.0113
  807   16.120   3277.24     7.1868     0.2374     0.1006     0.1612     7.2215     3.2775   257.9200     6.9635    -0.0113
  808   16.140   3278.20     5.9447     0.2304     0.1029     0.1614     5.9927     3.8364   258.2400     5.7345    -0.0082
  809   16.160   3279.25     4.5555     0.2149     0.1320     0.1616     4.6014     4.6625   258.5600     4.3429    -0.0120
  810   16.180   3280.23     3.8187     0.1774     0.2266     0.1618     3.9007     4.3362   258.8800     3.6419     0.0093
  811   16.200   3281.24     3.3713     0.1419     0.1786     0.1620     3.4436     3.9779   259.2000     3.1844     0.0029
  812   16.220   3282.25     2.6986     0.1244     0.6710     0.1622     2.9267     4.1604   259.5200     2.6672     0.1433
  813   16.240   3283.29     3.0342     0.1094     0.9138     0.1624     3.3796     4.0510   259.8400     3.1198     0.2115
  814   16.260   3284.34     4.4867     0.1030     1.0417     0.1626     4.9271     2.8530   260.1600     4.6669     0.1901
  815   16.280   3285.31     5.8733     0.1152     0.6514     0.1628     6.2585     2.1321   260.4800     5.9980     0.1259
  816   16.300   3286.35     6.8096     0.1257     0.0720     0.1630     6.8700     1.9810   260.8000     6.6092    -0.0028
  817   16.320   3287.37     8.8407     0.1294     0.0420     0.1632     8.8579     1.6066   261.1200     8.5968    -0.0142
  818   16.340   3288.43    10.2801     0.1359     0.0408     0.1634    10.2939     1.4043   261.4400    10.0324    -0.0130
  819   16.360   3289.42    10.7895     0.1368     0.0801     0.1636    10.8205     1.2825   261.7600    10.5588    -0.0085
  820   16.380   3290.46    10.8176     0.1460     0.1031     0.1638    10.8603     1.3556   262.0800    10.5982    -0.0059
  821   16.400   3291.51    11.3658     0.1498     0.1368     0.1640    11.4208     1.3351   262.4000    11.1584    -0.0030
  822   16.420   3292.54    12.3669     0.1603     0.1408     0.1642    12.4269     1.3570   262.7200    12.1642    -0.0017
  823   16.440   3293.57    13.3699     0.1743     0.1015     0.1644    13.4228     1.3445   263.0400    13.1598    -0.0029
  824   16.460   3294.55    13.2269     0.1897     0.0167     0.1646    13.2447     1.4039   263.3600    12.9814    -0.0094
  825   16.480   3295.59    11.0766     0.1771    -0.0330     0.1648    11.0660     1.4531   263.6800    10.8023    -0.0177
  826   16.500   3296.60     9.5441     0.1542    -0.0178     0.1650     9.5312     1.5301   264.0000     9.2672    -0.0211
  827   16.520   3297.62     9.6429     0.1373    -0.0137     0.1652     9.6422     1.4262   264.3200     9.3779    -0.0178
  828   16.540   3298.66    11.2147     0.1283     0.0295     0.1654    11.2125     1.1696   264.6400    10.9479    -0.0156
  829   16.560   3299.69    12.0525     0.1270     0.0959     0.1656    12.0837     1.0635   264.9600    11.8187    -0.0077
  830   16.580   3300.73    13.4308     0.1292     0.0064     0.1658    13.4443     1.0049   265.2800    13.1790    -0.0101
  831   16.600   3301.72    15.7366     0.1169     0.0162     0.1660    15.7361     0.7791   265.6000    15.4705    -0.0108
  832   16.620   3302.72    17.0817     0.0974     0.0115     0.1662    17.0883     0.5790   265.9200    16.8224    -0.0089
  833   16.640   3303.69    17.1080     0.1058     0.0110     0.1664    17.1132     0.6161   266.2400    16.8470    -0.0091
  834   16.660   3304.62    16.5201     0.1185    -0.0130     0.1666    16.5181     0.7125   266.5600    16.2516    -0.0105
  835   16.680   3305.59    15.4865     0.1400    -0.0103     0.1668    15.4816     0.8978   266.8800    15.2147    -0.0117
  836   16.700   3306.56    14.3102     0.1507    -0.0040     0.1670    14.3074     1.0464   267.2000    14.0402    -0.0124
  837   16.720   3307.53    11.8172     0.1635    -0.0062     0.1672    11.8146     1.3316   267.5200    11.5471    -0.0150
  838   16.740   3308.57    10.0592     0.1609     0.0049     0.1674    10.0585     1.5437   267.8400     9.7906    -0.0173
  839   16.760   3309.55     8.7515     0.1584     0.0549     0.1676     8.7644     1.8007   268.1600     8.4962    -0.0161
  840   16.780   3310.59     8.8820     0.1601     0.1821     0.1678     8.9401     1.8281   268.4800     8.6717    -0.0034
  841   16.800   3311.59     9.0019     0.1641     0.2318     0.1680     9.0948     1.8213   268.8000     8.8260     0.0060
  842   16.820   3312.61     8.0139     0.1626     0.0775     0.1682     8.0841     2.0093   269.1200     7.8149    -0.0005
  843   16.840   3313.59     6.2954     0.1467    -0.0369     0.1684     6.2833     2.2995   269.4400     6.0139    -0.0331
  844   16.860   3314.61     4.6329     0.1100    -0.0225     0.1686     4.6208     2.1555   269.7600     4.3511    -0.0455
  845   16.880   3315.64     3.6808     0.1059    -0.0014     0.1688     3.6770     2.8523   270.0800     3.4069    -0.0523
  846   16.900   3316.66     3.1724     0.0882     0.0625     0.1690     3.1856     2.7554   270.4000     2.9152    -0.0470
  847   16.920   3317.65     2.6796     0.0716     0.1771     0.1692     2.7317     2.5047   270.7200     2.4610    -0.0180
  848   16.940   3318.67     2.2386     0.0644     0.3775     0.1694     2.3744     2.7202   271.0400     2.1033     0.0738
  849   16.960   3319.66     1.9065     0.0718     0.5646     0.1696     2.1115     3.1069   271.3600     1.8401     0.1737
  850   16.980   3320.70     2.3122     0.0827     0.7794     0.1698     2.6112     3.1057   271.6800     2.3395     0.2319
  851   17.000   3321.71     3.6847     0.0936     0.8084     0.1700     4.0428     3.1046   272.0000     3.7708     0.1817
  852   17.020   3322.73     4.6214     0.0959     0.3955     0.1702     4.8617     2.1985   272.3200     4.5894     0.0878
  853   17.040   3323.75     4.5164     0.1085     0.2249     0.1704     4.6112     2.3336   272.6400     4.3385     0.0127
  854   17.060   3324.75     4.2922     0.1350     0.2454     0.1706     4.3984     3.0728   272.9600     4.1254     0.0199
  855   17.080   3337.13     4.2425     0.1420     0.2088     0.1708     4.3355     3.3191   273.2800     4.0622     0.0123
  856   17.100   3350.28     4.2035     0.1403     0.1722     0.1710     4.2811     3.2796   273.6000     4.0075     0.0033
  857   17.120   3356.82     3.9631     0.1349     0.1397     0.1712     4.0164     3.3647   273.9200     3.7425    -0.0118
  858   17.140   3357.83     3.3266     0.1192     0.1618     0.1714     3.3765     3.5477   274.2400     3.1022    -0.0168
  859   17.160   3358.83     2.6967     0.1076     0.1978     0.1716     2.7636     3.9425   274.5600     2.4890    -0.0048
  860   17.180   3359.86     2.3144     0.1141     0.2173     0.1718     2.4053     4.9186   274.8800     2.1304     0.0210
  861   17.200   3360.85     2.4671     0.0895     0.3651     0.1720     2.5799     3.6397   275.2000     2.3047     0.0416
  862   17.220   3361.88     2.6222     0.0960     0.4088     0.1722     2.7984     3.7169   275.5200     2.5229     0.0982
  863   17.240   3362.90     2.8406     0.1091     0.2278     0.1724     2.9627     3.8798   275.8400     2.6868     0.0441
  864   17.260   3363.94     2.9084     0.1050     0.2428     0.1726     3.0056     3.6001   276.1600     2.7295     0.0216
  865   17.280   3364.84     2.5941     0.0995     0.2725     0.1728     2.7147     3.7764   276.4800     2.4383     0.0470
  866   17.300   3365.88     2.0223     0.0928     0.1503     0.1730     2.0812     4.5453   276.8000     1.8044    -0.0181
  867   17.320   3366.84     1.7501     0.0687     0.2556     0.1732     1.8353     3.8926   277.1200     1.5581     0.0193
  868   17.340   3367.89     1.4310     0.0572     0.4283     0.1734     1.5855     3.9388   277.4400     1.3080     0.1494
  869   17.360   3368.90     1.3718     0.0492     0.5158     0.1736     1.5793     3.6109   277.7600     1.3015     0.2462
  870   17.380   3369.89     1.6039     0.0834     0.5930     0.1738     1.8418     5.6523   278.0800     1.5637     0.2511
  871   17.400   3370.92     2.2742     0.1038     0.6819     0.1740     2.5514     5.6215   278.4000     2.2730     0.2160
  872   17.420   3371.91     3.5199     0.0992     0.6264     0.1742     3.8113     3.3207   278.7200     3.5326     0.1490
  873   17.440   3372.93     4.2392     0.1104     0.3107     0.1744     4.4095     2.7091   279.0400     4.1304     0.0564
  874   17.460   3373.97     4.9571     0.1318     0.3023     0.1746     5.0824     2.8627   279.3600     4.8031     0.0258
  875   17.480   3375.00     6.9472     0.1379     0.4881     0.1748     7.0802     2.3569   279.6800     6.8005     0.0200
  876   17.500   3376.08    10.5224     0.1421     0.3360     0.1750    10.7260     1.5244   280.0000    10.4460     0.0320
  877   17.520   3377.12    15.8889     0.1320     0.0887     0.1752    15.9507     0.8711   280.3200    15.6704    -0.0016
  878   17.540   3378.14    19.9899     0.1208     0.0302     0.1754    20.0044     0.6320   280.6400    19.7237    -0.0071
  879   17.560   3379.12    21.5871     0.1381     0.0571     0.1756    21.6105     0.6453   280.9600    21.3295    -0.0056
  880   17.580   3380.10    21.2431     0.1701     0.0206     0.1758    21.2540     0.7949   281.2800    20.9727    -0.0072
  881   17.600   3381.08    20.1271     0.1839     0.0300     0.1760    20.1378     0.8995   281.6000    19.8562    -0.0076
  882   17.620   3382.00    18.3970     0.2098     0.0508     0.1762    18.4129     1.1273   281.9200    18.1310    -0.0076
  883   17.640   3383.00    15.7710     0.2009     0.0502     0.1764    15.7940     1.2605   282.2400    15.5117    -0.0079
  884   17.660   3383.97    13.1580     0.2018     0.1009     0.1766    13.1906     1.4475   282.5600    12.9081    -0.0076
  885   17.680   3385.01    12.6358     0.2133     0.1545     0.1768    12.7046     1.7064   282.8800    12.4217    -0.0010
  886   17.700   3386.01    14.1000     0.2116     0.1234     0.1770    14.1552     1.5108   283.2000    13.8720    -0.0033
  887   17.720   3387.02    14.5821     0.2153     0.1541     0.1772    14.6350     1.4939   283.5200    14.3515    -0.0036
  888   17.740   3388.05    12.3905     0.2023    -0.0401     0.1774    12.4028     1.5173   283.8400    12.1189    -0.0127
  889   17.760   3389.03    10.1310     0.1744     0.0179     0.1776    10.1190     1.6011   284.1600     9.8349    -0.0209
  890   17.780   3390.08     9.9927     0.1709     0.1336     0.1778    10.0358     1.7236   284.4800     9.7513    -0.0077
  891   17.800   3391.06    10.5162     0.1775     0.2558     0.1780    10.6113     1.7221   284.8000    10.3265     0.0047
  892   17.820   3392.07    10.4448     0.1611     0.0255     0.1782    10.5135     1.5336   285.1200    10.2284    -0.0017
  893   17.840   3393.08     9.4489     0.1227    -0.0888     0.1784     9.4200     1.2649   285.4400     9.1346    -0.0272
  894   17.860   3394.12     8.0731     0.1363    -0.1124     0.1786     8.0284     1.6645   285.7600     7.7426    -0.0369
  895   17.880   3395.14     6.4256     0.1548    -0.1291     0.1788     6.3714     2.3758   286.0800     6.0853    -0.0508
  896   17.900   3396.14     4.9829     0.1625    -0.1202     0.1790     4.9312     3.1879   286.4000     4.6448    -0.0653
  897   17.920   3397.13     4.6432     0.1507    -0.0810     0.1792     4.6010     3.3239   286.7200     4.3142    -0.0649
  898   17.940   3398.14     4.8671     0.1500    -0.0133     0.1794     4.8466     3.1119   287.0400     4.5595    -0.0501
  899   17.960   3399.13     4.8968     0.1698     0.0558     0.1796     4.9169     3.5019   287.3600     4.6295    -0.0285
  900   17.980   3400.17     5.9229     0.1854     0.1392     0.1798     5.9547     3.4345   287.6800     5.6670    -0.0185
  901   18.000   3401.18     6.4890     0.1727     0.0826     0.1800     6.5590     2.6927   288.0000     6.2710    -0.0021
  902   18.020   3402.16     5.5929     0.1530    -0.0691     0.1802     5.5691     2.5618   288.3200     5.2807    -0.0452
  903   18.040   3403.23     4.7443     0.1715     0.0183     0.1804     4.7296     3.4525   288.6400     4.4410    -0.0484
  904   18.060   3404.28     6.2767     0.1871     0.1398     0.1806     6.3293     3.4944   288.9600     6.0404    -0.0093
  905   18.080   3405.30     8.3590     0.1951     0.1945     0.1808     8.4225     2.6774   289.2800     8.1333    -0.0037
  906   18.100   3406.32    10.3297     0.1816     0.1300     0.1810    10.4073     1.9328   289.6000    10.1177     0.0004
  907   18.120   3407.37    11.7935     0.1553     0.1415     0.1812    11.8293     1.3339   289.9200    11.5394    -0.0084
  908   18.140   3408.39    13.3708     0.1300     0.1765     0.1814    13.4624     0.9973   290.2400    13.1722     0.0028
  909   18.160   3409.42    14.5934     0.1207     0.0299     0.1816    14.6390     0.8483   290.5600    14.3485    -0.0050
  910   18.180   3410.44    16.3322     0.1369    -0.0581     0.1818    16.3140     0.8597   290.8800    16.0232    -0.0140
  911   18.200   3411.41    17.4454     0.1629    -0.1369     0.1820    17.4013     0.9441   291.2000    17.1101    -0.0168
  912   18.220   3412.39    17.9727     0.1944    -0.1823     0.1822    17.9017     1.0894   291.5200    17.6102    -0.0199
  913   18.240   3413.32    18.0581     0.1982    -0.1817     0.1824    17.9824     1.0936   291.8400    17.6905    -0.0205
  914   18.260   3414.30    17.4225     0.2007    -0.1683     0.1826    17.3501     1.1441   292.1600    17.0579    -0.0208
  915   18.280   3415.26    16.4749     0.1977    -0.1280     0.1828    16.4132     1.1864   292.4800    16.1207    -0.0204
  916   18.300   3416.26    17.5481     0.1874    -0.1002     0.1830    17.5202     1.0887   292.8000    17.2274    -0.0145
  917   18.320   3417.32    20.2930     0.1774    -0.1926     0.1832    20.2265     0.9287   293.1200    19.9334    -0.0171
  918   18.340   3418.26    23.2713     0.1641    -0.1721     0.1834    23.2001     0.7279   293.4400    22.9067    -0.0154
  919   18.360   3419.21    24.0588     0.1582    -0.2067     0.1836    23.9763     0.6581   293.7600    23.6825    -0.0161
  920   18.380   3420.18    23.7366     0.1430    -0.2094     0.1838    23.6484     0.5991   294.0800    23.3543    -0.0169
  921   18.400   3421.17    23.2987     0.1227    -0.2009     0.1840    23.2129     0.5233   294.4000    22.9185    -0.0169
  922   18.420   3422.17    24.0032     0.1023    -0.1804     0.1842    23.9240     0.4369   294.7200    23.6293    -0.0158
  923   18.440   3423.13    25.4498     0.0935    -0.1536     0.1844    25.3804     0.3751   295.0400    25.0853    -0.0139
  924   18.460   3424.07    25.5220     0.0865    -0.1235     0.1846    25.4667     0.3354   295.3600    25.1713    -0.0126
  925   18.480   3425.06    24.0989     0.0863    -0.1113     0.1848    24.0520     0.3518   295.6800    23.7563    -0.0125
  926   18.500   3426.01    21.9471     0.1029    -0.1267     0.1850    21.8964     0.4621   296.0000    21.6004    -0.0142
  927   18.520   3426.95    19.4233     0.1287    -0.1625     0.1852    19.3636     0.6585   296.3200    19.0673    -0.0172
  928   18.540   3427.88    16.3763     0.1459    -0.1747     0.1854    16.3070     0.8112   296.6400    16.0104    -0.0219
  929   18.560   3428.85    13.5465     0.1605    -0.1779     0.1856    13.4706     1.0936   296.9600    13.1737    -0.0278
  930   18.580   3429.89    11.6562     0.1606    -0.1498     0.1858    11.5871     1.3403   297.2800    11.2898    -0.0310
  931   18.600   3430.94    11.6715     0.1621    -0.0803     0.1860    11.6300     1.3904   297.6000    11.3324    -0.0251
  932   18.620   3431.96    11.6606     0.1818    -0.0475     0.1862    11.6364     1.5550   297.9200    11.3385    -0.0215
  933   18.640   3432.97    10.6250     0.2103    -0.0251     0.1864    10.6107     1.9669   298.2400    10.3124    -0.0214
  934   18.660   3433.98     8.9697     0.2019    -0.0871     0.1866     8.9437     2.2285   298.5600     8.6452    -0.0289
  935   18.680   3435.00     7.6693     0.1906    -0.0834     0.1868     7.6312     2.3511   298.8800     7.3323    -0.0379
  936   18.700   3436.01     6.4969     0.1746    -0.0014     0.1870     6.4804     2.5902   299.2000     6.1812    -0.0364
  937   18.720   3437.01     5.3104     0.1434     0.1144     0.1872     5.3399     2.4409   299.5200     5.0404    -0.0229
  938   18.740   3438.02     4.3672     0.1269     0.2109     0.1874     4.4342     2.6694   299.8400     4.1343    -0.0067
  939   18.760   3439.05     3.6769     0.1159     0.6250     0.1876     3.8896     2.9781   300.1600     3.5895     0.0886
  940   18.780   3440.06     3.8739     0.1119     0.9661     0.1878     4.2222     2.9195   300.4800     3.9217     0.1627
  941   18.800   3441.07     4.8603     0.1101     0.9100     0.1880     5.3021     2.4205   300.8000     5.0013     0.1747
  942   18.820   3442.12     6.5753     0.1197     0.2098     0.1882     6.7496     2.0014   301.1200     6.4485     0.0362
  943   18.840   3443.15     6.9589     0.1319     0.0097     0.1884     6.9796     1.8924   301.4400     6.6782    -0.0209
  944   18.860   3444.18     6.3134     0.1371     0.0058     0.1886     6.3058     2.0612   301.7600     6.0041    -0.0344
  945   18.880   3445.16     5.7270     0.1278     0.0962     0.1888     5.7597     2.1803   302.0800     5.4577    -0.0202
  946   18.900   3446.16     5.3434     0.1187     0.0938     0.1890     5.3836     2.1890   302.4000     5.0812    -0.0184
  947   18.920   3447.18     4.6817     0.1086     0.0582     0.1892     4.7084     2.2804   302.7200     4.4057    -0.0286
  948   18.940   3448.18     4.2226     0.0950     0.0453     0.1894     4.2427     2.2421   303.0400     3.9396    -0.0359
  949   18.960   3449.24     6.0201     0.0977     0.2256     0.1896     6.0735     1.7680   303.3600     5.7702    -0.0111
  950   18.980   3458.45     8.0200     0.1077     0.2793     0.1898     8.1586     1.4914   303.6800     7.8549     0.0167
  951   19.000   3476.16     7.4759     0.1107     0.1323     0.1900     7.5527     1.5321   304.0000     7.2487    -0.0026
  952   19.020   3488.66     6.8845     0.1157     0.1076     0.1902     6.9231     1.6704   304.3200     6.6187    -0.0148
  953   19.040   3489.62     6.7065     0.1444     0.1799     0.1904     6.7723     2.1612   304.6400     6.4676    -0.0053
  954   19.060   3490.63     6.8499     0.1588     0.2102     0.1906     6.9352     2.3210   304.9600     6.6302     0.0019
  955   19.080   3491.65     6.4744     0.1420     0.1624     0.1908     6.5587     2.1717   305.2800     6.2534     0.0015
  956   19.100   3492.67     5.9846     0.1340     0.0403     0.1910     6.0100     2.1509   305.6000     5.7044    -0.0230
  957   19.120   3493.65     5.9108     0.1154     0.0503     0.1912     5.9316     1.9508   305.9200     5.6257    -0.0252
  958   19.140   3494.69     6.5831     0.0993     0.0527     0.1914     6.6029     1.6290   306.2400     6.2966    -0.0229
  959   19.160   3495.74     8.3435     0.1079     0.1382     0.1916     8.3797     1.3540   306.5600     8.0732    -0.0131
  960   19.180   3496.76     8.9520     0.1225     0.0712     0.1918     9.0053     1.3777   306.8800     8.6984    -0.0075
  961   19.200   3497.74     8.4980     0.1397    -0.0092     0.1920     8.4999     1.5488   307.2000     8.1927    -0.0229
  962   19.220   3498.80     7.0233     0.1692     0.0234     0.1922     7.0274     2.2073   307.5200     6.7199    -0.0271
  963   19.240   3499.80     5.9042     0.1946     0.0861     0.1924     5.9277     3.0972   307.8400     5.6198    -0.0243
  964   19.260   3500.77     6.5029     0.2051     0.1688     0.1926     6.5630     3.4557   308.1600     6.2549    -0.0079
  965   19.280   3501.82     8.6015     0.1987     0.1980     0.1928     8.6798     2.5597   308.4800     8.3713    -0.0008
  966   19.300   3502.85     9.5682     0.1695     0.1971     0.1930     9.6527     1.8058   308.8000     9.3439     0.0009
  967   19.320   3503.90    10.5197     0.1621     0.1809     0.1932    10.5984     1.6370   309.1200    10.2893    -0.0005
  968   19.340   3504.94    13.9962     0.1608     0.1598     0.1934    14.0657     1.1746   309.4400    13.7562    -0.0020
  969   19.360   3506.01    21.3732     0.1599     0.0740     0.1936    21.4116     0.8317   309.7600    21.1018    -0.0047
  970   19.380   3507.06    31.3498     0.1797     0.3181     0.1938    31.4605     0.6189   310.0800    31.1504     0.0021
  971   19.400   3508.07    37.3928     0.1968     0.0081     0.1940    37.4423     0.5379   310.4000    37.1319    -0.0020
  972   19.420   3509.07    37.3894     0.2046    -0.0267     0.1942    37.3764     0.5377   310.7200    37.0657    -0.0061
  973   19.440   3510.00    34.2870     0.2040     0.0345     0.1944    34.2991     0.5735   311.0400    33.9881    -0.0049
  974   19.460   3510.94    30.8308     0.2388     0.0198     0.1946    30.8444     0.7476   311.3600    30.5330    -0.0053
  975   19.480   3511.93    28.5010     0.2788    -0.0102     0.1948    28.4969     0.9573   311.6800    28.1852    -0.0073
  976   19.500   3512.91    27.7781     0.3043    -0.0041     0.1950    27.7745     1.0884   312.0000    27.4625    -0.0074
  977   19.520   3513.87    27.2517     0.3068     0.0227     0.1952    27.2580     1.1165   312.3200    26.9457    -0.0067
  978   19.540   3514.81    25.3909     0.2693     0.0392     0.1954    25.4086     1.0255   312.6400    25.0960    -0.0061
  979   19.560   3515.74    22.2279     0.2502     0.0400     0.1956    22.2448     1.0754   312.9600    21.9318    -0.0071
  980   19.580   3516.70    19.7288     0.2294     0.0403     0.1958    19.7450     1.1200   313.2800    19.4317    -0.0081
  981   19.600   3517.68    18.0071     0.2029     0.0715     0.1960    18.0340     1.0977   313.6000    17.7205    -0.0074
  982   19.620   3518.61    16.9535     0.1894     0.1178     0.1962    16.9929     1.1036   313.9200    16.6790    -0.0061
  983   19.640   3519.59    16.0546     0.1846     0.1318     0.1964    16.1127     1.1388   314.2400    15.7985    -0.0037
  984   19.660   3520.52    15.1468     0.1883     0.1208     0.1966    15.1956     1.2302   314.5600    14.8810    -0.0054
  985   19.680   3521.52    13.8338     0.2121     0.0627     0.1968    13.8673     1.5126   314.8800    13.5524    -0.0087
  986   19.700   3522.50    12.8599     0.2193     0.0188     0.1970    12.8641     1.6932   315.2000    12.5489    -0.0149
  987   19.720   3523.50    12.7649     0.1949     0.0853     0.1972    12.7909     1.5312   315.5200    12.4754    -0.0109
  988   19.740   3524.53    13.3607     0.1682     0.1267     0.1974    13.4035     1.2717   315.8400    13.0877    -0.0073
  989   19.760   3525.51    13.8500     0.1436     0.0929     0.1976    13.9023     1.0362   316.1600    13.5861    -0.0054
  990   19.780   3526.51    13.5620     0.1227    -0.0473     0.1978    13.5825     0.8997   316.4800    13.2660    -0.0113
  991   19.800   3527.47    14.4420     0.1007    -0.1267     0.1980    14.3886     0.7077   316.8000    14.0718    -0.0231
  992   19.820   3528.45    15.2380     0.0982    -0.1119     0.1982    15.1862     0.6428   317.1200    14.8691    -0.0216
  993   19.840   3529.44    14.3838     0.1163    -0.1015     0.1984    14.3384     0.8060   317.4400    14.0210    -0.0219
  994   19.860   3530.40    13.0032     0.1335    -0.1098     0.1986    12.9632     1.0128   317.7600    12.6454    -0.0233
  995   19.880   3531.39    10.3990     0.1522    -0.1331     0.1988    10.3419     1.3057   318.0800    10.0238    -0.0334
  996   19.900   3532.42     9.2274     0.1465    -0.0952     0.1990     9.1790     1.5144   318.4000     8.8606    -0.0355
  997   19.920   3533.47     9.3913     0.1405    -0.0633     0.1992     9.3620     1.5436   318.7200     9.0433    -0.0297
  998   19.940   3534.47    10.2689     0.1379    -0.0177     0.1994    10.2586     1.3983   319.0400     9.9396    -0.0225
  999   19.960   3535.48    10.6124     0.1269    -0.0148     0.1996    10.6099     1.2071   319.3600    10.2906    -0.0200
 1000   19.980   3536.52    10.9885     0.1045    -0.0211     0.1998    10.9746     0.9508   319.6800    10.6549    -0.0219
 1001   20.000   3537.54    10.5375     0.0742     0.0035     0.2000    10.5423     0.6998   320.0000    10.2223    -0.0184
 1002   20.020   3538.55     9.3799     0.0715    -0.0419     0.2002     9.3681     0.7555   320.3200     9.0478    -0.0253
 1003   20.040   3539.55     7.9272     0.0826    -0.0580     0.2004     7.9004     1.0312   320.6400     7.5798    -0.0349
 1004   20.060   3540.56     6.7438     0.1005    -0.0694     0.2006     6.7170     1.4766   320.9600     6.3960    -0.0415
 1005   20.080   3541.59     5.1373     0.1162    -0.0824     0.2008     5.1026     2.0929   321.2800     4.7813    -0.0597
 1006   20.100   3542.58     3.7875     0.1091    -0.0766     0.2010     3.7554     2.8312   321.6000     3.4338    -0.0813
 1007   20.120   3543.59     2.9176     0.0939    -0.0685     0.2012     2.8866     3.1392   321.9200     2.5647    -0.1077
 1008   20.140   3544.58     2.3925     0.0878    -0.0102     0.2014     2.3773     3.3356   322.2400     2.0551    -0.1154
 1009   20.160   3545.59     2.0109     0.0946     0.0248     0.2016     2.0158     4.6786   322.5600     1.6932    -0.1124
 1010   20.180   3546.59     1.8767     0.0976     0.1152     0.2018     1.9087     5.1975   322.8800     1.5858    -0.0793
 1011   20.200   3547.64     2.4000     0.0843     0.2342     0.2020     2.4860     4.0733   323.2000     2.1628    -0.0001
 1012   20.220   3548.61     3.4979     0.0761     0.2144     0.2022     3.5997     2.5518   323.5200     3.2762     0.0126
 1013   20.240   3549.65     4.1626     0.0703     0.1078     0.2024     4.2148     1.7580   323.8400     3.8910    -0.0200
 1014   20.260   3550.68     4.8625     0.0654     0.2349     0.2026     4.9331     1.4008   324.1600     4.6090    -0.0080
 1015   20.280   3551.71     8.8866     0.0722     0.3703     0.2028     9.0503     0.8740   324.4800     8.7258     0.0211
 1016   20.300   3552.76    14.3698     0.0768     0.0853     0.2030    14.4295     0.5734   324.8000    14.1047    -0.0042
 1017   20.320   3553.80    16.6235     0.0768     0.0548     0.2032    16.6433     0.4753   325.1200    16.3181    -0.0096
 1018   20.340   3554.80    18.5295     0.0784     0.0916     0.2034    18.5636     0.4333   325.4400    18.2382    -0.0067
 1019   20.360   3555.77    18.9964     0.0934     0.1136     0.2036    19.0442     0.4922   325.7600    18.7185    -0.0048
 1020   20.380   3556.75    18.0561     0.0981     0.1374     0.2038    18.1085     0.5327   326.0800    17.7824    -0.0044
 1021   20.400   3557.71    17.6359     0.0910     0.1552     0.2040    17.6995     0.5150   326.4000    17.3731    -0.0030
 1022   20.420   3558.68    18.3035     0.0896     0.1408     0.2042    18.3633     0.4953   326.7200    18.0366    -0.0034
 1023   20.440   3559.62    18.4797     0.0963     0.1605     0.2044    18.5436     0.5206   327.0400    18.2166    -0.0029
 1024   20.460   3560.60    18.0074     0.1083     0.1494     0.2046    18.0745     0.5966   327.3600    17.7472    -0.0025
 1025   20.480   3561.54    17.3002     0.1022     0.1266     0.2048    17.3560     0.5876   327.6800    17.0283    -0.0042
 1026   20.500   3562.54    16.4241     0.1159     0.1293     0.2050    16.4778     0.7023   328.0000    16.1498    -0.0048
 1027   20.520   3563.53    15.5687     0.1460     0.1623     0.2052    15.6331     0.9325   328.3200    15.3047    -0.0034
 1028   20.540   3564.53    14.9936     0.1498     0.1691     0.2054    15.0613     0.9961   328.6400    14.7327    -0.0030
 1029   20.560   3565.52    14.5645     0.1484     0.1969     0.2056    14.6444     1.0182   328.9600    14.3154    -0.0011
 1030   20.580   3566.50    14.4475     0.1511     0.1981     0.2058    14.5277     1.0423   329.2800    14.1985    -0.0010
 1031   20.600   3567.51    14.4002     0.1408     0.1897     0.2060    14.4871     0.9764   329.6000    14.1575     0.0001
 1032   20.620   3568.53    13.9235     0.1251     0.1899     0.2062    14.0020     0.8948   329.9200    13.6721    -0.0014
 1033   20.640   3569.55    13.1790     0.1022     0.1862     0.2064    13.2568     0.7706   330.2400    12.9266    -0.0016
 1034   20.660   3570.56    12.9182     0.1056     0.1351     0.2066    12.9814     0.8182   330.5600    12.6509    -0.0044
 1035   20.680   3571.54    13.8066     0.1111     0.1272     0.2068    13.8595     0.8113   330.8800    13.5286    -0.0060
 1036   20.700   3572.57    14.4815     0.0927     0.1295     0.2070    14.5372     0.6379   331.2000    14.2060    -0.0052
 1037   20.720   3573.58    13.7390     0.0997     0.0972     0.2072    13.7923     0.7070   331.5200    13.4607    -0.0060
 1038   20.740   3574.58    11.7803     0.1029    -0.0199     0.2074    11.7883     0.8593   331.8400    11.4564    -0.0167
 1039   20.760   3575.57    10.0296     0.1086    -0.0338     0.2076    10.0147     1.0325   332.1600     9.6825    -0.0251
 1040   20.780   3576.59     9.3742     0.1290     0.0142     0.2078     9.3722     1.3526   332.4800     9.0397    -0.0235
 1041   20.800   3577.57     8.7687     0.1620     0.0415     0.2080     8.7841     1.7787   332.8000     8.4513    -0.0203
 1042   20.820   3578.58     7.5137     0.1703     0.0252     0.2082     7.5273     2.0886   333.1200     7.1942    -0.0246
 1043   20.840   3579.61     5.7248     0.1546     0.0276     0.2084     5.7359     2.4707   333.4400     5.4025    -0.0339
 1044   20.860   3580.61     4.4884     0.1230     0.0581     0.2086     4.5069     2.4781   333.7600     4.1731    -0.0394
 1045   20.880   3581.62     4.1155     0.1011     0.1332     0.2088     4.1543     2.4379   334.0800     3.8202    -0.0305
 1046   20.900   3582.67     4.8517     0.0820     0.2268     0.2090     4.9434     1.9275   334.4000     4.6090     0.0017
 1047   20.920   3583.71     7.1651     0.0700     0.2020     0.2092     7.2557     1.1330   334.7200     6.9209     0.0010
 1048   20.940   3584.72     8.9747     0.0654     0.1609     0.2094     9.0496     0.7795   335.0400     8.7146    -0.0035
 1049   20.960   3585.79     9.5211     0.0598     0.1229     0.2096     9.5784     0.6620   335.3600     9.2430    -0.0079
 1050   20.980   3586.79     9.2558     0.0550     0.0670     0.2098     9.2978     0.6203   335.6800     8.9621    -0.0122
 1051   21.000   3587.82     8.6522     0.0502     0.0627     0.2100     8.6782     0.5787   336.0000     8.3422    -0.0178
 1052   21.020   3588.77     8.1331     0.0509     0.0929     0.2102     8.1676     0.6234   336.3200     7.8313    -0.0163
 1053   21.040   3589.82     7.6470     0.0639     0.1225     0.2104     7.6963     0.8289   336.6400     7.3597    -0.0126
 1054   21.060   3591.50     7.3457     0.0803     0.1408     0.2106     7.4022     1.0849   336.9600     7.0652    -0.0107
 1055   21.080   3602.49     6.6369     0.1037     0.1594     0.2108     6.7011     1.4028   337.2800     6.3639    -0.0087
 1056   21.100   3613.49     5.9281     0.1114     0.1779     0.2110     6.0001     1.5069   337.6000     5.6625    -0.0067
 1057   21.120   3619.33     5.1522     0.1021     0.1948     0.2112     5.2302     1.9650   337.9200     4.8923    -0.0052
 1058   21.140   3620.28     3.9197     0.0962     0.2068     0.2114     4.0090     2.0798   338.2400     3.6707     0.0003
 1059   21.160   3621.34     2.9558     0.0830     0.2201     0.2116     3.0452     2.5407   338.5600     2.7066     0.0005
 1060   21.180   3622.34     3.4159     0.0840     0.2319     0.2118     3.5104     2.8312   338.8800     3.1715     0.0042
 1061   21.200   3623.36     4.8984     0.0989     0.2537     0.2120     5.0036     2.0562   339.2000     4.6644     0.0082
 1062   21.220   3624.35     6.0368     0.1216     0.1713     0.2122     6.1306     2.2182   339.5200     5.7911     0.0020
 1063   21.240   3625.42     7.8245     0.1037     0.1290     0.2124     7.8894     1.5665   339.8400     7.5495    -0.0076
 1064   21.260   3626.38     8.8936     0.0639     0.1909     0.2126     8.9585     0.7328   340.1600     8.6183    -0.0067
 1065   21.280   3627.42     7.2367     0.0723     0.2045     0.2128     7.3212     0.9244   340.4800     6.9807    -0.0017
 1066   21.300   3628.44     5.1601     0.0900     0.1486     0.2130     5.2318     1.5042   340.8000     4.8910    -0.0088
 1067   21.320   3629.45     5.1953     0.1060     0.1767     0.2132     5.2614     2.2142   341.1200     4.9203    -0.0118
 1068   21.340   3630.49     9.2268     0.1239     0.2034     0.2134     9.3066     1.7222   341.4400     8.9652    -0.0027
 1069   21.360   3631.50    12.4973     0.1449     0.2828     0.2136    12.6011     1.2859   341.7600    12.2594     0.0026
 1070   21.380   3632.56    12.4698     0.1660     0.1288     0.2138    12.5408     1.2852   342.0800    12.1987    -0.0038
 1071   21.400   3633.57    11.0371     0.1678     0.1437     0.2140    11.0916     1.4442   342.4000    10.7492    -0.0078
 1072   21.420   3634.63    10.3717     0.1569     0.1896     0.2142    10.4477     1.4968   342.7200    10.1050    -0.0033
 1073   21.440   3635.65    11.1350     0.1471     0.2185     0.2144    11.2199     1.3300   343.0400    10.8768    -0.0012
 1074   21.460   3636.66    11.6589     0.1311     0.2324     0.2146    11.7591     1.1311   343.3600    11.4157     0.0021
 1075   21.480   3637.69    12.2391     0.1197     0.1977     0.2148    12.3263     0.9853   343.6800    11.9826    -0.0006
 1076   21.500   3638.74    13.7049     0.1027     0.1470     0.2150    13.7880     0.7746   344.0000    13.4440    -0.0013
 1077   21.520   3639.73    16.0335     0.1047     0.0300     0.2152    16.0590     0.6710   344.3200    15.7147    -0.0098
 1078   21.540   3640.68    16.8801     0.1225     0.0008     0.2154    16.8843     0.7269   344.6400    16.5397    -0.0124
 1079   21.560   3641.66    15.9430     0.1524     0.0142     0.2156    15.9470     0.9522   344.9600    15.6021    -0.0132
 1080   21.580   3642.65    14.0597     0.2065     0.0006     0.2158    14.0579     1.4614   345.2800    13.7127    -0.0161
 1081   21.600   3643.61    10.8195     0.2240     0.0385     0.2160    10.8286     1.7504   345.6000    10.4830    -0.0187
 1082   21.620   3644.62     7.9342     0.2182     0.0838     0.2162     7.9621     2.4588   345.9200     7.6162    -0.0197
 1083   21.640   3645.65     7.4203     0.2049     0.1605     0.2164     7.4721     2.8230   346.2400     7.1259    -0.0131
 1084   21.660   3646.66     8.5591     0.1833     0.2370     0.2166     8.6563     2.1967   346.5600     8.3097     0.0017
 1085   21.680   3647.72    10.4819     0.1736     0.2050     0.2168    10.5757     1.7161   346.8800    10.2288     0.0007
 1086   21.700   3648.77    12.6088     0.1188     0.2338     0.2170    12.6972     0.9859   347.2000    12.3500    -0.0006
 1087   21.720   3649.75    14.6899     0.1029     0.1067     0.2172    14.7609     0.7272   347.5200    14.4134    -0.0033
 1088   21.740   3650.74    15.6488     0.0859    -0.0340     0.2174    15.6562     0.5472   347.8400    15.3083    -0.0131
 1089   21.760   3651.68    13.9254     0.0854    -0.1066     0.2176    13.8860     0.6020   348.1600    13.5378    -0.0230
 1090   21.780   3652.67    12.5023     0.1061    -0.1261     0.2178    12.4490     0.8406   348.4800    12.1005    -0.0285
 1091   21.800   3653.62    11.1682     0.1421    -0.0755     0.2180    11.1276     1.2020   348.8000    10.7788    -0.0292
 1092   21.820   3654.62     9.6887     0.1768    -0.0192     0.2182     9.6717     1.7615   349.1200     9.3226    -0.0277
 1093   21.840   3655.65     8.7073     0.1689     0.0708     0.2184     8.7164     1.9291   349.4400     8.3670    -0.0235
 1094   21.860   3656.67     7.1765     0.1461     0.2077     0.2186     7.2533     1.9271   349.7600     6.9035    -0.0050
 1095   21.880   3657.71     6.4342     0.1462     0.1664     0.2188     6.5098     2.1928   350.0800     6.1597    -0.0064
 1096   21.900   3658.72     6.2614     0.1383     0.2170     0.2190     6.3420     2.1617   350.4000     5.9916    -0.0045
 1097   21.920   3659.73     5.9969     0.1426     0.2157     0.2192     6.0955     2.3065   350.7200     5.7448     0.0027
 1098   21.940   3660.73     4.7972     0.1266     0.2295     0.2194     4.8946     2.3784   351.0400     4.5435     0.0029
 1099   21.960   3661.72     3.9206     0.0995     0.2226     0.2196     4.0079     2.4042   351.3600     3.6565    -0.0033
 1100   21.980   3662.78     3.4819     0.0868     0.2567     0.2198     3.5828     2.4007   351.6800     3.2311     0.0063
 1101   22.000   3663.81     3.5581     0.0780     0.3228     0.2200     3.6847     2.2302   352.0000     3.3327     0.0244
 1102   22.020   3664.86     4.6904     0.0757     0.5026     0.2202     4.8586     1.8825   352.3200     4.5063     0.0394
 1103   22.040   3665.91     6.7500     0.0709     0.2351     0.2204     6.9257     1.2019   352.6400     6.5731     0.0308
 1104   22.060   3666.95     8.3430     0.0786     0.1484     0.2206     8.4126     1.0278   352.9600     8.0597    -0.0068
 1105   22.080   3667.94     8.8496     0.0900     0.0825     0.2208     8.8804     1.0212   353.2800     8.5271    -0.0173
 1106   22.100   3668.98     8.2727     0.0780     0.0545     0.2210     8.2992     0.9118   353.6000     7.9456    -0.0199
 1107   22.120   3670.05     8.1075     0.0937     0.0555     0.2212     8.1282     1.1691   353.9200     7.7743    -0.0221
 1108   22.140   3671.06     8.6050     0.1247     0.0472     0.2214     8.6307     1.4868   354.2400     8.2764    -0.0193
 1109   22.160   3672.10     9.2666     0.1471     0.0804     0.2216     9.2931     1.6412   354.5600     8.9386    -0.0177
 1110   22.180   3673.15     9.5432     0.1488     0.0671     0.2218     9.5746     1.5637   354.8800     9.2197    -0.0159
 1111   22.200   3674.15    10.0057     0.1349     0.1195     0.2220    10.0464     1.3651   355.2000     9.6912    -0.0129
 1112   22.220   3675.18    10.5483     0.1288     0.1032     0.2222    10.6000     1.2448   355.5200    10.2445    -0.0097
 1113   22.240   3676.23    10.6107     0.1332     0.0909     0.2224    10.6472     1.2531   355.8400    10.2914    -0.0132
 1114   22.260   3677.23     9.3320     0.1197     0.0890     0.2226     9.3631     1.1922   356.1600     9.0070    -0.0165
 1115   22.280   3678.26     8.0969     0.1126     0.0950     0.2228     8.1372     1.3209   356.4800     7.7807    -0.0163
 1116   22.300   3679.27     7.3752     0.0952     0.1313     0.2230     7.4214     1.2454   356.8000     7.0646    -0.0160
 1117   22.320   3680.27     7.2006     0.0850     0.2210     0.2232     7.2856     1.1772   357.1200     6.9285    -0.0030
 1118   22.340   3681.31     8.0416     0.0760     0.2082     0.2234     8.1336     0.9612   357.4400     7.7761    -0.0006
 1119   22.360   3682.38    10.8510     0.0613     0.1353     0.2236    10.8976     0.5947   357.7600    10.5398    -0.0108
 1120   22.380   3683.42    13.6293     0.0493     0.0827     0.2238    13.6902     0.3759   358.0800    13.3321    -0.0058
 1121   22.400   3684.42    15.7522     0.0374    -0.0110     0.2240    15.7611     0.2415   358.4000    15.4027    -0.0131
 1122   22.420   3685.41    15.9262     0.0327    -0.0073     0.2242    15.9215     0.2046   358.7200    15.5627    -0.0151
 1123   22.440   3686.35    14.9638     0.0483     0.0161     0.2244    14.9647     0.3205   359.0400    14.6057    -0.0152
 1124   22.460   3687.34    12.5514     0.0651     0.0520     0.2246    12.5708     0.5128   359.3600    12.2114    -0.0146
 1125   22.480   3688.34    10.1982     0.0967     0.0810     0.2248    10.2277     0.8692   359.6800     9.8680    -0.0157
 1126   22.500   3689.31     8.2342     0.1281     0.1034     0.2250     8.2737     1.3951   360.0000     7.9137    -0.0165
 1127   22.520   3690.35     6.3933     0.1349     0.1214     0.2252     6.4395     1.8466   360.3200     6.0792    -0.0189
 1128   22.540   3691.40     5.0369     0.1227     0.1618     0.2254     5.1000     2.2349   360.6400     4.7394    -0.0158
 1129   22.560   3692.41     4.6656     0.1237     0.2456     0.2256     4.7505     2.6511   360.9600     4.3895    -0.0054
 1130   22.580   3693.41     4.6937     0.1238     0.2692     0.2258     4.8074     2.6490   361.2800     4.4461     0.0101
 1131   22.600   3694.41     4.5141     0.1272     0.2620     0.2260     4.6260     2.8083   361.6000     4.2644     0.0095
 1132   22.620   3695.48     4.0983     0.1176     0.3441     0.2262     4.2311     2.8556   361.9200     3.8691     0.0233
 1133   22.640   3696.49     3.5764     0.1083     0.2904     0.2264     3.7091     3.0098   362.2400     3.3468     0.0266
 1134   22.660   3697.47     3.4267     0.0913     0.2868     0.2266     3.5449     2.6152   362.5600     3.1823     0.0172
 1135   22.680   3698.50     3.0660     0.0831     0.3753     0.2268     3.2149     2.6889   362.8800     2.8521     0.0450
 1136   22.700   3699.49     2.6485     0.0802     0.3904     0.2270     2.8135     2.9569   363.2000     2.4503     0.0677
 1137   22.720   3700.51     2.0080     0.0661     0.4578     0.2272     2.1951     3.2397   363.5200     1.8316     0.1202
 1138   22.740   3701.52     1.5676     0.0508     0.7169     0.2274     1.8238     3.1938   363.8400     1.4599     0.2681
 1139   22.760   3702.54     1.3580     0.0426     0.8267     0.2276     1.6915     3.1459   364.1600     1.3274     0.4265
 1140   22.780   3703.54     1.4084     0.0396     0.9047     0.2278     1.7767     2.8759   364.4800     1.4122     0.4595
 1141   22.800   3704.54     1.3990     0.0395     0.9777     0.2280     1.8022     2.8548   364.8000     1.4374     0.5092
 1142   22.820   3705.57     1.3949     0.0394     1.0208     0.2282     1.8182     2.8338   365.1200     1.4531     0.5367
 1143   22.840   3706.57     1.3867     0.0399     1.0575     0.2284     1.8259     2.8760   365.4400     1.4605     0.5596
 1144   22.860   3707.57     1.3880     0.0393     1.0872     0.2286     1.8403     2.8360   365.7600     1.4746     0.5754
 1145   22.880   3711.79     1.3950     0.0383     1.1098     0.2288     1.8587     2.7299   366.0800     1.4927     0.5867
 1146   22.900   3724.48     1.3622     0.0382     1.1263     0.2290     1.8328     2.7202   366.4000     1.4664     0.6089
 1147   22.920   3737.18     1.3294     0.0379     1.1428     0.2292     1.8070     2.7027   366.7200     1.4402     0.6311
 1148   22.940   3746.58     1.2987     0.0371     1.1512     0.2294     1.7817     2.8435   367.0400     1.4147     0.6508
 1149   22.960   3747.61     1.2872     0.0368     1.1680     0.2296     1.7739     2.8567   367.3600     1.4066     0.6606
 1150   22.980   3748.64     1.2833     0.0363     1.1826     0.2298     1.7783     2.8334   367.6800     1.4106     0.6727
 1151   23.000   3749.61     1.2782     0.0359     1.1938     0.2300     1.7791     2.8056   368.0000     1.4111     0.6821
 1152   23.020   3750.63     1.2632     0.0351     1.1961     0.2302     1.7654     2.7756   368.3200     1.3971     0.6911
 1153   23.040   3751.65     1.2639     0.0350     1.1993     0.2304     1.7668     2.7733   368.6400     1.3981     0.6916
 1154   23.060   3752.67     1.3011     0.0354     1.2068     0.2306     1.8074     2.7249   368.9600     1.4384     0.6777
 1155   23.080   3753.69     1.2954     0.0358     1.2125     0.2308     1.8035     2.7607   369.2800     1.4342     0.6825
 1156   23.100   3754.65     1.2889     0.0351     1.2087     0.2310     1.7984     2.7260   369.6000     1.4288     0.6874
 1157   23.120   3755.68     1.3003     0.0352     1.2012     0.2312     1.8038     2.7056   369.9200     1.4339     0.6748
 1158   23.140   3756.64     1.3074     0.0354     1.2096     0.2314     1.8144     2.7108   370.2400     1.4441     0.6756
 1159   23.160   3757.71     1.3116     0.0358     1.2160     0.2316     1.8225     2.7285   370.5600     1.4519     0.6782
 1160   23.180   3758.68     1.3078     0.0351     1.2244     0.2318     1.8211     2.6832   370.8800     1.4502     0.6828
 1161   23.200   3759.66     1.3099     0.0349     1.2251     0.2320     1.8241     2.6633   371.2000     1.4529     0.6829
 1162   23.220   3760.70     1.3274     0.0343     1.2309     0.2322     1.8443     2.5879   371.5200     1.4728     0.6781
 1163   23.240   3761.69     1.3206     0.0348     1.2325     0.2324     1.8367     2.6343   371.8400     1.4648     0.6801
 1164   23.260   3762.73     1.3157     0.0349     1.2354     0.2326     1.8348     2.6512   372.1600     1.4626     0.6861
 1165   23.280   3763.69     1.3145     0.0348     1.2265     0.2328     1.8296     2.6523   372.4800     1.4571     0.6820
 1166   23.300   3764.72     1.3262     0.0350     1.2194     0.2330     1.8397     2.6397   372.8000     1.4669     0.6747
 1167   23.320   3765.72     1.3446     0.0349     1.2206     0.2332     1.8551     2.6164   373.1200     1.4820     0.6629
 1168   23.340   3766.73     1.3602     0.0350     1.2304     0.2334     1.8771     2.5757   373.4400     1.5037     0.6633
 1169   23.360   3767.76     1.3674     0.0348     1.2274     0.2336     1.8815     2.5447   373.7600     1.5078     0.6568
 1170   23.380   3768.73     1.3594     0.0352     1.2341     0.2338     1.8779     2.5894   374.0800     1.5039     0.6655
 1171   23.400   3769.76     1.3565     0.0365     1.2338     0.2340     1.8734     2.6894   374.4000     1.4990     0.6649
 1172   23.420   3770.78     1.3305     0.0365     1.2373     0.2342     1.8503     2.7339   374.7200     1.4756     0.6800
 1173   23.440   3771.78     1.3308     0.0365     1.2361     0.2344     1.8493     2.7456   375.0400     1.4742     0.6784
 1174   23.460   3772.74     1.3353     0.0359     1.2310     0.2346     1.8532     2.7033   375.3600     1.4778     0.6757
 1175   23.480   3773.77     1.3449     0.0349     1.2311     0.2348     1.8618     2.5936   375.6800     1.4862     0.6702
 1176   23.500   3774.80     1.3229     0.0341     1.2457     0.2350     1.8460     2.5696   376.0000     1.4700     0.6874
 1177   23.520   3775.82     1.3269     0.0368     1.2438     0.2352     1.8500     2.7722   376.3200     1.4737     0.6857
 1178   23.540   3776.83     1.3288     0.0367     1.2504     0.2354     1.8524     2.7586   376.6400     1.4757     0.6852
 1179   23.560   3777.86     1.3174     0.0332     1.2586     0.2356     1.8468     2.5222   376.9600     1.4698     0.6973
 1180   23.580   3778.86     1.3221     0.0352     1.2544     0.2358     1.8464     2.6678   377.2800     1.4691     0.6893
 1181   23.600   3779.86     1.3600     0.0352     1.2267     0.2360     1.8871     2.6137   377.6000     1.5095     0.6755
 1182   23.620   3780.87     1.6201     0.0352     1.1202     0.2362     2.0544     2.1642   377.9200     1.6765     0.4760
 1183   23.640   3781.87     1.5433     0.0357     1.1254     0.2364     1.9948     2.3104   378.2400     1.6166     0.5187
 1184   23.660   3782.87     1.4547     0.0359     0.9180     0.2366     1.8815     2.4549   378.5600     1.5029     0.5182
 1185   23.680   3783.91     1.3367     0.0363     1.0335     0.2368     1.7590     2.7130   378.8800     1.3802     0.5570
 1186   23.700   3784.94     1.3403     0.0361     1.1061     0.2370     1.7969     2.6904   379.2000     1.4177     0.5996
 1187   23.720   3785.95     1.3630     0.0360     1.1452     0.2372     1.8390     2.6462   379.5200     1.4595     0.6140
 1188   23.740   3786.95     1.3890     0.0358     1.1745     0.2374     1.8773     2.5767   379.8400     1.4975     0.6178
 1189   23.760   3787.92     1.3700     0.0355     1.1903     0.2376     1.8693     2.5915   380.1600     1.4891     0.6388
 1190   23.780   3788.92     1.3876     0.0363     1.2013     0.2378     1.8887     2.6129   380.4800     1.5082     0.6334
 1191   23.800   3789.92     1.3738     0.0377     1.2147     0.2380     1.8832     2.7285   380.8000     1.5024     0.6489
 1192   23.820   3790.96     1.3804     0.0378     1.2283     0.2382     1.8958     2.7426   381.1200     1.5147     0.6529
 1193   23.840   3791.95     1.3813     0.0380     1.2334     0.2384     1.8986     2.7473   381.4400     1.5172     0.6547
 1194   23.860   3792.97     1.3846     0.0376     1.2426     0.2386     1.9052     2.7233   381.7600     1.5234     0.6570
 1195   23.880   3794.01     1.4154     0.0382     1.2601     0.2388     1.9421     2.6946   382.0800     1.5601     0.6509
 1196   23.900   3795.00     1.3921     0.0387     1.2770     0.2390     1.9268     2.7806   382.4000     1.5444     0.6696
 1197   23.920   3796.01     1.3714     0.0396     1.2664     0.2392     1.9058     2.8703   382.7200     1.5231     0.6783
 1198   23.940   3796.99     1.3655     0.0387     1.2704     0.2394     1.8974     2.8402   383.0400     1.5143     0.6782
 1199   23.960   3798.01     1.3766     0.0373     1.2837     0.2396     1.9137     2.7193   383.3600     1.5303     0.6791
 1200   23.980   3799.03     1.3967     0.0371     1.2906     0.2398     1.9382     2.6734   383.6800     1.5545     0.6752
 1201   24.000   3799.98     1.4075     0.0369     1.2907     0.2400     1.9498     2.6219   384.0000     1.5658     0.6714
 1202   24.020   3800.92     1.4015     0.0374     1.3127     0.2402     1.9481     2.6669   384.3200     1.5638     0.6787
 1203   24.040   3801.92     1.3838     0.0373     1.3189     0.2404     1.9376     2.6888   384.6400     1.5530     0.6943
 1204   24.060   3802.98     1.3642     0.0380     1.3143     0.2406     1.9172     2.7855   384.9600     1.5322     0.7023
 1205   24.080   3803.97     1.3641     0.0375     1.3084     0.2408     1.9145     2.7476   385.2800     1.5292     0.6995
 1206   24.100   3804.93     1.3643     0.0372     1.3030     0.2410     1.9119     2.7302   385.6000     1.5263     0.6964
 1207   24.120   3805.95     1.3703     0.0377     1.3093     0.2412     1.9183     2.7555   385.9200     1.5324     0.6940
 1208   24.140   3806.98     1.3705     0.0374     1.3123     0.2414     1.9223     2.7277   386.2400     1.5361     0.6982
 1209   24.160   3807.99     1.3488     0.0361     1.3313     0.2416     1.9061     2.6762   386.5600     1.5196     0.7143
 1210   24.180   3808.98     1.3557     0.0356     1.3254     0.2418     1.9135     2.6270   386.8800     1.5266     0.7115
 1211   24.200   3809.98     1.3591     0.0352     1.3229     0.2420     1.9145     2.5890   387.2000     1.5273     0.7075
 1212   24.220   3810.98     1.3556     0.0351     1.3128     0.2422     1.9075     2.5925   387.5200     1.5200     0.7051
 1213   24.240   3812.02     1.3487     0.0348     1.3147     0.2424     1.9008     2.5787   387.8400     1.5130     0.7086
 1214   24.260   3813.02     1.3658     0.0344     1.3085     0.2426     1.9171     2.5206   388.1600     1.5290     0.6998
 1215   24.280   3814.03     1.3696     0.0341     1.3004     0.2428     1.9162     2.4858   388.4800     1.5277     0.6929
 1216   24.300   3815.06     1.3622     0.0341     1.2939     0.2430     1.9077     2.4947   388.8000     1.5189     0.6952
 1217   24.320   3816.06     1.3370     0.0329     1.2826     0.2432     1.8764     2.4549   389.1200     1.4873     0.7001
 1218   24.340   3817.05     1.3066     0.0316     1.2744     0.2434     1.8448     2.4155   389.4400     1.4554     0.7132
 1219   24.360   3818.05     1.2990     0.0299     1.2621     0.2436     1.8303     2.3008   389.7600     1.4406     0.7090
 1220   24.380   3819.09     1.2860     0.0276     1.2570     0.2438     1.8131     2.1441   390.0800     1.4230     0.7106
 1221   24.400   3820.09     1.2540     0.0252     1.2562     0.2440     1.7817     1.9917   390.4000     1.3913     0.7277
 1222   24.420   3821.08     1.2587     0.0237     1.2285     0.2442     1.7788     1.9032   390.7200     1.3881     0.7163
 1223   24.440   3822.12     1.2928     0.0242     1.2008     0.2444     1.7970     1.8852   391.0400     1.4060     0.6800
 1224   24.460   3823.12     1.3096     0.0265     1.1851     0.2446     1.8134     2.0258   391.3600     1.4220     0.6716
 1225   24.480   3824.15     1.4333     0.0278     1.1566     0.2448     1.9199     2.0233   391.6800     1.5282     0.5980
 1226   24.500   3825.15     1.5113     0.0290     1.0807     0.2450     1.9646     1.9978   392.0000     1.5726     0.5306
 1227   24.520   3826.15     1.6947     0.0277     1.0374     0.2452     2.1396     1.6404   392.3200     1.7472     0.4659
 1228   24.540   3827.14     1.7654     0.0296     0.9689     0.2454     2.1794     1.7207   392.6400     1.7868     0.4145
 1229   24.560   3828.19     1.6755     0.0314     0.9682     0.2456     2.0920     1.8186   392.9600     1.6991     0.4392
 1230   24.580   3829.19     1.6099     0.0313     1.0201     0.2458     2.0273     1.8510   393.2800     1.6340     0.4578
 1231   24.600   3830.25     1.5293     0.0313     1.0315     0.2460     1.9648     2.0482   393.6000     1.5712     0.5034
 1232   24.620   3831.23     1.5480     0.0317     0.9975     0.2462     1.9681     2.0494   393.9200     1.5742     0.4791
 1233   24.640   3832.24     1.4707     0.0305     1.0608     0.2464     1.9084     2.0663   394.2400     1.5141     0.5256
 1234   24.660   3833.24     1.4911     0.0283     1.0863     0.2466     1.9404     1.8984   394.5600     1.5458     0.5325
 1235   24.680   3834.28     1.5672     0.0306     1.0398     0.2468     2.0135     1.9558   394.8800     1.6186     0.5042
 1236   24.700   3835.28     1.5950     0.0322     1.0421     0.2470     2.0329     2.0107   395.2000     1.6377     0.4858
 1237   24.720   3836.26     1.6048     0.0316     1.0699     0.2472     2.0515     1.9891   395.5200     1.6560     0.4934
 1238   24.740   3837.34     2.0923     0.0315     1.0355     0.2474     2.5392     1.5593   395.8400     2.1434     0.3835
 1239   24.760   3838.36     2.7719     0.0310     0.8462     0.2476     3.1531     1.1576   396.1600     2.7569     0.2402
 1240   24.780   3839.34     3.0165     0.0319     0.6359     0.2478     3.2991     1.1884   396.4800     2.9026     0.1464
 1241   24.800   3840.33     2.8547     0.0327     0.6931     0.2480     3.1244     1.2192   396.8000     2.7276     0.1452
 1242   24.820   3841.32     2.4162     0.0334     0.7745     0.2482     2.7339     1.2897   397.1200     2.3368     0.2178
 1243   24.840   3842.35     2.1936     0.0341     0.8506     0.2484     2.5405     1.4475   397.4400     2.1430     0.2696
 1244   24.860   3843.37     2.1248     0.0352     0.8898     0.2486     2.4947     1.5823   397.7600     2.0970     0.3015
 1245   24.880   3845.27     1.9947     0.0363     0.9273     0.2488     2.3788     1.7172   398.0800     1.9807     0.3408
 1246   24.900   3847.51     1.8479     0.0418     0.9647     0.2490     2.2477     1.9870   398.4000     1.8493     0.3866
 1247   24.920   3849.76     1.7011     0.0373     1.0075     0.2492     2.1166     1.7752   398.7200     1.7179     0.4324
 1248   24.940   3853.96     1.6593     0.0324     1.0832     0.2494     2.1025     1.9590   399.0400     1.7035     0.4723
 1249   24.960   3865.42     1.6914     0.0277     1.1644     0.2496     2.1687     1.6799   399.3600     1.7693     0.4993
 1250   24.980   3876.89     1.7234     0.0270     1.2457     0.2498     2.2348     1.6350   399.6800     1.8351     0.5263
 1251   25.000   3883.15     2.1505     0.0260     1.2592     0.2500     2.6986     1.4933   400.0000     2.2986     0.4591
 1252   25.020   3884.20     4.0445     0.0359     0.8339     0.2502     4.4680     1.1563   400.3200     4.0677     0.1877
 1253   25.040   3885.23     5.5314     0.0418     0.5667     0.2504     5.7959     0.8560   400.6400     5.3952     0.0703
 1254   25.060   3886.23     5.3574     0.0332     0.4126     0.2506     5.5458     0.6155   400.9600     5.1449     0.0384
 1255   25.080   3887.28     4.4453     0.0332     0.4619     0.2508     4.6212     0.7350   401.2800     4.2200     0.0403
 1256   25.100   3888.27     3.5679     0.0360     0.6200     0.2510     3.7985     0.9973   401.6000     3.3969     0.0885
 1257   25.120   3889.27     2.7255     0.0353     0.8155     0.2512     3.0424     1.2770   401.9200     2.6405     0.1921
 1258   25.140   3890.27     2.0965     0.0339     0.8727     0.2514     2.4523     1.6001   402.2400     2.0501     0.2916
 1259   25.160   3891.27     1.8614     0.0348     1.0304     0.2516     2.2764     1.8242   402.5600     1.8739     0.3930
 1260   25.180   3892.28     1.8877     0.0322     1.1247     0.2518     2.3504     1.7306   402.8800     1.9475     0.4363
 1261   25.200   3893.28     1.9185     0.0291     1.1942     0.2520     2.4043     1.5210   403.2000     2.0011     0.4521
 1262   25.220   3894.30     1.9512     0.0276     1.1957     0.2522     2.4561     1.4155   403.5200     2.0526     0.4628
 1263   25.240   3895.33     1.8990     0.0292     1.1666     0.2524     2.3929     1.5329   403.8400     1.9891     0.4644
 1264   25.260   3896.39     1.8275     0.0342     1.1873     0.2526     2.3176     1.8434   404.1600     1.9134     0.4778
 1265   25.280   3897.37     1.8931     0.0413     1.1705     0.2528     2.3919     2.2106   404.4800     1.9874     0.4707
 1266   25.300   3898.34     2.2119     0.0421     1.0923     0.2530     2.6847     2.0919   404.8000     2.2799     0.3844
 1267   25.320   3899.39     2.8488     0.0400     0.9966     0.2532     3.2831     1.5956   405.1200     2.8780     0.2728
 1268   25.340   3900.39     3.6921     0.0410     0.8563     0.2534     4.0728     1.2681   405.4400     3.6674     0.1791
 1269   25.360   3901.43     4.3671     0.0458     0.6507     0.2536     4.6737     1.0991   405.7600     4.2680     0.1120
 1270   25.380   3902.43     4.4939     0.0510     0.4843     0.2538     4.7128     1.1448   406.0800     4.3067     0.0620
 1271   25.400   3903.45     4.0679     0.0565     0.4916     0.2540     4.2703     1.3531   406.4000     3.8639     0.0591
 1272   25.420   3904.46     3.5805     0.0628     0.5138     0.2542     3.7928     1.7065   406.7200     3.3861     0.0744
 1273   25.440   3905.50     3.1505     0.0676     0.5583     0.2544     3.3764     2.0567   407.0400     2.9693     0.0956
 1274   25.460   3906.51     2.8959     0.0668     0.6026     0.2546     3.1434     2.2289   407.3600     2.7360     0.1224
 1275   25.480   3907.52     2.7737     0.0643     0.6545     0.2548     3.0431     2.2979   407.6800     2.6354     0.1467
 1276   25.500   3908.52     2.8976     0.0543     0.6643     0.2550     3.1784     1.9363   408.0000     2.7704     0.1493
 1277   25.520   3909.52     3.3086     0.0499     0.6319     0.2552     3.5786     1.5938   408.3200     3.1703     0.1224
 1278   25.540   3910.57     3.9058     0.0481     0.5828     0.2554     4.1597     1.3364   408.6400     3.7511     0.0932
 1279   25.560   3911.61     4.6218     0.0502     0.4932     0.2556     4.8444     1.1671   408.9600     4.4354     0.0619
 1280   25.580   3912.61     5.1878     0.0435     0.4100     0.2558     5.3787     0.8768   409.2800     4.9695     0.0401
 1281   25.600   3913.66     5.6848     0.0338     0.3833     0.2560     5.8497     0.6179   409.6000     5.4401     0.0251
 1282   25.620   3914.75     6.4678     0.0264     0.3500     0.2562     6.6224     0.4333   409.9200     6.2124     0.0180
 1283   25.640   3915.75     7.1660     0.0256     0.3501     0.2564     7.3115     0.3729   410.2400     6.9012     0.0130
 1284   25.660   3916.75     7.8409     0.0319     0.2787     0.2566     7.9756     0.4198   410.5600     7.5651     0.0085
 1285   25.680   3917.75     8.3480     0.0379     0.2053     0.2568     8.4351     0.4627   410.8800     8.0242    -0.0062
 1286   25.700   3918.81     8.7397     0.0424     0.2450     0.2570     8.8347     0.4947   411.2000     8.4235    -0.0037
 1287   25.720   3919.85     9.3025     0.0460     0.2709     0.2572     9.4150     0.5039   411.5200     9.0035     0.0012
 1288   25.740   3920.86     9.9665     0.0500     0.2927     0.2574    10.0863     0.5205   411.8400     9.6744     0.0029
 1289   25.760   3921.91    10.8683     0.0486     0.2535     0.2576    10.9833     0.4502   412.1600    10.5711     0.0016
 1290   25.780   3922.94    11.8351     0.0440     0.2059     0.2578    11.9256     0.3762   412.4800    11.5131    -0.0037
 1291   25.800   3923.95    13.0934     0.0400     0.1324     0.2580    13.1600     0.3138   412.8000    12.7472    -0.0078
 1292   25.820   3924.94    14.4782     0.0381     0.0474     0.2582    14.5105     0.2688   413.1200    14.0973    -0.0128
 1293   25.840   3925.95    15.7319     0.0383    -0.0279     0.2584    15.7292     0.2471   413.4400    15.3157    -0.0173
 1294   25.860   3926.97    16.6148     0.0493    -0.0735     0.2586    16.5896     0.2988   413.7600    16.1758    -0.0197
 1295   25.880   3927.92    16.3311     0.0568    -0.0696     0.2588    16.2993     0.3428   414.0800    15.8852    -0.0211
 1296   25.900   3928.91    15.3691     0.0638    -0.0415     0.2590    15.3483     0.4106   414.4000    14.9339    -0.0207
 1297   25.920   3929.85    13.9858     0.0740    -0.0395     0.2592    13.9689     0.5240   414.7200    13.5541    -0.0221
 1298   25.940   3930.83    12.1531     0.0914    -0.0233     0.2594    12.1407     0.7212   415.0400    11.7256    -0.0247
 1299   25.960   3931.81     9.1343     0.1118    -0.0047     0.2596     9.1301     1.0528   415.3600     8.7147    -0.0311
 1300   25.980   3932.82     6.9753     0.1177     0.0184     0.2598     6.9793     1.4905   415.6800     6.5636    -0.0382
 1301   26.000   3933.84     5.1581     0.1174     0.0686     0.2600     5.1763     2.1152   416.0000     4.7603    -0.0456
 1302   26.020   3934.86     3.7428     0.1119     0.1443     0.2602     3.7928     2.8241   416.3200     3.3764    -0.0417
 1303   26.040   3935.89     2.9463     0.1029     0.2536     0.2604     3.0344     3.4293   416.6400     2.6177    -0.0190
 1304   26.060   3936.91     2.4599     0.0859     0.4475     0.2606     2.6258     3.3227   416.9600     2.2088     0.0617
 1305   26.080   3937.93     1.9582     0.0635     0.6188     0.2608     2.1936     3.1959   417.2800     1.7764     0.1701
 1306   26.100   3938.94     1.6284     0.0461     0.7767     0.2610     1.9362     2.5890   417.6000     1.5186     0.3120
 1307   26.120   3939.94     1.4760     0.0289     0.8445     0.2612     1.8240     1.8984   417.9200     1.4061     0.4036
 1308   26.140   3940.95     1.4042     0.0199     0.8882     0.2614     1.7701     1.4162   418.2400     1.3519     0.4512
 1309   26.160   3941.98     1.3336     0.0170     0.9244     0.2616     1.7178     1.2660   418.5600     1.2992     0.5028
 1310   26.180   3942.99     1.3005     0.0174     0.9403     0.2618     1.6939     1.3355   418.8800     1.2750     0.5293
 1311   26.200   3944.02     1.3073     0.0185     0.9515     0.2620     1.7043     1.4177   419.2000     1.2851     0.5317
 1312   26.220   3945.03     1.2991     0.0193     0.9650     0.2622     1.7031     1.4831   419.5200     1.2836     0.5452
 1313   26.240   3945.99     1.3034     0.0200     0.9722     0.2624     1.7109     1.5416   419.8400     1.2911     0.5482
 1314   26.260   3947.02     1.3106     0.0208     0.9694     0.2626     1.7190     1.5874   420.1600     1.2988     0.5465
 1315   26.280   3948.04     1.3208     0.0209     0.9684     0.2628     1.7277     1.5861   420.4800     1.3072     0.5400
 1316   26.300   3949.08     1.3049     0.0219     0.9657     0.2630     1.7116     1.6749   420.8000     1.2908     0.5465
 1317   26.320   3950.09     1.2921     0.0226     0.9665     0.2632     1.6969     1.7437   421.1200     1.2758     0.5492
 1318   26.340   3951.10     1.2871     0.0223     0.9713     0.2634     1.6938     1.7298   421.4400     1.2724     0.5540
 1319   26.360   3952.14     1.2729     0.0228     0.9725     0.2636     1.6792     1.7782   421.7600     1.2575     0.5596
 1320   26.380   3953.16     1.2674     0.0240     0.9753     0.2638     1.6779     1.8890   422.0800     1.2559     0.5682
 1321   26.400   3954.14     1.2662     0.0244     0.9850     0.2640     1.6785     1.9265   422.4000     1.2561     0.5713
 1322   26.420   3955.16     1.2748     0.0251     1.0020     0.2642     1.6930     1.9799   422.7200     1.2703     0.5760
 1323   26.440   3956.24     1.2922     0.0253     1.0163     0.2644     1.7174     1.9646   423.0400     1.2944     0.5778
 1324   26.460   3957.22     1.3193     0.0260     1.0250     0.2646     1.7485     1.9697   423.3600     1.3252     0.5714
 1325   26.480   3958.25     1.3316     0.0262     1.0277     0.2648     1.7641     1.9702   423.6800     1.3404     0.5706
 1326   26.500   3959.25     1.3493     0.0266     1.0162     0.2650     1.7779     1.9879   424.0000     1.3539     0.5580
 1327   26.520   3960.25     1.3619     0.0270     1.0039     0.2652     1.7845     1.9822   424.3200     1.3602     0.5448
 1328   26.540   3961.30     1.3802     0.0273     0.9926     0.2654     1.7965     1.9782   424.6400     1.3719     0.5291
 1329   26.560   3962.31     1.3763     0.0274     0.9901     0.2656     1.7935     1.9844   424.9600     1.3686     0.5319
 1330   26.580   3963.31     1.3694     0.0274     0.9692     0.2658     1.7810     1.9928   425.2800     1.3557     0.5268
 1331   26.600   3964.35     1.3573     0.0270     0.9515     0.2660     1.7593     1.9876   425.6000     1.3337     0.5183
 1332   26.620   3965.40     1.3390     0.0264     0.9427     0.2662     1.7362     1.9703   425.9200     1.3103     0.5187
 1333   26.640   3966.37     1.3116     0.0263     0.9275     0.2664     1.7042     1.9983   426.2400     1.2779     0.5230
 1334   26.660   3967.37     1.2863     0.0261     0.8993     0.2666     1.6688     2.0275   426.5600     1.2423     0.5184
 1335   26.680   3968.37     1.2657     0.0253     0.8774     0.2668     1.6367     1.9978   426.8800     1.2098     0.5096
 1336   26.700   3969.40     1.2460     0.0251     0.8640     0.2670     1.6101     2.0102   427.2000     1.1829     0.5072
 1337   26.720   3970.44     1.2275     0.0252     0.8598     0.2672     1.5891     2.0511   427.5200     1.1616     0.5111
 1338   26.740   3971.44     1.2169     0.0249     0.8691     0.2674     1.5816     2.0421   427.8400     1.1538     0.5208
 1339   26.760   3972.46     1.2067     0.0249     0.8903     0.2676     1.5764     2.0524   428.1600     1.1482     0.5336
 1340   26.780   3973.43     1.2018     0.0248     0.9052     0.2678     1.5799     2.0679   428.4800     1.1514     0.5493
 1341   26.800   3974.47     1.2094     0.0246     0.9151     0.2680     1.5915     2.0327   428.8000     1.1627     0.5520
 1342   26.820   3975.47     1.2051     0.0251     0.9256     0.2682     1.5921     2.0789   429.1200     1.1630     0.5617
 1343   26.840   3976.53     1.1948     0.0255     0.9291     0.2684     1.5868     2.1292   429.4400     1.1573     0.5744
 1344   26.860   3977.53     1.1984     0.0254     0.9166     0.2686     1.5848     2.1262   429.7600     1.1550     0.5639
 1345   26.880   3978.49     1.1954     0.0254     0.9078     0.2688     1.5784     2.1296   430.0800     1.1483     0.5600
 1346   26.900   3979.53     1.1930     0.0259     0.8899     0.2690     1.5696     2.1676   430.4000     1.1392     0.5509
 1347   26.920   3980.56     1.1931     0.0271     0.9038     0.2692     1.5690     2.2679   430.7200     1.1383     0.5498
 1348   26.940   3981.55     1.1936     0.0283     0.9124     0.2694     1.5759     2.3682   431.0400     1.1448     0.5598
 1349   26.960   3982.59     1.1952     0.0285     0.9174     0.2696     1.5809     2.3830   431.3600     1.1495     0.5642
 1350   26.980   3983.62     1.1977     0.0285     0.9191     0.2698     1.5830     2.3783   431.6800     1.1514     0.5626
 1351   27.000   3984.60     1.1892     0.0284     0.9143     0.2700     1.5745     2.3804   432.0000     1.1425     0.5667
 1352   27.020   3997.72     1.1679     0.0287     0.9046     0.2702     1.5492     2.4116   432.3200     1.1169     0.5712
 1353   27.040   4011.62     1.1459     0.0278     0.8949     0.2704     1.5232     2.3396   432.6400     1.0905     0.5759
 1354   27.060   4022.36     1.1296     0.0273     0.8885     0.2706     1.5033     2.4169   432.9600     1.0704     0.5786
 1355   27.080   4023.36     1.1276     0.0286     0.8880     0.2708     1.5006     2.5284   433.2800     1.0673     0.5784
 1356   27.100   4024.39     1.1225     0.0290     0.8657     0.2710     1.4899     2.5853   433.6000     1.0563     0.5715
 1357   27.120   4025.39     1.1189     0.0288     0.8619     0.2712     1.4803     2.5638   433.9200     1.0464     0.5630
 1358   27.140   4026.42     1.1290     0.0275     0.8570     0.2714     1.4910     2.4330   434.2400     1.0568     0.5588
 1359   27.160   4027.41     1.1213     0.0266     0.8523     0.2716     1.4786     2.3713   434.5600     1.0441     0.5546
 1360   27.180   4028.46     1.0907     0.0257     0.8712     0.2718     1.4539     2.3493   434.8800     1.0191     0.5821
 1361   27.200   4029.45     1.0550     0.0251     0.8790     0.2720     1.4220     2.3782   435.2000     0.9868     0.6100
 1362   27.220   4030.47     1.0311     0.0249     0.9029     0.2722     1.4083     2.4092   435.5200     0.9728     0.6434
 1363   27.240   4031.47     1.0328     0.0251     0.9010     0.2724     1.4116     2.4350   435.8400     0.9758     0.6453
 1364   27.260   4032.51     1.0373     0.0249     0.9032     0.2726     1.4161     2.3959   436.1600     0.9800     0.6422
 1365   27.280   4033.49     1.0431     0.0245     0.9041     0.2728     1.4230     2.3587   436.4800     0.9865     0.6402
 1366   27.300   4034.49     1.0548     0.0241     0.9032     0.2730     1.4342     2.2984   436.8000     0.9974     0.6320
 1367   27.320   4035.50     1.0686     0.0242     0.9002     0.2732     1.4468     2.2678   437.1200     1.0097     0.6213
 1368   27.340   4036.52     1.0726     0.0246     0.9049     0.2734     1.4522     2.2936   437.4400     1.0147     0.6213
 1369   27.360   4037.55     1.0850     0.0250     0.8987     0.2736     1.4648     2.3021   437.7600     1.0270     0.6140
 1370   27.380   4038.55     1.1058     0.0245     0.8900     0.2738     1.4796     2.2266   438.0800     1.0415     0.5918
 1371   27.400   4039.59     1.1238     0.0245     0.8801     0.2740     1.4950     2.1847   438.4000     1.0566     0.5772
 1372   27.420   4040.59     1.1291     0.0249     0.8745     0.2742     1.4971     2.2022   438.7200     1.0584     0.5688
 1373   27.440   4041.58     1.1254     0.0253     0.8827     0.2744     1.4953     2.2505   439.0400     1.0563     0.5742
 1374   27.460   4042.58     1.1141     0.0256     0.9007     0.2746     1.4908     2.2841   439.3600     1.0514     0.5919
 1375   27.480   4043.64     1.1143     0.0232     0.9050     0.2748     1.4947     2.0853   439.6800     1.0550     0.5979
 1376   27.500   4044.60     1.1313     0.0204     0.9163     0.2750     1.5144     1.8156   440.0000     1.0744     0.5930
 1377   27.520   4045.61     1.1540     0.0163     0.9324     0.2752     1.5432     1.4209   440.3200     1.1029     0.5908
 1378   27.540   4046.68     1.1744     0.0107     0.9456     0.2754     1.5713     0.9215   440.6400     1.1306     0.5923
 1379   27.560   4047.67     1.2089     0.0152     0.9574     0.2756     1.6106     1.2734   440.9600     1.1697     0.5822
 1380   27.580   4048.67     1.5618     0.0252     0.9776     0.2758     1.9704     1.9052   441.2800     1.5291     0.4588
 1381   27.600   4049.76     4.2467     0.0381     0.9145     0.2760     4.6519     1.0398   441.6000     4.2103     0.1746
 1382   27.620   4050.78    11.1819     0.0511     0.6576     0.2762    11.5039     0.4746   441.9200    11.0620     0.0457
 1383   27.640   4051.92    16.2731     0.0610     0.3123     0.2764    16.4209     0.3913   442.2400    15.9786     0.0049
 1384   27.660   4052.92    21.3763     0.0738     0.2372     0.2766    21.4906     0.3575   442.5600    21.0480    -0.0001
 1385   27.680   4053.92    24.7954     0.0965     0.1915     0.2768    24.8764     0.3985   442.8800    24.4335    -0.0034
 1386   27.700   4054.87    26.4116     0.1006     0.2343     0.2770    26.5036     0.3829   443.2000    26.0604    -0.0022
 1387   27.720   4055.88    27.4431     0.0987     0.2292     0.2772    27.5406     0.3634   443.5200    27.0971    -0.0017
 1388   27.740   4056.86    28.3544     0.0872     0.1978     0.2774    28.4439     0.3094   443.8400    28.0001    -0.0023
 1389   27.760   4057.89    29.3132     0.0929     0.1930     0.2776    29.3943     0.3201   444.1600    28.9502    -0.0029
 1390   27.780   4058.84    30.1563     0.0994     0.2015     0.2778    30.2354     0.3317   444.4800    29.7910    -0.0030
 1391   27.800   4059.79    30.3377     0.1079     0.2302     0.2780    30.4324     0.3558   444.8000    29.9876    -0.0018
 1392   27.820   4060.81    29.4491     0.1117     0.2078     0.2782    29.5415     0.3744   445.1200    29.0964    -0.0020
 1393   27.840   4061.76    27.4683     0.1192     0.1898     0.2784    27.5457     0.4251   445.4400    27.1003    -0.0035
 1394   27.860   4062.68    23.0807     0.1476     0.1603     0.2786    23.1627     0.6220   445.7600    22.7169    -0.0037
 1395   27.880   4063.67    21.4354     0.1486     0.1150     0.2788    21.4787     0.6905   446.0800    21.0326    -0.0084
 1396   27.900   4064.62    20.8077     0.1340     0.1238     0.2790    20.8529     0.6357   446.4000    20.4065    -0.0084
 1397   27.920   4065.67    22.1964     0.1180     0.1707     0.2792    22.2524     0.5528   446.7200    21.8057    -0.0067
 1398   27.940   4066.64    24.4305     0.1147     0.2095     0.2794    24.5119     0.4881   447.0400    24.0648    -0.0036
 1399   27.960   4067.63    27.0465     0.1181     0.1973     0.2796    27.1422     0.4554   447.3600    26.6948    -0.0019
 1400   27.980   4068.65    31.0323     0.1133     0.0842     0.2798    31.0886     0.3900   447.6800    30.6409    -0.0048
 1401   28.000   4069.73    35.8069     0.1074     0.0130     0.2800    35.8220     0.3017   448.0000    35.3739    -0.0069
 1402   28.020   4070.78    39.6734     0.1150    -0.0461     0.2802    39.6635     0.2937   448.3200    39.2152    -0.0077
 1403   28.040   4071.81    40.7519     0.1519    -0.1580     0.2804    40.6948     0.3740   448.6400    40.2461    -0.0103
 1404   28.060   4072.79    40.1275     0.2034    -0.1469     0.2806    40.0647     0.5025   448.9600    39.6157    -0.0109
 1405   28.080   4073.76    37.7565     0.2501    -0.1437     0.2808    37.6905     0.6502   449.2800    37.2412    -0.0118
 1406   28.100   4074.75    34.9658     0.2948    -0.1215     0.2810    34.9072     0.8306   449.6000    34.4576    -0.0122
 1407   28.120   4075.70    31.0601     0.3274    -0.0819     0.2812    31.0219     1.0414   449.9200    30.5720    -0.0122
 1408   28.140   4076.64    26.4694     0.3263    -0.0378     0.2814    26.4478     1.2225   450.2400    25.9975    -0.0128
 1409   28.160   4077.62    22.8895     0.2891     0.0314     0.2816    22.8912     1.1911   450.5600    22.4407    -0.0124
 1410   28.180   4078.62    20.7517     0.2791     0.2085     0.2818    20.8143     1.3289   450.8800    20.3634    -0.0065
 1411   28.200   4079.62    21.7210     0.2576     0.2705     0.2820    21.8295     1.2308   451.2000    21.3783    -0.0011
 1412   28.220   4080.68    25.1446     0.2243     0.2095     0.2822    25.2477     0.9622   451.5200    24.7961    -0.0015
 1413   28.240   4081.68    29.0409     0.1916     0.0629     0.2824    29.1053     0.6866   451.8400    28.6534    -0.0045
 1414   28.260   4082.68    31.8668                0.0942     0.2826    31.9202              452.1600    31.4681    -0.0049
 1415   28.280   4083.69    33.4891                0.0161     0.2828    33.5083              452.4800    33.0558    -0.0072
 1416   28.300   4084.74    35.5141               -0.0066     0.2830    35.5161              452.8000    35.0633    -0.0079
 1417   28.320   4085.80    39.4480                0.0132     0.2832    39.4480              453.1200    38.9949    -0.0073
 1418   28.340   4086.99    46.1130                0.0563     0.2834    46.1338              453.4400    45.6804    -0.0051
 1419   28.360   4088.04    50.9214                           0.2836    50.9700              453.7600    50.5163    -0.0033
 
 
