

 Program UNIPLOT                         version 05.36.02
 _______________
 (c) Fugro Netherlands Marine, Nootdorp, The Netherlands


 ASCII representation of data plotted on a graph.

 This ASCII file presents data interpolated to values per fixed depth interval.
 The data are corrected for the depth-offset differences between the various 
 transducers in the penetrometer.

 The records at the start of penetration may include no values or anomalous
 values where a depth offset implies incomplete penetration of a particular
 sensor into the ground.

 The records at the end of penetration may include no values for data channels
 where the transducer did not reach this depth.

 The reference level for test values is (1) the ground surface for onshore tests and (2) the seafloor for nearshore and offshore tests.

 UNICAS data file          : CPT-1028.000                            
 Output using command file : PlotASCII.cmd

 ASCII file created at : date          :19-Mar-2022
                         time          :10:32:03
 Project number                        :20024805
 Date of testing                       :18-Mar-2022
 Location                              :Hong Kong Offshore Wind Farm Project
 Test name                             :CPT-1028
 Penetrometer                          :F7.5CKE2HAW2/B/3342
 Serial no                             :1701-3342

 Table description:
 Column ID                             :Parameter name
 ___________________________________________________________________________________
 Rec                                   :Record ID, Record ID [-]
 Depth                                 :Depth, Depth [m]
 Time                                  :Time, Time [s]
 Cone                                  :Cone Resistance, Cone Resistance [MPa]
 Friction                              :Sleeve Friction, Sleeve Friction [MPa]
 Pore 2                                :Porewater Pressure, Porewater Pressure at Shoulder [MPa]
 HydroPress                            :Hydrostatic Pressure, Hydrostatic Pressure [MPa]
 qt                                    :Total Cone Resistance, Total Cone Resistance [MPa]
 Fric_ratio                            :Friction Ratio, Friction Ratio [%]
 SigmaVert                             :Vertical stress, Vertical stress [kPa] as specified in ground model
 Qnet                                  :Net Cone Resistance, Net Cone Resistance [MPa], unit weight as specified in ground model
 Bq                                    :Porewater Pressure Ratio, Porewater Pressure Ratio [-], unit weight as specified in ground model


 Data table:
  Rec    Depth      Time       Cone   Friction     Pore 2 HydroPress         qt Fric_ratio  SigmaVert       Qnet         Bq
   No        m         s        MPa        MPa        MPa        MPa        MPa          %        kPa        MPa          -
    1    0.000   1709.16     0.0000                           0.0000     0.0000                0.0000     0.0000           
    2    0.020   1710.11     0.0004                0.0000     0.0002     0.0004                0.3200     0.0001           
    3    0.040   1711.07    -0.0004                0.0000     0.0004    -0.0004                0.6400    -0.0010     0.4776
    4    0.060   1712.06     0.0003                0.0002     0.0006     0.0004                0.9600    -0.0006     0.8639
    5    0.080   1713.02     0.0014     0.0002     0.0005     0.0008     0.0015    25.6854     1.2800     0.0002     0.0100
    6    0.100   1713.92     0.0030     0.0002     0.0010     0.0010     0.0034     9.4504     1.6000     0.0018    -0.0998
    7    0.120   1714.87     0.0035     0.0003     0.0014     0.0012     0.0040     8.3003     1.9200     0.0021     0.0312
    8    0.140   1715.82     0.0043     0.0003     0.0018     0.0014     0.0050     7.4108     2.2400     0.0027     0.1009
    9    0.160   1716.78     0.0047     0.0005     0.0013     0.0016     0.0053    10.1026     2.5600     0.0027    -0.0531
   10    0.180   1717.73     0.0045     0.0005     0.0009     0.0018     0.0050    10.3414     2.8800     0.0021    -0.3638
   11    0.200   1718.72     0.0055     0.0006     0.0010     0.0020     0.0059    12.9711     3.2000     0.0027    -0.3862
   12    0.220   1719.68     0.0067     0.0007     0.0008     0.0022     0.0070    11.2456     3.5200     0.0035    -0.4059
   13    0.240   1720.64     0.0078     0.0007     0.0004     0.0024     0.0081     9.5654     3.8400     0.0043    -0.3976
   14    0.260   1721.59     0.0095     0.0007     0.0005     0.0026     0.0097     7.1967     4.1600     0.0055    -0.3859
   15    0.280   1722.53     0.0101     0.0008     0.0003     0.0028     0.0103     8.2385     4.4800     0.0058    -0.4093
   16    0.300   1723.48     0.0122     0.0010     0.0005     0.0030     0.0123     8.2091     4.8000     0.0075    -0.3641
   17    0.320   1724.43     0.0131     0.0011     0.0009     0.0032     0.0134     8.7653     5.1200     0.0083    -0.2846
   18    0.340   1725.38     0.0133     0.0013    -0.0007     0.0034     0.0133     9.4689     5.4400     0.0079    -0.4404
   19    0.360   1726.35     0.0124     0.0012    -0.0005     0.0036     0.0122     9.5941     5.7600     0.0064    -0.6453
   20    0.380   1727.27     0.0120     0.0012     0.0010     0.0038     0.0124     9.8006     6.0800     0.0063    -0.4487
   21    0.400   1728.22     0.0117     0.0012     0.0022     0.0040     0.0123    10.2907     6.4000     0.0059    -0.4004
   22    0.420   1729.17     0.0106     0.0012     0.0033     0.0042     0.0118    10.9155     6.7200     0.0051    -0.2742
   23    0.440   1730.13     0.0098     0.0011     0.0034     0.0044     0.0113    11.4712     7.0400     0.0042    -0.1900
   24    0.460   1731.08     0.0085     0.0009     0.0039     0.0046     0.0101    10.6622     7.3600     0.0027    -0.2951
   25    0.480   1732.03     0.0105     0.0009     0.0039     0.0048     0.0121     8.5459     7.6800     0.0044    -0.2328
   26    0.500   1732.96     0.0104     0.0010     0.0046     0.0050     0.0122     9.7528     8.0000     0.0042    -0.1746
   27    0.520   1733.94     0.0114     0.0011     0.0050     0.0052     0.0134     9.7388     8.3200     0.0051    -0.0618
   28    0.540   1734.89     0.0109     0.0012     0.0061     0.0054     0.0133    10.7954     8.6400     0.0047     0.0772
   29    0.560   1735.84     0.0119     0.0012     0.0064     0.0056     0.0146    10.4915     8.9600     0.0057     0.1429
   30    0.580   1736.79     0.0120     0.0011     0.0058     0.0058     0.0144     9.5767     9.2800     0.0051    -0.0139
   31    0.600   1737.73     0.0114     0.0012     0.0069     0.0060     0.0141    10.3326     9.6000     0.0045     0.0932
   32    0.620   1738.74     0.0109     0.0011     0.0074     0.0062     0.0141     9.8332     9.9200     0.0041     0.3388
   33    0.640   1739.65     0.0123     0.0011     0.0082     0.0064     0.0158     9.2453    10.2400     0.0055     0.3307
   34    0.660   1740.61     0.0150     0.0013     0.0092     0.0066     0.0186     9.0294    10.5600     0.0081     0.2626
   35    0.680   1741.56     0.0165     0.0013     0.0101     0.0068     0.0207     8.1207    10.8800     0.0098     0.3195
   36    0.700   1742.55     0.0175     0.0014     0.0106     0.0070     0.0219     7.5232    11.2000     0.0107     0.3260
   37    0.720   1743.50     0.0180     0.0015     0.0076     0.0072     0.0218     8.5619    11.5200     0.0103     0.1772
   38    0.740   1744.45     0.0186     0.0014     0.0055     0.0074     0.0210     7.3739    11.8400     0.0092    -0.1954
   39    0.760   1745.39     0.0183     0.0014     0.0070     0.0076     0.0211     7.7513    12.1600     0.0090    -0.0946
   40    0.780   1746.35     0.0180     0.0015     0.0082     0.0078     0.0212     8.2991    12.4800     0.0087    -0.0449
   41    0.800   1747.31     0.0189     0.0016     0.0096     0.0080     0.0227     8.9575    12.8000     0.0099     0.1182
   42    0.820   1748.26     0.0175     0.0017     0.0092     0.0082     0.0216     9.5670    13.1200     0.0085     0.1688
   43    0.840   1749.24     0.0165     0.0015     0.0098     0.0084     0.0207     8.9623    13.4400     0.0073     0.2072
   44    0.860   1750.19     0.0151     0.0015     0.0101     0.0086     0.0193     9.7257    13.7600     0.0055     0.2533
   45    0.880   1758.94     0.0131     0.0014     0.0099     0.0088     0.0173     9.7756    14.0800     0.0032     0.3000
   46    0.900   1775.79     0.0114     0.0012     0.0095     0.0090     0.0155     8.8019    14.4000     0.0011     0.2059
   47    0.920   1792.65     0.0098     0.0012     0.0091     0.0092     0.0136     8.8334    14.7200    -0.0011     0.1118
   48    0.940   1799.30     0.0089     0.0011     0.0103     0.0094     0.0132    12.5059    15.0400    -0.0018    -0.5535
   49    0.960   1800.24     0.0085     0.0010     0.0120     0.0096     0.0134    11.8173    15.3600    -0.0020    -1.0343
   50    0.980   1801.15     0.0091     0.0011     0.0125     0.0098     0.0143    12.5386    15.6800    -0.0014    -1.7652
   51    1.000   1802.12     0.0150     0.0011     0.0132     0.0100     0.0203     8.8598    16.0000     0.0043     0.6126
   52    1.020   1803.15     0.0192     0.0010     0.0144     0.0102     0.0252     5.6751    16.3200     0.0088     0.4552
   53    1.040   1804.07     0.0219     0.0011     0.0159     0.0104     0.0285     5.2796    16.6400     0.0118     0.4505
   54    1.060   1805.02     0.0268     0.0012     0.0163     0.0106     0.0335     4.7636    16.9600     0.0166     0.3255
   55    1.080   1805.99     0.0304     0.0014     0.0170     0.0108     0.0374     4.7908    17.2800     0.0202     0.3022
   56    1.100   1806.94     0.0333     0.0015     0.0160     0.0110     0.0403     4.6736    17.6000     0.0227     0.2447
   57    1.120   1807.89     0.0352     0.0014     0.0122     0.0112     0.0410     4.1004    17.9200     0.0231     0.1161
   58    1.140   1808.85     0.0381     0.0016     0.0129     0.0114     0.0433     4.4663    18.2400     0.0251     0.0412
   59    1.160   1809.82     0.0410     0.0018     0.0130     0.0116     0.0465     4.5051    18.5600     0.0279     0.0539
   60    1.180   1810.76     0.0427     0.0021     0.0148     0.0118     0.0486     4.9838    18.8800     0.0297     0.0770
   61    1.200   1811.68     0.0429     0.0021     0.0140     0.0120     0.0491     4.8996    19.2000     0.0299     0.0967
   62    1.220   1812.66     0.0449     0.0021     0.0130     0.0122     0.0505     4.8275    19.5200     0.0310     0.0349
   63    1.240   1813.61     0.0447     0.0022     0.0142     0.0124     0.0501     4.9082    19.8400     0.0302     0.0117
   64    1.260   1814.57     0.0427     0.0024     0.0142     0.0126     0.0487     5.6212    20.1600     0.0285     0.0570
   65    1.280   1815.52     0.0411     0.0023     0.0163     0.0128     0.0477     5.4605    20.4800     0.0272     0.1064
   66    1.300   1816.48     0.0398     0.0023     0.0169     0.0130     0.0468     5.6168    20.8000     0.0260     0.1388
   67    1.320   1817.42     0.0395     0.0021     0.0179     0.0132     0.0468     5.1982    21.1200     0.0257     0.1630
   68    1.340   1818.40     0.0372     0.0019     0.0203     0.0134     0.0454     5.0085    21.4400     0.0240     0.2583
   69    1.360   1819.36     0.0358     0.0018     0.0224     0.0136     0.0449     4.9545    21.7600     0.0232     0.3565
   70    1.380   1820.31     0.0374     0.0018     0.0230     0.0138     0.0469     4.8311    22.0800     0.0248     0.3546
   71    1.400   1821.23     0.0395     0.0016     0.0243     0.0140     0.0496     4.1227    22.4000     0.0272     0.3742
   72    1.420   1822.18     0.0403     0.0016     0.0234     0.0142     0.0500     4.1741    22.7200     0.0273     0.3239
   73    1.440   1823.11     0.0436     0.0018     0.0235     0.0144     0.0535     4.3064    23.0400     0.0305     0.3024
   74    1.460   1824.07     0.0459     0.0019     0.0242     0.0146     0.0559     4.0889    23.3600     0.0326     0.2817
   75    1.480   1825.05     0.0459     0.0019     0.0262     0.0148     0.0565     4.0806    23.6800     0.0329     0.3240
   76    1.500   1826.00     0.0451     0.0019     0.0236     0.0150     0.0555     4.1480    24.0000     0.0315     0.3092
   77    1.520   1826.96     0.0462     0.0018     0.0224     0.0152     0.0557     3.9458    24.3200     0.0313     0.2373
   78    1.540   1827.91     0.0463     0.0019     0.0248     0.0154     0.0562     4.1413    24.6400     0.0316     0.2559
   79    1.560   1828.89     0.0466     0.0019     0.0264     0.0156     0.0577     4.0343    24.9600     0.0327     0.3266
   80    1.580   1829.79     0.0475     0.0019     0.0276     0.0158     0.0591     4.0258    25.2800     0.0338     0.3447
   81    1.600   1830.76     0.0467     0.0020     0.0262     0.0160     0.0580     4.2747    25.6000     0.0324     0.3354
   82    1.620   1831.70     0.0456     0.0020     0.0267     0.0162     0.0569     4.3891    25.9200     0.0310     0.3454
   83    1.640   1832.65     0.0439     0.0019     0.0296     0.0164     0.0559     4.1553    26.2400     0.0296     0.4076
   84    1.660   1833.63     0.0435     0.0018     0.0313     0.0166     0.0563     4.2142    26.5600     0.0297     0.4665
   85    1.680   1834.58     0.0447     0.0017     0.0339     0.0168     0.0585     3.8808    26.8800     0.0316     0.5108
   86    1.700   1835.54     0.0482     0.0020     0.0364     0.0170     0.0631     4.4089    27.2000     0.0359     0.5131
   87    1.720   1836.49     0.0560     0.0021     0.0373     0.0172     0.0717     4.0454    27.5200     0.0442     0.4595
   88    1.740   1837.44     0.0675     0.0022     0.0354     0.0174     0.0827     3.5357    27.8400     0.0548     0.3432
   89    1.760   1838.39     0.0758     0.0024     0.0328     0.0176     0.0899     3.2577    28.1600     0.0618     0.2610
   90    1.780   1839.33     0.0791     0.0025     0.0317     0.0178     0.0926     3.2480    28.4800     0.0642     0.2255
   91    1.800   1840.28     0.0781     0.0027     0.0348     0.0180     0.0925     3.4672    28.8000     0.0637     0.2588
   92    1.820   1841.23     0.0765     0.0027     0.0395     0.0182     0.0926     3.5315    29.1200     0.0634     0.3151
   93    1.840   1842.23     0.0756     0.0026     0.0409     0.0184     0.0928     3.4407    29.4400     0.0633     0.3562
   94    1.860   1843.14     0.0733     0.0024     0.0408     0.0186     0.0903     3.2548    29.7600     0.0605     0.3635
   95    1.880   1844.12     0.0707     0.0022     0.0424     0.0188     0.0884     3.0966    30.0800     0.0583     0.3988
   96    1.900   1845.06     0.0683     0.0022     0.0438     0.0190     0.0867     3.1446    30.4000     0.0563     0.4413
   97    1.920   1845.97     0.0682     0.0024     0.0454     0.0192     0.0870     3.5237    30.7200     0.0562     0.4529
   98    1.940   1846.93     0.0693     0.0024     0.0462     0.0194     0.0886     3.4288    31.0400     0.0576     0.4602
   99    1.960   1847.88     0.0721     0.0024     0.0456     0.0196     0.0914     3.3959    31.3600     0.0601     0.4383
  100    1.980   1848.86     0.0732     0.0024     0.0433     0.0198     0.0919     3.2429    31.6800     0.0603     0.4114
  101    2.000   1849.81     0.0745     0.0025     0.0418     0.0200     0.0920     3.3024    32.0000     0.0600     0.3634
  102    2.020   1850.79     0.0744     0.0025     0.0457     0.0202     0.0929     3.3332    32.3200     0.0606     0.3950
  103    2.040   1851.73     0.0761     0.0025     0.0471     0.0204     0.0950     3.3129    32.6400     0.0624     0.3965
  104    2.060   1852.68     0.0797     0.0025     0.0481     0.0206     0.0999     3.1388    32.9600     0.0670     0.4110
  105    2.080   1853.62     0.0805     0.0026     0.0465     0.0208     0.1009     3.1584    33.2800     0.0677     0.4107
  106    2.100   1854.57     0.0813     0.0025     0.0461     0.0210     0.1004     3.0749    33.6000     0.0668     0.3650
  107    2.120   1855.56     0.0805     0.0024     0.0478     0.0212     0.1004     3.0072    33.9200     0.0665     0.3934
  108    2.140   1856.51     0.0860     0.0025     0.0485     0.0214     0.1063     2.9834    34.2400     0.0721     0.3740
  109    2.160   1857.47     0.0891     0.0024     0.0517     0.0216     0.1101     2.6895    34.5600     0.0755     0.3754
  110    2.180   1858.41     0.0941     0.0026     0.0565     0.0218     0.1172     2.7884    34.8800     0.0823     0.4048
  111    2.200   1859.36     0.0979     0.0026     0.0585     0.0220     0.1222     2.6972    35.2000     0.0870     0.4118
  112    2.220   1860.35     0.1002     0.0026     0.0571     0.0222     0.1242     2.6256    35.5200     0.0887     0.3958
  113    2.240   1861.30     0.1000     0.0025     0.0595     0.0224     0.1246     2.4367    35.8400     0.0887     0.4070
  114    2.260   1862.25     0.0993     0.0023     0.0598     0.0226     0.1245     2.2904    36.1600     0.0883     0.4213
  115    2.280   1863.20     0.0955     0.0021     0.0609     0.0228     0.1210     2.1404    36.4800     0.0845     0.4472
  116    2.300   1864.18     0.0962     0.0021     0.0582     0.0230     0.1212     2.2193    36.8000     0.0844     0.4318
  117    2.320   1865.14     0.1001     0.0022     0.0547     0.0232     0.1239     2.2291    37.1200     0.0868     0.3868
  118    2.340   1866.08     0.1093     0.0021     0.0504     0.0234     0.1305     2.0347    37.4400     0.0931     0.2922
  119    2.360   1867.05     0.1162     0.0024     0.0473     0.0236     0.1368     2.1210    37.7600     0.0990     0.2578
  120    2.380   1867.99     0.1195     0.0024     0.0446     0.0238     0.1383     2.0561    38.0800     0.1002     0.2090
  121    2.400   1868.95     0.1195     0.0025     0.0467     0.0240     0.1387     2.1150    38.4000     0.1003     0.2156
  122    2.420   1869.88     0.1162     0.0028     0.0490     0.0242     0.1366     2.3720    38.7200     0.0979     0.2489
  123    2.440   1870.84     0.1144     0.0028     0.0497     0.0244     0.1351     2.4718    39.0400     0.0961     0.2592
  124    2.460   1871.77     0.1150     0.0025     0.0519     0.0246     0.1364     2.2170    39.3600     0.0970     0.2707
  125    2.480   1872.72     0.1151     0.0025     0.0555     0.0248     0.1379     2.1999    39.6800     0.0982     0.3000
  126    2.500   1873.67     0.1150     0.0022     0.0590     0.0250     0.1392     1.9130    40.0000     0.0992     0.3290
  127    2.520   1874.62     0.1175     0.0021     0.0619     0.0252     0.1431     1.7654    40.3200     0.1027     0.3469
  128    2.540   1875.59     0.1192     0.0019     0.0630     0.0254     0.1459     1.6145    40.6400     0.1052     0.3615
  129    2.560   1876.58     0.1213     0.0020     0.0609     0.0256     0.1471     1.6226    40.9600     0.1062     0.3382
  130    2.580   1877.48     0.1256     0.0020     0.0598     0.0258     0.1510     1.6038    41.2800     0.1097     0.3161
  131    2.600   1878.48     0.1300     0.0022     0.0536     0.0260     0.1535     1.6928    41.6000     0.1119     0.2673
  132    2.620   1879.41     0.1293     0.0023     0.0478     0.0262     0.1503     1.7676    41.9200     0.1083     0.2179
  133    2.640   1880.36     0.1339     0.0023     0.0396     0.0264     0.1516     1.7535    42.2400     0.1094     0.1436
  134    2.660   1881.31     0.1391     0.0024     0.0411     0.0266     0.1557     1.7175    42.5600     0.1131     0.1141
  135    2.680   1882.29     0.1403     0.0025     0.0498     0.0268     0.1599     1.8099    42.8800     0.1171     0.1713
  136    2.700   1883.25     0.1378     0.0028     0.0561     0.0270     0.1606     2.0594    43.2000     0.1174     0.2330
  137    2.720   1884.19     0.1349     0.0031     0.0572     0.0272     0.1588     2.3230    43.5200     0.1153     0.2570
  138    2.740   1885.15     0.1340     0.0032     0.0504     0.0274     0.1561     2.3846    43.8400     0.1122     0.2233
  139    2.760   1886.10     0.1369     0.0032     0.0537     0.0276     0.1587     2.3332    44.1600     0.1145     0.2118
  140    2.780   1887.10     0.1381     0.0035     0.0585     0.0278     0.1623     2.5442    44.4800     0.1178     0.2525
  141    2.800   1895.69     0.1342     0.0035     0.0556     0.0280     0.1582     2.5836    44.8000     0.1134     0.2555
  142    2.820   1914.64     0.1298     0.0033     0.0511     0.0282     0.1519     2.3955    45.1200     0.1068     0.2265
  143    2.840   1932.23     0.1263     0.0031     0.0482     0.0284     0.1467     2.3847    45.4400     0.1012     0.1979
  144    2.860   1933.18     0.1335     0.0030     0.0511     0.0286     0.1542     2.3215    45.7600     0.1084     0.1906
  145    2.880   1934.14     0.1408     0.0031     0.0570     0.0288     0.1640     2.2823    46.0800     0.1179     0.2249
  146    2.900   1935.11     0.1475     0.0034     0.0587     0.0290     0.1725     2.3244    46.4000     0.1261     0.2419
  147    2.920   1936.06     0.1523     0.0034     0.0604     0.0292     0.1773     2.2175    46.7200     0.1305     0.2323
  148    2.940   1937.01     0.1513     0.0030     0.0610     0.0294     0.1770     2.0049    47.0400     0.1299     0.2440
  149    2.960   1937.95     0.1491     0.0025     0.0638     0.0296     0.1752     1.6766    47.3600     0.1279     0.2548
  150    2.980   1938.90     0.1455     0.0025     0.0681     0.0298     0.1735     1.7502    47.6800     0.1258     0.2936
  151    3.000   1939.87     0.1446     0.0030     0.0705     0.0300     0.1740     2.0822    48.0000     0.1260     0.3179
  152    3.020   1940.86     0.1421     0.0032     0.0707     0.0302     0.1716     2.2337    48.3200     0.1233     0.3249
  153    3.040   1941.82     0.1391     0.0032     0.0698     0.0304     0.1685     2.2701    48.6400     0.1199     0.3307
  154    3.060   1942.74     0.1358     0.0032     0.0660     0.0306     0.1647     2.3202    48.9600     0.1158     0.3305
  155    3.080   1943.72     0.1366     0.0031     0.0598     0.0308     0.1625     2.3336    49.2800     0.1132     0.2735
  156    3.100   1944.68     0.1379     0.0031     0.0633     0.0310     0.1639     2.2544    49.6000     0.1143     0.2705
  157    3.120   1945.63     0.1347     0.0032     0.0690     0.0312     0.1628     2.3729    49.9200     0.1129     0.3152
  158    3.140   1946.62     0.1399     0.0032     0.0742     0.0314     0.1705     2.3058    50.2400     0.1203     0.3440
  159    3.160   1947.55     0.1387     0.0032     0.0766     0.0316     0.1706     2.3184    50.5600     0.1200     0.3688
  160    3.180   1948.53     0.1386     0.0031     0.0786     0.0318     0.1715     2.2304    50.8800     0.1206     0.3852
  161    3.200   1949.48     0.1399     0.0030     0.0759     0.0320     0.1722     2.1679    51.2000     0.1210     0.3703
  162    3.220   1950.43     0.1403     0.0032     0.0772     0.0322     0.1724     2.2622    51.5200     0.1208     0.3645
  163    3.240   1951.40     0.1423     0.0032     0.0792     0.0324     0.1754     2.2248    51.8400     0.1236     0.3758
  164    3.260   1952.34     0.1436     0.0030     0.0799     0.0326     0.1769     2.0675    52.1600     0.1247     0.3748
  165    3.280   1953.31     0.1449     0.0027     0.0782     0.0328     0.1782     1.8779    52.4800     0.1257     0.3689
  166    3.300   1954.25     0.1503     0.0024     0.0789     0.0330     0.1829     1.6332    52.8000     0.1301     0.3426
  167    3.320   1955.22     0.1581     0.0025     0.0845     0.0332     0.1928     1.5888    53.1200     0.1397     0.3535
  168    3.340   1956.20     0.1666     0.0026     0.0874     0.0334     0.2036     1.5691    53.4400     0.1502     0.3643
  169    3.360   1957.16     0.1704     0.0028     0.0866     0.0336     0.2072     1.6278    53.7600     0.1534     0.3512
  170    3.380   1958.09     0.1704     0.0028     0.0830     0.0338     0.2061     1.6154    54.0800     0.1520     0.3362
  171    3.400   1959.04     0.1666     0.0029     0.0720     0.0340     0.1986     1.7579    54.4000     0.1442     0.2922
  172    3.420   1960.01     0.1664     0.0031     0.0677     0.0342     0.1949     1.8738    54.7200     0.1402     0.2399
  173    3.440   1960.98     0.1667     0.0037     0.0707     0.0344     0.1960     2.2052    55.0400     0.1410     0.2512
  174    3.460   1961.93     0.1609     0.0036     0.0721     0.0346     0.1911     2.1850    55.3600     0.1357     0.2735
  175    3.480   1962.89     0.1520     0.0036     0.0749     0.0348     0.1831     2.3188    55.6800     0.1274     0.3076
  176    3.500   1963.85     0.1502     0.0034     0.0787     0.0350     0.1826     2.2674    56.0000     0.1266     0.3326
  177    3.520   1964.82     0.1504     0.0033     0.0826     0.0352     0.1846     2.1969    56.3200     0.1282     0.3605
  178    3.540   1965.79     0.1541     0.0033     0.0844     0.0354     0.1894     2.1424    56.6400     0.1327     0.3660
  179    3.560   1966.72     0.1597     0.0031     0.0802     0.0356     0.1941     1.9559    56.9600     0.1372     0.3385
  180    3.580   1967.66     0.1651     0.0033     0.0840     0.0358     0.1994     2.0010    57.2800     0.1422     0.3237
  181    3.600   1968.62     0.1753     0.0034     0.0798     0.0360     0.2095     2.0006    57.6000     0.1519     0.2989
  182    3.620   1969.60     0.1853     0.0035     0.0755     0.0362     0.2171     1.9020    57.9200     0.1592     0.2486
  183    3.640   1970.55     0.1897     0.0036     0.0688     0.0364     0.2198     1.9165    58.2400     0.1615     0.2177
  184    3.660   1971.51     0.1956     0.0037     0.0658     0.0366     0.2234     1.9064    58.5600     0.1648     0.1787
  185    3.680   1972.48     0.1987     0.0039     0.0669     0.0368     0.2266     1.9657    58.8800     0.1677     0.1775
  186    3.700   1973.45     0.2026     0.0042     0.0663     0.0370     0.2304     2.0627    59.2000     0.1712     0.1708
  187    3.720   1974.40     0.2073     0.0044     0.0656     0.0372     0.2352     2.1265    59.5200     0.1757     0.1665
  188    3.740   1975.32     0.2090     0.0043     0.0645     0.0374     0.2362     2.0486    59.8400     0.1764     0.1558
  189    3.760   1976.29     0.2129     0.0042     0.0644     0.0376     0.2401     1.9913    60.1600     0.1799     0.1512
  190    3.780   1977.24     0.2136     0.0042     0.0596     0.0378     0.2386     1.9836    60.4800     0.1781     0.1219
  191    3.800   1978.22     0.2119     0.0042     0.0637     0.0380     0.2381     1.9964    60.8000     0.1773     0.1375
  192    3.820   1979.18     0.2071     0.0045     0.0690     0.0382     0.2353     2.1469    61.1200     0.1742     0.1674
  193    3.840   1980.09     0.2014     0.0041     0.0724     0.0384     0.2312     2.0033    61.4400     0.1698     0.1920
  194    3.860   1981.06     0.1975     0.0038     0.0753     0.0386     0.2288     1.9091    61.7600     0.1670     0.2149
  195    3.880   1982.02     0.1961     0.0035     0.0779     0.0388     0.2283     1.7879    62.0800     0.1663     0.2289
  196    3.900   1982.96     0.1926     0.0034     0.0808     0.0390     0.2262     1.7282    62.4000     0.1638     0.2499
  197    3.920   1983.91     0.1893     0.0032     0.0833     0.0392     0.2239     1.6607    62.7200     0.1612     0.2678
  198    3.940   1984.85     0.1892     0.0032     0.0852     0.0394     0.2248     1.7104    63.0400     0.1617     0.2802
  199    3.960   1985.79     0.1932     0.0034     0.0871     0.0396     0.2295     1.7568    63.3600     0.1662     0.2824
  200    3.980   1986.75     0.1890     0.0033     0.0842     0.0398     0.2245     1.7433    63.6800     0.1608     0.2779
  201    4.000   1987.73     0.1844     0.0034     0.0830     0.0400     0.2195     1.8625    64.0000     0.1555     0.2800
  202    4.020   1988.68     0.1880     0.0037     0.0813     0.0402     0.2226     1.9776    64.3200     0.1583     0.2663
  203    4.040   1989.67     0.1941     0.0037     0.0850     0.0404     0.2296     1.9136    64.6400     0.1650     0.2673
  204    4.060   1990.61     0.2031     0.0037     0.0881     0.0406     0.2394     1.8223    64.9600     0.1744     0.2629
  205    4.080   1991.54     0.2067     0.0036     0.0906     0.0408     0.2448     1.7706    65.2800     0.1795     0.2778
  206    4.100   1992.49     0.2070     0.0037     0.0897     0.0410     0.2451     1.7933    65.6000     0.1795     0.2771
  207    4.120   1993.45     0.2039     0.0036     0.0871     0.0412     0.2404     1.7458    65.9200     0.1745     0.2622
  208    4.140   1994.40     0.2008     0.0036     0.0903     0.0414     0.2382     1.7682    66.2400     0.1719     0.2769
  209    4.160   1995.38     0.1991     0.0035     0.0917     0.0416     0.2374     1.7655    66.5600     0.1709     0.2911
  210    4.180   1996.36     0.1974     0.0035     0.0938     0.0418     0.2364     1.7751    66.8800     0.1696     0.3015
  211    4.200   1997.32     0.1962     0.0038     0.0962     0.0420     0.2362     1.9121    67.2000     0.1690     0.3144
  212    4.220   1998.26     0.1937     0.0038     0.0985     0.0422     0.2348     1.9623    67.5200     0.1673     0.3328
  213    4.240   1999.22     0.1908     0.0037     0.0989     0.0424     0.2325     1.9321    67.8400     0.1646     0.3449
  214    4.260   2000.19     0.1897     0.0036     0.0968     0.0426     0.2308     1.8809    68.1600     0.1626     0.3394
  215    4.280   2001.10     0.1843     0.0035     0.0970     0.0428     0.2253     1.9036    68.4800     0.1568     0.3498
  216    4.300   2002.06     0.1810     0.0033     0.0989     0.0430     0.2222     1.7938    68.8000     0.1534     0.3593
  217    4.320   2003.02     0.1776     0.0034     0.0993     0.0432     0.2194     1.9029    69.1200     0.1502     0.3745
  218    4.340   2003.98     0.1789     0.0034     0.0980     0.0434     0.2204     1.8733    69.4400     0.1510     0.3667
  219    4.360   2004.93     0.1762     0.0034     0.0956     0.0436     0.2166     1.9435    69.7600     0.1468     0.3580
  220    4.380   2005.89     0.1745     0.0034     0.0949     0.0438     0.2144     1.9390    70.0800     0.1444     0.3557
  221    4.400   2006.86     0.1718     0.0032     0.0961     0.0440     0.2119     1.8752    70.4000     0.1415     0.3640
  222    4.420   2007.78     0.1737     0.0030     0.0983     0.0442     0.2147     1.7492    70.7200     0.1440     0.3710
  223    4.440   2008.75     0.1709     0.0028     0.1016     0.0444     0.2133     1.6427    71.0400     0.1422     0.3962
  224    4.460   2009.70     0.1736     0.0029     0.1047     0.0446     0.2172     1.6694    71.3600     0.1458     0.4061
  225    4.480   2010.66     0.1783     0.0028     0.1065     0.0448     0.2230     1.5814    71.6800     0.1513     0.4064
  226    4.500   2011.61     0.1799     0.0030     0.1048     0.0450     0.2239     1.6792    72.0000     0.1519     0.3936
  227    4.520   2012.56     0.1830     0.0030     0.1067     0.0452     0.2276     1.6564    72.3200     0.1552     0.3926
  228    4.540   2013.54     0.1852     0.0031     0.1033     0.0454     0.2293     1.6520    72.6400     0.1566     0.3797
  229    4.560   2014.46     0.1820     0.0032     0.0970     0.0456     0.2236     1.7253    72.9600     0.1506     0.3547
  230    4.580   2015.43     0.1786     0.0031     0.0943     0.0458     0.2187     1.7426    73.2800     0.1454     0.3404
  231    4.600   2016.35     0.1739     0.0033     0.0955     0.0460     0.2136     1.8928    73.6000     0.1400     0.3470
  232    4.620   2017.28     0.1694     0.0033     0.0982     0.0462     0.2103     1.9233    73.9200     0.1364     0.3750
  233    4.640   2018.30     0.1656     0.0031     0.1028     0.0464     0.2079     1.8642    74.2400     0.1337     0.4053
  234    4.660   2019.26     0.1707     0.0029     0.1078     0.0466     0.2154     1.7477    74.5600     0.1408     0.4242
  235    4.680   2020.22     0.1754     0.0028     0.1114     0.0468     0.2218     1.5990    74.8800     0.1469     0.4328
  236    4.700   2021.17     0.1803     0.0031     0.1143     0.0470     0.2278     1.7445    75.2000     0.1526     0.4327
  237    4.720   2022.12     0.1884     0.0035     0.1118     0.0472     0.2360     1.9087    75.5200     0.1605     0.4121
  238    4.740   2023.07     0.1909     0.0037     0.1037     0.0474     0.2355     1.9588    75.8400     0.1597     0.3684
  239    4.760   2024.05     0.1865     0.0040     0.0973     0.0476     0.2284     2.0955    76.1600     0.1522     0.3428
  240    4.780   2025.01     0.1874     0.0040     0.0902     0.0478     0.2258     2.1222    76.4800     0.1493     0.2923
  241    4.800   2026.00     0.1793     0.0043     0.0946     0.0480     0.2183     2.3644    76.8000     0.1415     0.3171
  242    4.820   2026.92     0.1732     0.0046     0.1004     0.0482     0.2145     2.6066    77.1200     0.1373     0.3646
  243    4.840   2027.89     0.1759     0.0047     0.1050     0.0484     0.2194     2.7234    77.4400     0.1419     0.3880
  244    4.860   2028.83     0.1771     0.0044     0.1096     0.0486     0.2225     2.4572    77.7600     0.1447     0.4103
  245    4.880   2029.79     0.1762     0.0042     0.1132     0.0488     0.2233     2.4150    78.0800     0.1452     0.4353
  246    4.900   2039.04     0.1786     0.0042     0.1146     0.0490     0.2265     2.3850    78.4000     0.1481     0.4399
  247    4.920   2053.43     0.1807     0.0043     0.1160     0.0492     0.2292     2.4538    78.7200     0.1505     0.4405
  248    4.940   2067.82     0.1829     0.0044     0.1161     0.0494     0.2320     2.4990    79.0400     0.1530     0.4410
  249    4.960   2070.50     0.1856     0.0044     0.1115     0.0496     0.2330     2.3948    79.3600     0.1537     0.4113
  250    4.980   2071.47     0.1884     0.0045     0.1110     0.0498     0.2349     2.4129    79.6800     0.1553     0.3933
  251    5.000   2072.45     0.1909     0.0046     0.1058     0.0500     0.2365     2.4236    80.0000     0.1565     0.3737
  252    5.020   2073.41     0.1875     0.0046     0.1029     0.0502     0.2309     2.4313    80.3200     0.1506     0.3524
  253    5.040   2074.33     0.1824     0.0045     0.1030     0.0504     0.2256     2.4511    80.6400     0.1450     0.3613
  254    5.060   2075.29     0.1810     0.0046     0.1058     0.0506     0.2251     2.5423    80.9600     0.1442     0.3785
  255    5.080   2076.28     0.1795     0.0046     0.1076     0.0508     0.2242     2.5723    81.2800     0.1429     0.3892
  256    5.100   2077.23     0.1801     0.0045     0.1093     0.0510     0.2266     2.4852    81.6000     0.1450     0.4119
  257    5.120   2078.17     0.1798     0.0044     0.1107     0.0512     0.2256     2.4721    81.9200     0.1436     0.4022
  258    5.140   2079.17     0.1833     0.0043     0.1162     0.0514     0.2314     2.3668    82.2400     0.1492     0.4234
  259    5.160   2080.12     0.1806     0.0042     0.1194     0.0516     0.2303     2.3168    82.5600     0.1477     0.4513
  260    5.180   2081.09     0.1805     0.0042     0.1214     0.0518     0.2313     2.3197    82.8800     0.1485     0.4664
  261    5.200   2082.04     0.1810     0.0042     0.1210     0.0520     0.2319     2.3181    83.2000     0.1487     0.4647
  262    5.220   2083.00     0.1791     0.0041     0.1203     0.0522     0.2296     2.2536    83.5200     0.1461     0.4662
  263    5.240   2083.95     0.1785     0.0042     0.1224     0.0524     0.2296     2.3671    83.8400     0.1458     0.4760
  264    5.260   2084.92     0.1800     0.0041     0.1189     0.0526     0.2305     2.2882    84.1600     0.1463     0.4629
  265    5.280   2085.91     0.1761     0.0040     0.1188     0.0528     0.2263     2.2436    84.4800     0.1418     0.4693
  266    5.300   2086.85     0.1723     0.0041     0.1114     0.0530     0.2202     2.3433    84.8000     0.1354     0.4499
  267    5.320   2087.78     0.1730     0.0041     0.1087     0.0532     0.2175     2.3976    85.1200     0.1323     0.3979
  268    5.340   2088.74     0.1647     0.0042     0.1113     0.0534     0.2107     2.4711    85.4400     0.1252     0.4488
  269    5.360   2089.69     0.1614     0.0038     0.1171     0.0536     0.2097     2.3913    85.7600     0.1239     0.4953
  270    5.380   2090.69     0.1638     0.0037     0.1226     0.0538     0.2147     2.2780    86.0800     0.1286     0.5231
  271    5.400   2091.65     0.1724     0.0038     0.1264     0.0540     0.2255     2.3071    86.4000     0.1391     0.5209
  272    5.420   2092.52     0.1699     0.0035     0.1258     0.0542     0.2231     2.0816    86.7200     0.1364     0.5310
  273    5.440   2093.38     0.1586     0.0037     0.1202     0.0544     0.2099     2.2515    87.0400     0.1228     0.5518
  274    5.460   2094.34     0.1650     0.0038     0.1201     0.0546     0.2146     2.3692    87.3600     0.1272     0.4993
  275    5.480   2095.27     0.1829     0.0038     0.1206     0.0548     0.2336     2.1311    87.6800     0.1459     0.4518
  276    5.500   2096.30     0.1898     0.0041     0.1195     0.0550     0.2402     2.1981    88.0000     0.1522     0.4275
  277    5.520   2097.25     0.1921     0.0042     0.1176     0.0552     0.2419     2.1929    88.3200     0.1536     0.4119
  278    5.540   2098.20     0.1943     0.0045     0.1158     0.0554     0.2423     2.3088    88.6400     0.1537     0.3837
  279    5.560   2099.17     0.1967     0.0045     0.1181     0.0556     0.2455     2.3198    88.9600     0.1565     0.3873
  280    5.580   2100.15     0.1955     0.0046     0.1159     0.0558     0.2448     2.3309    89.2800     0.1555     0.3963
  281    5.600   2101.11     0.1962     0.0047     0.1154     0.0560     0.2444     2.4086    89.6000     0.1548     0.3788
  282    5.620   2102.03     0.1982     0.0049     0.1168     0.0562     0.2471     2.4996    89.9200     0.1572     0.3835
  283    5.640   2103.03     0.2016     0.0048     0.1217     0.0564     0.2518     2.4057    90.2400     0.1616     0.3906
  284    5.660   2104.01     0.2050     0.0047     0.1280     0.0566     0.2579     2.3003    90.5600     0.1673     0.4136
  285    5.680   2104.91     0.2081     0.0045     0.1334     0.0568     0.2635     2.1505    90.8800     0.1726     0.4342
  286    5.700   2105.70     0.2132     0.0044     0.1381     0.0570     0.2706     2.0617    91.2000     0.1794     0.4434
  287    5.720   2106.51     0.2144     0.0044     0.1415     0.0572     0.2734     2.0581    91.5200     0.1819     0.4582
  288    5.740   2107.31     0.2133     0.0043     0.1396     0.0574     0.2727     2.0150    91.8400     0.1809     0.4655
  289    5.760   2108.26     0.2135     0.0044     0.1375     0.0576     0.2713     2.0474    92.1600     0.1792     0.4471
  290    5.780   2109.21     0.2138     0.0044     0.1345     0.0578     0.2705     2.0570    92.4800     0.1780     0.4329
  291    5.800   2110.16     0.2124     0.0043     0.1396     0.0580     0.2697     2.0293    92.8000     0.1769     0.4435
  292    5.820   2111.16     0.2137     0.0043     0.1452     0.0582     0.2744     2.0032    93.1200     0.1813     0.4763
  293    5.840   2112.12     0.2146     0.0043     0.1442     0.0584     0.2758     2.0229    93.4400     0.1824     0.4798
  294    5.860   2113.07     0.2157     0.0042     0.1413     0.0586     0.2748     1.9776    93.7600     0.1810     0.4536
  295    5.880   2114.01     0.2155     0.0046     0.1447     0.0588     0.2758     2.1407    94.0800     0.1817     0.4673
  296    5.900   2114.98     0.2146     0.0047     0.1467     0.0590     0.2759     2.1730    94.4000     0.1815     0.4797
  297    5.920   2115.90     0.2139     0.0047     0.1453     0.0592     0.2753     2.1940    94.7200     0.1806     0.4823
  298    5.940   2116.87     0.2139     0.0047     0.1436     0.0594     0.2744     2.1849    95.0400     0.1793     0.4719
  299    5.960   2117.81     0.2164     0.0046     0.1425     0.0596     0.2766     2.1148    95.3600     0.1812     0.4615
  300    5.980   2118.80     0.2124     0.0045     0.1461     0.0598     0.2729     2.1182    95.6800     0.1772     0.4750
  301    6.000   2119.69     0.2097     0.0047     0.1508     0.0600     0.2726     2.2459    96.0000     0.1766     0.5076
  302    6.020   2120.67     0.2070     0.0046     0.1547     0.0602     0.2713     2.2040    96.3200     0.1750     0.5312
  303    6.040   2121.64     0.2081     0.0042     0.1548     0.0604     0.2737     2.0365    96.6400     0.1770     0.5410
  304    6.060   2122.61     0.2081     0.0043     0.1554     0.0606     0.2732     2.0605    96.9600     0.1763     0.5363
  305    6.080   2123.56     0.2102     0.0044     0.1572     0.0608     0.2756     2.0968    97.2800     0.1784     0.5322
  306    6.100   2124.53     0.2128     0.0045     0.1574     0.0610     0.2795     2.1309    97.6000     0.1819     0.5381
  307    6.120   2125.49     0.2180     0.0045     0.1530     0.0612     0.2827     2.0676    97.9200     0.1848     0.5029
  308    6.140   2126.44     0.2247     0.0044     0.1520     0.0614     0.2884     1.9945    98.2400     0.1901     0.4745
  309    6.160   2127.40     0.2272     0.0044     0.1568     0.0616     0.2924     1.9601    98.5600     0.1938     0.4829
  310    6.180   2128.39     0.2275     0.0045     0.1584     0.0618     0.2940     1.9628    98.8800     0.1951     0.4946
  311    6.200   2129.36     0.2257     0.0046     0.1523     0.0620     0.2909     2.0463    99.2000     0.1917     0.4869
  312    6.220   2130.31     0.2279     0.0048     0.1495     0.0622     0.2910     2.0938    99.5200     0.1915     0.4597
  313    6.240   2131.23     0.2223     0.0049     0.1456     0.0624     0.2840     2.1626    99.8400     0.1841     0.4581
  314    6.260   2132.19     0.2183     0.0049     0.1420     0.0626     0.2787     2.2267   100.1600     0.1785     0.4547
  315    6.280   2133.21     0.2213     0.0049     0.1319     0.0628     0.2782     2.2067   100.4800     0.1777     0.4090
  316    6.300   2134.15     0.2149     0.0048     0.1311     0.0630     0.2694     2.2231   100.8000     0.1686     0.3957
  317    6.320   2135.12     0.2117     0.0050     0.1373     0.0632     0.2684     2.3733   101.1200     0.1673     0.4294
  318    6.340   2136.06     0.2097     0.0050     0.1413     0.0634     0.2686     2.3877   101.4400     0.1671     0.4593
  319    6.360   2137.02     0.2125     0.0048     0.1418     0.0636     0.2720     2.2438   101.7600     0.1702     0.4585
  320    6.380   2137.99     0.2128     0.0047     0.1453     0.0638     0.2732     2.2204   102.0800     0.1711     0.4672
  321    6.400   2138.91     0.2133     0.0046     0.1475     0.0640     0.2752     2.1623   102.4000     0.1728     0.4829
  322    6.420   2139.88     0.2117     0.0044     0.1494     0.0642     0.2740     2.0764   102.7200     0.1713     0.4917
  323    6.440   2140.86     0.2095     0.0045     0.1531     0.0644     0.2732     2.1466   103.0400     0.1701     0.5130
  324    6.460   2141.81     0.2086     0.0045     0.1572     0.0646     0.2740     2.1570   103.3600     0.1707     0.5344
  325    6.480   2142.77     0.2103     0.0048     0.1595     0.0648     0.2771     2.2704   103.6800     0.1734     0.5436
  326    6.500   2143.68     0.2130     0.0052     0.1459     0.0650     0.2763     2.4389   104.0000     0.1723     0.4969
  327    6.520   2144.68     0.2153     0.0055     0.1418     0.0652     0.2746     2.5774   104.3200     0.1703     0.4457
  328    6.540   2145.63     0.2154     0.0055     0.1424     0.0654     0.2753     2.5549   104.6400     0.1707     0.4519
  329    6.560   2146.60     0.2110     0.0053     0.1427     0.0656     0.2708     2.5033   104.9600     0.1659     0.4628
  330    6.580   2157.10     0.2066     0.0052     0.1435     0.0658     0.2668     2.4924   105.2800     0.1615     0.4804
  331    6.600   2182.50     0.2014     0.0051     0.1440     0.0660     0.2618     2.4277   105.6000     0.1562     0.4995
  332    6.620   2207.89     0.1962     0.0050     0.1452     0.0662     0.2568     2.5048   105.9200     0.1509     0.5186
  333    6.640   2213.68     0.1904     0.0048     0.1512     0.0664     0.2529     2.4503   106.2400     0.1466     0.5613
  334    6.660   2214.32     0.1935     0.0048     0.1539     0.0666     0.2581     2.5114   106.5600     0.1516     0.5756
  335    6.680   2214.97     0.1927     0.0045     0.1534     0.0668     0.2572     2.3246   106.8800     0.1503     0.5773
  336    6.700   2215.59     0.1897     0.0044     0.1561     0.0670     0.2548     2.2852   107.2000     0.1476     0.5969
  337    6.720   2216.25     0.1888     0.0050     0.1588     0.0672     0.2551     2.6509   107.5200     0.1476     0.6148
  338    6.740   2216.92     0.1897     0.0055     0.1568     0.0674     0.2562     2.9340   107.8400     0.1484     0.6121
  339    6.760   2217.59     0.1869     0.0059     0.1586     0.0676     0.2532     3.1674   108.1600     0.1450     0.6218
  340    6.780   2218.22     0.1860     0.0058     0.1612     0.0678     0.2534     3.0811   108.4800     0.1450     0.6395
  341    6.800   2218.86     0.1870     0.0056     0.1648     0.0680     0.2555     2.8983   108.8000     0.1467     0.6492
  342    6.820   2219.50     0.1971     0.0054     0.1692     0.0682     0.2675     2.7154   109.1200     0.1584     0.6277
  343    6.840   2220.16     0.2191     0.0050     0.1729     0.0684     0.2927     2.5147   109.4400     0.1832     0.5831
  344    6.860   2220.75     0.2397     0.0056     0.1642     0.0686     0.3098     2.4902   109.7600     0.2001     0.4924
  345    6.880   2226.33     0.2487     0.0061     0.1562     0.0688     0.3155     2.4798   110.0800     0.2054     0.4386
  346    6.900   2239.24     0.2517     0.0064     0.1483     0.0690     0.3152     2.5830   110.4000     0.2048     0.4003
  347    6.920   2252.15     0.2547     0.0064     0.1404     0.0692     0.3149     2.6056   110.7200     0.2041     0.3619
  348    6.940   2263.79     0.2555     0.0059     0.1360     0.0694     0.3126     2.3715   111.0400     0.2016     0.3307
  349    6.960   2277.96     0.2430     0.0053     0.1380     0.0696     0.3007     2.2074   111.3600     0.1893     0.3584
  350    6.980   2300.70     0.2342     0.0053     0.1411     0.0698     0.2928     2.1854   111.6800     0.1811     0.3848
  351    7.000   2306.90     0.2224     0.0050     0.1535     0.0700     0.2850     2.2213   112.0000     0.1730     0.4578
  352    7.020   2307.93     0.2156     0.0047     0.1585     0.0702     0.2821     2.1699   112.3200     0.1698     0.5190
  353    7.040   2308.89     0.2168     0.0046     0.1505     0.0704     0.2814     2.1497   112.6400     0.1688     0.4943
  354    7.060   2309.86     0.2171     0.0045     0.1501     0.0706     0.2796     2.0734   112.9600     0.1667     0.4702
  355    7.080   2310.81     0.2132     0.0046     0.1540     0.0708     0.2777     2.1466   113.2800     0.1644     0.5030
  356    7.100   2311.75     0.2144     0.0047     0.1533     0.0710     0.2788     2.1857   113.6000     0.1652     0.4977
  357    7.120   2312.72     0.2142     0.0049     0.1544     0.0712     0.2786     2.2792   113.9200     0.1647     0.4992
  358    7.140   2313.73     0.2193     0.0050     0.1587     0.0714     0.2848     2.2947   114.2400     0.1705     0.4961
  359    7.160   2314.68     0.2183     0.0050     0.1605     0.0716     0.2858     2.2744   114.5600     0.1712     0.5195
  360    7.180   2315.66     0.2172     0.0049     0.1617     0.0718     0.2848     2.2679   114.8800     0.1699     0.5249
  361    7.200   2316.65     0.2201     0.0052     0.1642     0.0720     0.2887     2.3931   115.2000     0.1735     0.5271
  362    7.220   2317.55     0.2228     0.0052     0.1667     0.0722     0.2928     2.3531   115.5200     0.1772     0.5323
  363    7.240   2318.53     0.2229     0.0050     0.1642     0.0724     0.2923     2.2619   115.8400     0.1764     0.5265
  364    7.260   2319.49     0.2212     0.0050     0.1583     0.0726     0.2888     2.2323   116.1600     0.1726     0.5109
  365    7.280   2320.47     0.2227     0.0050     0.1580     0.0728     0.2886     2.2515   116.4800     0.1721     0.4895
  366    7.300   2321.43     0.2216     0.0050     0.1641     0.0730     0.2897     2.2388   116.8000     0.1729     0.5145
  367    7.320   2322.41     0.2223     0.0053     0.1685     0.0732     0.2924     2.3688   117.1200     0.1753     0.5356
  368    7.340   2323.36     0.2230     0.0051     0.1705     0.0734     0.2945     2.2748   117.4400     0.1771     0.5474
  369    7.360   2324.29     0.2226     0.0050     0.1673     0.0736     0.2936     2.2518   117.7600     0.1758     0.5427
  370    7.380   2325.28     0.2220     0.0052     0.1704     0.0738     0.2928     2.3628   118.0800     0.1748     0.5428
  371    7.400   2326.26     0.2253     0.0054     0.1743     0.0740     0.2980     2.3952   118.4000     0.1796     0.5514
  372    7.420   2327.19     0.2259     0.0054     0.1753     0.0742     0.2994     2.3663   118.7200     0.1807     0.5586
  373    7.440   2328.17     0.2269     0.0052     0.1735     0.0744     0.3004     2.3150   119.0400     0.1813     0.5539
  374    7.460   2329.14     0.2283     0.0055     0.1706     0.0746     0.3003     2.4251   119.3600     0.1810     0.5352
  375    7.480   2330.06     0.2272     0.0057     0.1691     0.0748     0.2984     2.4995   119.6800     0.1787     0.5301
  376    7.500   2331.03     0.2243     0.0057     0.1699     0.0750     0.2953     2.5384   120.0000     0.1753     0.5372
  377    7.520   2332.00     0.2233     0.0054     0.1690     0.0752     0.2950     2.4065   120.3200     0.1746     0.5457
  378    7.540   2332.98     0.2250     0.0052     0.1673     0.0754     0.2953     2.3559   120.6400     0.1746     0.5259
  379    7.560   2333.93     0.2265     0.0052     0.1674     0.0756     0.2967     2.2842   120.9600     0.1757     0.5204
  380    7.580   2334.90     0.2231     0.0053     0.1703     0.0758     0.2941     2.3596   121.2800     0.1729     0.5401
  381    7.600   2335.86     0.2225     0.0051     0.1744     0.0760     0.2951     2.2686   121.6000     0.1735     0.5575
  382    7.620   2336.83     0.2233     0.0049     0.1766     0.0762     0.2976     2.1892   121.9200     0.1757     0.5726
  383    7.640   2337.80     0.2201     0.0051     0.1770     0.0764     0.2945     2.2897   122.2400     0.1723     0.5852
  384    7.660   2338.77     0.2125     0.0051     0.1768     0.0766     0.2868     2.3738   122.5600     0.1642     0.6101
  385    7.680   2339.70     0.2065     0.0050     0.1771     0.0768     0.2810     2.3925   122.8800     0.1581     0.6350
  386    7.700   2340.70     0.2019     0.0047     0.1724     0.0770     0.2746     2.3327   123.2000     0.1514     0.6336
  387    7.720   2341.68     0.2018     0.0044     0.1721     0.0772     0.2741     2.1698   123.5200     0.1506     0.6303
  388    7.740   2342.62     0.2036     0.0047     0.1740     0.0774     0.2763     2.2925   123.8400     0.1524     0.6270
  389    7.760   2343.60     0.2024     0.0048     0.1746     0.0776     0.2758     2.3837   124.1600     0.1517     0.6410
  390    7.780   2344.56     0.1964     0.0048     0.1724     0.0778     0.2696     2.4011   124.4800     0.1451     0.6646
  391    7.800   2345.55     0.1932     0.0045     0.1688     0.0780     0.2642     2.3259   124.8000     0.1394     0.6527
  392    7.820   2346.48     0.1939     0.0046     0.1668     0.0782     0.2639     2.3672   125.1200     0.1388     0.6376
  393    7.840   2347.44     0.1920     0.0048     0.1740     0.0784     0.2642     2.4970   125.4400     0.1387     0.6740
  394    7.860   2348.45     0.1935     0.0049     0.1777     0.0786     0.2678     2.5249   125.7600     0.1420     0.6914
  395    7.880   2349.40     0.1945     0.0048     0.1785     0.0788     0.2695     2.4489   126.0800     0.1435     0.6963
  396    7.900   2350.35     0.1959     0.0050     0.1785     0.0790     0.2708     2.5521   126.4000     0.1444     0.6872
  397    7.920   2351.30     0.1958     0.0053     0.1810     0.0792     0.2715     2.7318   126.7200     0.1448     0.6976
  398    7.940   2352.28     0.1996     0.0053     0.1795     0.0794     0.2757     2.6546   127.0400     0.1487     0.6855
  399    7.960   2353.24     0.2012     0.0052     0.1744     0.0796     0.2753     2.5963   127.3600     0.1480     0.6540
  400    7.980   2354.21     0.2018     0.0054     0.1730     0.0798     0.2745     2.6620   127.6800     0.1468     0.6346
  401    8.000   2355.16     0.1993     0.0052     0.1752     0.0800     0.2722     2.5561   128.0000     0.1442     0.6493
  402    8.020   2356.16     0.1928     0.0050     0.1796     0.0802     0.2678     2.5739   128.3200     0.1395     0.7063
  403    8.040   2357.12     0.1880     0.0048     0.1804     0.0804     0.2636     2.5639   128.6400     0.1350     0.7385
  404    8.060   2358.07     0.1819     0.0045     0.1831     0.0806     0.2583     2.4585   128.9600     0.1294     0.7843
  405    8.080   2359.03     0.1789     0.0042     0.1872     0.0808     0.2568     2.3465   129.2800     0.1275     0.8214
  406    8.100   2360.03     0.1797     0.0041     0.1943     0.0810     0.2601     2.3082   129.6000     0.1305     0.8471
  407    8.120   2360.98     0.1948     0.0040     0.2034     0.0812     0.2789     2.0987   129.9200     0.1489     0.7995
  408    8.140   2361.95     0.2071     0.0042     0.2104     0.0814     0.2946     2.0151   130.2400     0.1644     0.7722
  409    8.160   2362.90     0.2132     0.0046     0.2090     0.0816     0.3017     2.2022   130.5600     0.1711     0.7546
  410    8.180   2363.89     0.2270     0.0047     0.2015     0.0818     0.3135     2.0809   130.8800     0.1826     0.6796
  411    8.200   2364.85     0.2313     0.0046     0.1995     0.0820     0.3146     1.9873   131.2000     0.1834     0.6339
  412    8.220   2365.82     0.2384     0.0045     0.2013     0.0822     0.3229     1.9108   131.5200     0.1914     0.6219
  413    8.240   2366.79     0.2394     0.0046     0.2059     0.0824     0.3250     1.9048   131.8400     0.1931     0.6286
  414    8.260   2367.80     0.2364     0.0043     0.2111     0.0826     0.3244     1.8021   132.1600     0.1923     0.6607
  415    8.280   2368.76     0.2351     0.0044     0.2103     0.0828     0.3240     1.8589   132.4800     0.1916     0.6734
  416    8.300   2369.71     0.2293     0.0044     0.2069     0.0830     0.3162     1.8987   132.8000     0.1834     0.6753
  417    8.320   2370.65     0.2305     0.0047     0.2089     0.0832     0.3177     2.0525   133.1200     0.1845     0.6744
  418    8.340   2371.63     0.2372     0.0049     0.2109     0.0834     0.3256     2.0759   133.4400     0.1922     0.6622
  419    8.360   2372.63     0.2351     0.0049     0.2036     0.0836     0.3220     2.0948   133.7600     0.1882     0.6548
  420    8.380   2373.61     0.2294     0.0050     0.2002     0.0838     0.3136     2.1618   134.0800     0.1795     0.6494
  421    8.400   2374.57     0.2272     0.0051     0.2005     0.0840     0.3117     2.2595   134.4000     0.1773     0.6600
  422    8.420   2375.53     0.2301     0.0052     0.1968     0.0842     0.3122     2.2416   134.7200     0.1775     0.6270
  423    8.440   2376.52     0.2262     0.0051     0.1994     0.0844     0.3101     2.2342   135.0400     0.1751     0.6598
  424    8.460   2377.46     0.2225     0.0051     0.1969     0.0846     0.3055     2.2820   135.3600     0.1702     0.6645
  425    8.480   2378.43     0.2171     0.0052     0.1951     0.0848     0.2992     2.3598   135.6800     0.1636     0.6766
  426    8.500   2379.40     0.2146     0.0050     0.1948     0.0850     0.2969     2.3383   136.0000     0.1609     0.6885
  427    8.520   2380.37     0.2143     0.0051     0.1925     0.0852     0.2949     2.3757   136.3200     0.1585     0.6728
  428    8.540   2381.32     0.2118     0.0049     0.1957     0.0854     0.2940     2.3100   136.6400     0.1573     0.7004
  429    8.560   2382.28     0.2100     0.0045     0.2006     0.0856     0.2937     2.1191   136.9600     0.1568     0.7250
  430    8.580   2383.24     0.2101     0.0041     0.2032     0.0858     0.2951     1.9609   137.2800     0.1578     0.7388
  431    8.600   2384.24     0.2052     0.0038     0.2060     0.0860     0.2912     1.8572   137.6000     0.1536     0.7738
  432    8.620   2385.17     0.2070     0.0037     0.2094     0.0862     0.2946     1.7771   137.9200     0.1567     0.7809
  433    8.640   2386.13     0.2125     0.0037     0.2096     0.0864     0.3004     1.7234   138.2400     0.1622     0.7584
  434    8.660   2387.14     0.2159     0.0037     0.2036     0.0866     0.3025     1.7404   138.5600     0.1639     0.7296
  435    8.680   2388.10     0.2217     0.0039     0.2007     0.0868     0.3062     1.8017   138.8800     0.1673     0.6838
  436    8.700   2389.09     0.2320     0.0041     0.1957     0.0870     0.3149     1.7960   139.2000     0.1757     0.6278
  437    8.720   2390.05     0.2438     0.0045     0.1852     0.0872     0.3229     1.8759   139.5200     0.1833     0.5509
  438    8.740   2391.01     0.2626     0.0048     0.1781     0.0874     0.3387     1.8895   139.8400     0.1989     0.4718
  439    8.760   2391.99     0.2556     0.0052     0.1721     0.0876     0.3280     2.0362   140.1600     0.1878     0.4507
  440    8.780   2392.94     0.2515     0.0055     0.1844     0.0878     0.3272     2.1829   140.4800     0.1867     0.4945
  441    8.800   2393.89     0.2550     0.0054     0.1891     0.0880     0.3339     2.0939   140.8000     0.1931     0.5172
  442    8.820   2394.85     0.2521     0.0049     0.1916     0.0882     0.3320     1.9305   141.1200     0.1909     0.5347
  443    8.840   2395.83     0.2449     0.0050     0.1964     0.0884     0.3269     2.0155   141.4400     0.1854     0.5760
  444    8.860   2407.82     0.2493     0.0054     0.2052     0.0886     0.3342     2.2396   141.7600     0.1924     0.5899
  445    8.880   2425.83     0.2596     0.0052     0.2139     0.0888     0.3482     2.1401   142.0800     0.2061     0.5921
  446    8.900   2441.31     0.2709     0.0041     0.2202     0.0890     0.3629     1.6098   142.4000     0.2205     0.5893
  447    8.920   2442.24     0.2768     0.0027     0.2224     0.0892     0.3701     0.9640   142.7200     0.2274     0.5845
  448    8.940   2443.21     0.2748     0.0028     0.2261     0.0894     0.3685     1.0297   143.0400     0.2254     0.5923
  449    8.960   2444.19     0.2894     0.0037     0.2316     0.0896     0.3864     1.3248   143.3600     0.2430     0.5817
  450    8.980   2445.14     0.3142     0.0043     0.2309     0.0898     0.4121     1.4200   143.6800     0.2684     0.5334
  451    9.000   2446.11     0.3223     0.0042     0.2085     0.0900     0.4170     1.3008   144.0000     0.2730     0.4962
  452    9.020   2447.11     0.3720     0.0043     0.1753     0.0902     0.4495     1.2150   144.3200     0.3052     0.3098
  453    9.040   2448.05     0.3975     0.0046     0.1771     0.0904     0.4696     1.2887   144.6400     0.3249     0.2501
  454    9.060   2449.01     0.3480     0.0046     0.1982     0.0906     0.4280     1.4049   144.9600     0.2831     0.3546
  455    9.080   2449.95     0.2918     0.0046     0.2178     0.0908     0.3809     1.5210   145.2800     0.2357     0.5159
  456    9.100   2450.92     0.2828     0.0046     0.2336     0.0910     0.3790     1.6257   145.6000     0.2334     0.5918
  457    9.120   2451.88     0.2932     0.0044     0.2397     0.0912     0.3931     1.5089   145.9200     0.2472     0.5941
  458    9.140   2452.86     0.2946     0.0044     0.2454     0.0914     0.3972     1.4804   146.2400     0.2509     0.6089
  459    9.160   2453.83     0.2940     0.0044     0.2490     0.0916     0.3980     1.5006   146.5600     0.2515     0.6209
  460    9.180   2454.81     0.2933     0.0046     0.2525     0.0918     0.3989     1.5501   146.8800     0.2520     0.6329
  461    9.200   2455.76     0.3000     0.0048     0.2538     0.0920     0.4060     1.5942   147.2000     0.2588     0.6202
  462    9.220   2456.72     0.3083     0.0049     0.2478     0.0922     0.4133     1.6122   147.5200     0.2658     0.5938
  463    9.240   2457.70     0.3067     0.0052     0.2459     0.0924     0.4104     1.6805   147.8400     0.2626     0.5887
  464    9.260   2458.66     0.2996     0.0049     0.2447     0.0926     0.4029     1.6436   148.1600     0.2547     0.6019
  465    9.280   2459.61     0.2918     0.0050     0.2429     0.0928     0.3938     1.6940   148.4800     0.2453     0.6111
  466    9.300   2460.61     0.2908     0.0056     0.2510     0.0930     0.3948     1.9427   148.8000     0.2460     0.6293
  467    9.320   2461.56     0.3209     0.0060     0.2592     0.0932     0.4289     1.9480   149.1200     0.2797     0.5858
  468    9.340   2462.52     0.3559     0.0062     0.2558     0.0934     0.4642     1.7956   149.4400     0.3147     0.5229
  469    9.360   2463.46     0.3793     0.0053     0.2480     0.0936     0.4848     1.4359   149.7600     0.3350     0.4705
  470    9.380   2464.46     0.3767     0.0051     0.2369     0.0938     0.4779     1.3442   150.0800     0.3278     0.4491
  471    9.400   2465.41     0.3626     0.0052     0.2346     0.0940     0.4608     1.4261   150.4000     0.3104     0.4506
  472    9.420   2466.35     0.3559     0.0049     0.2386     0.0942     0.4557     1.3685   150.7200     0.3049     0.4698
  473    9.440   2467.31     0.3388     0.0045     0.2387     0.0944     0.4401     1.3048   151.0400     0.2891     0.5083
  474    9.460   2468.27     0.3258     0.0038     0.2342     0.0946     0.4252     1.1462   151.3600     0.2739     0.5194
  475    9.480   2469.26     0.3180     0.0032     0.2356     0.0948     0.4161     0.9939   151.6800     0.2644     0.5252
  476    9.500   2470.21     0.2935     0.0030     0.2438     0.0950     0.3948     0.9861   152.0000     0.2428     0.6022
  477    9.520   2471.19     0.2820     0.0034     0.2531     0.0952     0.3873     1.2022   152.3200     0.2350     0.6620
  478    9.540   2472.16     0.2952     0.0041     0.2583     0.0954     0.4034     1.4010   152.6400     0.2508     0.6469
  479    9.560   2473.14     0.3115     0.0045     0.2525     0.0956     0.4191     1.4725   152.9600     0.2661     0.6031
  480    9.580   2474.05     0.3234     0.0047     0.2454     0.0958     0.4275     1.4655   153.2800     0.2742     0.5541
  481    9.600   2475.07     0.3257     0.0052     0.2368     0.0960     0.4262     1.6080   153.6000     0.2726     0.5256
  482    9.620   2475.97     0.3149     0.0054     0.2230     0.0962     0.4110     1.6686   153.9200     0.2571     0.5163
  483    9.640   2476.97     0.2907     0.0054     0.2183     0.0964     0.3819     1.8381   154.2400     0.2276     0.5301
  484    9.660   2477.93     0.2776     0.0057     0.2280     0.0966     0.3719     2.0505   154.5600     0.2173     0.5885
  485    9.680   2478.94     0.2746     0.0057     0.2395     0.0968     0.3737     2.0745   154.8800     0.2188     0.6356
  486    9.700   2479.89     0.2799     0.0055     0.2485     0.0970     0.3830     1.9655   155.2000     0.2278     0.6516
  487    9.720   2480.85     0.2828     0.0057     0.2535     0.0972     0.3888     2.0025   155.5200     0.2333     0.6655
  488    9.740   2481.84     0.2786     0.0063     0.2582     0.0974     0.3861     2.2586   155.8400     0.2303     0.6884
  489    9.760   2482.78     0.2802     0.0061     0.2637     0.0976     0.3900     2.1831   156.1600     0.2338     0.7002
  490    9.780   2483.73     0.2831     0.0044     0.2693     0.0978     0.3954     1.5611   156.4800     0.2389     0.7091
  491    9.800   2484.65     0.2887     0.0013     0.2742     0.0980     0.4031     0.4541   156.8000     0.2463     0.7081
  492    9.820   2485.65     0.2996     0.0035     0.2837     0.0982     0.4173     1.1863   157.1200     0.2601     0.6995
  493    9.840   2486.64     0.3242     0.0071     0.3013     0.0984     0.4474     2.2776   157.4400     0.2899     0.6723
  494    9.860   2487.64     0.6313     0.0106     0.2930     0.0986     0.7599     2.3377   157.7600     0.6022     0.3526
  495    9.880   2488.59     1.4653     0.0134     0.2190     0.0988     1.5722     1.1934   158.0800     1.4142     0.1147
  496    9.900   2489.53     2.4919     0.0191     0.1212     0.0990     2.5522     0.8692   158.4000     2.3938     0.0201
  497    9.920   2490.51     3.2111     0.0293     0.1030     0.0992     3.2559     0.9434   158.7200     3.0972     0.0024
  498    9.940   2491.44     2.9029     0.0451     0.1042     0.0994     2.9457     1.4603   159.0400     2.7866     0.0009
  499    9.960   2492.40     2.1514     0.0512     0.1112     0.0996     2.1970     2.2070   159.3600     2.0377     0.0046
  500    9.980   2493.42     1.5200     0.0368     0.1303     0.0998     1.5716     2.2513   159.6800     1.4119     0.0168
  501   10.000   2494.38     1.1257     0.0254     0.1512     0.1000     1.1862     2.1164   160.0000     1.0262     0.0435
  502   10.020   2495.33     0.9476     0.0207     0.1712     0.1002     1.0166     2.1315   160.3200     0.8563     0.0750
  503   10.040   2496.29     0.8745     0.0190     0.1749     0.1004     0.9475     2.1499   160.6400     0.7869     0.0933
  504   10.060   2497.25     1.2902     0.0216     0.2841     0.1006     1.3726     1.8711   160.9600     1.2116     0.0776
  505   10.080   2498.29     4.6395     0.0258     0.2310     0.1008     4.7656     0.6855   161.2800     4.6044     0.0468
  506   10.100   2499.27     8.3736     0.0317     0.0620     0.1010     8.4096     0.4042   161.6000     8.2480    -0.0017
  507   10.120   2500.24    10.0288     0.0402     0.0545     0.1012    10.0512     0.4049   161.9200     9.8893    -0.0048
  508   10.140   2501.25    10.8590     0.0490     0.0604     0.1014    10.8834     0.4546   162.2400    10.7211    -0.0040
  509   10.160   2502.22    11.6206     0.0591     0.0705     0.1016    11.6497     0.5135   162.5600    11.4871    -0.0028
  510   10.180   2503.25    12.4086     0.0670     0.0728     0.1018    12.4380     0.5450   162.8800    12.2751    -0.0026
  511   10.200   2504.28    13.1864     0.0764     0.0932     0.1020    13.2218     0.5840   163.2000    13.0586    -0.0014
  512   10.220   2505.25    13.6981     0.0924     0.0923     0.1022    13.7381     0.6776   163.5200    13.5745    -0.0005
  513   10.240   2506.25    13.8060     0.1079     0.0932     0.1024    13.8456     0.7822   163.8400    13.6818    -0.0006
  514   10.260   2507.22    14.0545     0.1139     0.0797     0.1026    14.0893     0.8151   164.1600    13.9251    -0.0014
  515   10.280   2508.22    14.4958     0.1089     0.0757     0.1028    14.5287     0.7561   164.4800    14.3642    -0.0017
  516   10.300   2509.18    14.6550     0.1037     0.0855     0.1030    14.6869     0.7083   164.8000    14.5221    -0.0019
  517   10.320   2510.16    14.5135     0.0998     0.0883     0.1032    14.5527     0.6857   165.1200    14.3876    -0.0007
  518   10.340   2511.16    14.3333     0.0950     0.0781     0.1034    14.3679     0.6613   165.4400    14.2025    -0.0015
  519   10.360   2512.16    14.1942     0.0900     0.0740     0.1036    14.2257     0.6329   165.7600    14.0600    -0.0020
  520   10.380   2513.10    14.1240     0.0843     0.0737     0.1038    14.1552     0.5960   166.0800    13.9892    -0.0021
  521   10.400   2514.08    14.1126     0.0792     0.0670     0.1040    14.1432     0.5615   166.4000    13.9768    -0.0022
  522   10.420   2515.08    13.9468     0.0764     0.0486     0.1042    13.9703     0.5456   166.7200    13.8036    -0.0035
  523   10.440   2516.08    13.2516     0.0740     0.0240     0.1044    13.2646     0.5500   167.0400    13.0976    -0.0056
  524   10.460   2517.08    12.2199     0.0739     0.0107     0.1046    12.2251     0.5892   167.3600    12.0577    -0.0077
  525   10.480   2518.04    10.9213     0.0768     0.0193     0.1048    10.9283     0.6757   167.6800    10.7606    -0.0082
  526   10.500   2519.04     9.4124     0.0693     0.0220     0.1050     9.4208     0.7044   168.0000     9.2528    -0.0092
  527   10.520   2520.00     8.3235     0.0611     0.0320     0.1052     8.3356     0.7098   168.3200     8.1672    -0.0094
  528   10.540   2520.97     7.2191     0.0556     0.0344     0.1054     7.2333     0.7342   168.6400     7.0646    -0.0102
  529   10.560   2521.93     5.5639     0.0549     0.0455     0.1056     5.5817     0.8947   168.9600     5.4128    -0.0117
  530   10.580   2522.83     4.2466     0.0557     0.0475     0.1058     4.2670     1.2659   169.2800     4.0977    -0.0140
  531   10.600   2523.85     3.4670     0.0555     0.0404     0.1060     3.4844     1.6304   169.6000     3.3148    -0.0196
  532   10.620   2524.83     2.7749     0.0553     0.0454     0.1062     2.7930     1.9934   169.9200     2.6231    -0.0241
  533   10.640   2525.81     2.1341     0.0559     0.0585     0.1064     2.1563     2.4668   170.2400     1.9861    -0.0269
  534   10.660   2526.78     1.6314     0.0601     0.0733     0.1066     1.6603     3.5145   170.5600     1.4898    -0.0254
  535   10.680   2527.75     1.3173     0.0586     0.0961     0.1068     1.3546     4.3161   170.8800     1.1837    -0.0151
  536   10.700   2529.80     1.1155     0.0522     0.1072     0.1070     1.1590     4.2873   171.2000     0.9878    -0.0009
  537   10.720   2532.60     0.9421     0.0438     0.1176     0.1072     0.9899     3.8805   171.5200     0.8184     0.0122
  538   10.740   2535.24     0.7719     0.0357     0.1313     0.1074     0.8245     3.9358   171.8400     0.6526     0.0273
  539   10.760   2536.18     0.6186     0.0275     0.1502     0.1076     0.6765     3.9912   172.1600     0.5044     0.0604
  540   10.780   2537.17     0.5813     0.0200     0.2568     0.1078     0.6686     3.4638   172.4800     0.4961     0.2006
  541   10.800   2538.19     0.6676     0.0143     0.3005     0.1080     0.7927     2.2253   172.8000     0.6199     0.3062
  542   10.820   2539.15     0.6898     0.0114     0.3045     0.1082     0.8187     1.6425   173.1200     0.6455     0.3077
  543   10.840   2553.49     0.5915     0.0116     0.2974     0.1084     0.7174     1.6763   173.4400     0.5440     0.3776
  544   10.860   2567.92     0.4926     0.0116     0.2904     0.1086     0.6156     1.6794   173.7600     0.4418     0.4478
  545   10.880   2581.73     0.3966     0.0097     0.2947     0.1088     0.5172     2.0107   174.0800     0.3431     0.5198
  546   10.900   2582.65     0.3682     0.0082     0.3181     0.1090     0.4993     2.1951   174.4000     0.3249     0.6249
  547   10.920   2583.63     0.3798     0.0086     0.3342     0.1092     0.5175     2.2708   174.7200     0.3428     0.6384
  548   10.940   2584.59     0.4381     0.0112     0.3532     0.1094     0.5836     2.6508   175.0400     0.4085     0.5809
  549   10.960   2585.58     0.6832     0.0132     0.3644     0.1096     0.8361     2.2169   175.3600     0.6607     0.3924
  550   10.980   2586.61     2.2505     0.0204     0.3038     0.1098     2.3925     1.1751   175.6800     2.2168     0.1077
  551   11.000   2587.56     4.9177     0.0330     0.1630     0.1100     5.0181     0.7309   176.0000     4.8421     0.0276
  552   11.020   2588.58     7.3302     0.0454     0.0014     0.1102     7.3423     0.6581   176.3200     7.1660    -0.0111
  553   11.040   2589.55     8.7567     0.0559    -0.0181     0.1104     8.7478     0.6518   176.6400     8.5712    -0.0153
  554   11.060   2590.53     9.7450     0.0662     0.0203     0.1106     9.7485     0.6870   176.9600     9.5716    -0.0107
  555   11.080   2591.52    10.2331     0.0785     0.0457     0.1108    10.2489     0.7695   177.2800    10.0716    -0.0073
  556   11.100   2592.52    10.5472     0.0865     0.0558     0.1110    10.5703     0.8218   177.6000    10.3927    -0.0054
  557   11.120   2593.51    10.6340     0.0861     0.0484     0.1112    10.6559     0.8119   177.9200    10.4779    -0.0057
  558   11.140   2594.48    10.9571     0.0834     0.0373     0.1114    10.9742     0.7653   178.2400    10.7959    -0.0066
  559   11.160   2595.50    11.3992     0.0802     0.0430     0.1116    11.4155     0.7079   178.5600    11.2369    -0.0065
  560   11.180   2596.48    11.6104     0.0773     0.0636     0.1118    11.6341     0.6672   178.8800    11.4553    -0.0048
  561   11.200   2597.48    11.5360     0.0758     0.0539     0.1120    11.5641     0.6560   179.2000    11.3849    -0.0040
  562   11.220   2598.48    11.3186     0.0728    -0.0045     0.1122    11.3239     0.6408   179.5200    11.1444    -0.0089
  563   11.240   2599.44    10.9244     0.0677    -0.0260     0.1124    10.9132     0.6150   179.8400    10.7334    -0.0130
  564   11.260   2600.43    10.4085     0.0655    -0.0196     0.1126    10.4000     0.6227   180.1600    10.2199    -0.0130
  565   11.280   2601.40     9.9423     0.0686    -0.0188     0.1128     9.9336     0.6851   180.4800     9.7531    -0.0137
  566   11.300   2602.40     9.4761     0.0702    -0.0224     0.1130     9.4663     0.7337   180.8000     9.2855    -0.0147
  567   11.320   2603.41     9.0259     0.0728     0.0024     0.1132     9.0222     0.7959   181.1200     8.8410    -0.0138
  568   11.340   2604.39     8.5842     0.0678     0.0320     0.1134     8.5940     0.7747   181.4400     8.4126    -0.0107
  569   11.360   2605.37     8.0831     0.0591     0.0520     0.1136     8.1013     0.7190   181.7600     7.9196    -0.0089
  570   11.380   2606.35     7.6934     0.0520     0.0624     0.1138     7.7185     0.6677   182.0800     7.5364    -0.0072
  571   11.400   2607.31     7.3801     0.0464     0.0701     0.1140     7.4120     0.6232   182.4000     7.2296    -0.0052
  572   11.420   2608.27     7.2367     0.0387     0.0083     0.1142     7.2516     0.5322   182.7200     7.0689    -0.0111
  573   11.440   2609.21     7.0480     0.0314    -0.0229     0.1144     7.0460     0.4430   183.0400     6.8630    -0.0174
  574   11.460   2610.21     7.0174     0.0273    -0.0704     0.1146     6.9903     0.3892   183.3600     6.8069    -0.0263
  575   11.480   2611.21     7.0679     0.0277    -0.0693     0.1148     7.0383     0.3927   183.6800     6.8546    -0.0270
  576   11.500   2612.20     6.9119     0.0281    -0.0563     0.1150     6.8840     0.4031   184.0000     6.7000    -0.0271
  577   11.520   2613.18     6.8032     0.0279    -0.0479     0.1152     6.7814     0.4080   184.3200     6.5971    -0.0253
  578   11.540   2614.13     6.7715     0.0272    -0.0446     0.1154     6.7512     0.4012   184.6400     6.5665    -0.0249
  579   11.560   2615.13     6.6907     0.0259    -0.0356     0.1156     6.6750     0.3862   184.9600     6.4901    -0.0235
  580   11.580   2616.09     6.5577     0.0259    -0.0470     0.1158     6.5403     0.3917   185.2800     6.3550    -0.0248
  581   11.600   2617.04     6.2898     0.0278    -0.0454     0.1160     6.2702     0.4385   185.6000     6.0846    -0.0267
  582   11.620   2618.04     5.8921     0.0304    -0.0474     0.1162     5.8718     0.5078   185.9200     5.6859    -0.0289
  583   11.640   2619.03     5.4017     0.0324    -0.0332     0.1164     5.3845     0.5834   186.2400     5.1983    -0.0303
  584   11.660   2620.03     4.7597     0.0366    -0.0182     0.1166     4.7515     0.7416   186.5600     4.5650    -0.0298
  585   11.680   2621.00     4.0671     0.0436    -0.0109     0.1168     4.0612     1.0275   186.8800     3.8743    -0.0339
  586   11.700   2621.97     3.4051     0.0497     0.0028     0.1170     3.4037     1.3893   187.2000     3.2165    -0.0374
  587   11.720   2622.93     2.7486     0.0532     0.0099     0.1172     2.7524     1.8166   187.5200     2.5648    -0.0424
  588   11.740   2623.88     2.2124     0.0518     0.0250     0.1174     2.2204     2.2089   187.8400     2.0326    -0.0484
  589   11.760   2624.88     1.8058     0.0475     0.0489     0.1176     1.8225     2.4948   188.1600     1.6343    -0.0476
  590   11.780   2625.84     1.5641     0.0421     0.0917     0.1178     1.5955     2.5839   188.4800     1.4070    -0.0304
  591   11.800   2626.82     1.4272     0.0338     0.1424     0.1180     1.4798     2.3029   188.8000     1.2910     0.0057
  592   11.820   2627.77     1.3325     0.0262     0.1484     0.1182     1.3955     1.9367   189.1200     1.2064     0.0262
  593   11.840   2628.71     1.2978     0.0211     0.1541     0.1184     1.3605     1.6145   189.4400     1.1710     0.0263
  594   11.860   2629.72     1.3859     0.0174     0.1505     0.1186     1.4519     1.3050   189.7600     1.2621     0.0306
  595   11.880   2630.71     1.5137     0.0137     0.1301     0.1188     1.5699     0.9255   190.0800     1.3799     0.0110
  596   11.900   2631.61     1.3861     0.0104     0.1206     0.1190     1.4376     0.7233   190.4000     1.2472     0.0028
  597   11.920   2632.60     1.0567     0.0104     0.1368     0.1192     1.1104     0.8967   190.7200     0.9197     0.0098
  598   11.940   2633.56     0.8162     0.0100     0.1677     0.1194     0.8821     1.1421   191.0400     0.6911     0.0551
  599   11.960   2634.53     0.7051     0.0111     0.1993     0.1196     0.7845     1.5421   191.3600     0.5931     0.1171
  600   11.980   2635.52     0.7013     0.0109     0.2147     0.1198     0.7902     1.5636   191.6800     0.5986     0.1536
  601   12.000   2636.45     0.7493     0.0086     0.2174     0.1200     0.8398     1.1816   192.0000     0.6478     0.1477
  602   12.020   2637.41     0.7816     0.0075     0.2287     0.1202     0.8761     0.9609   192.3200     0.6838     0.1531
  603   12.040   2638.39     0.8522     0.0066     0.2391     0.1204     0.9513     0.8094   192.6400     0.7586     0.1527
  604   12.060   2639.40     1.2923     0.0072     0.2145     0.1206     1.3869     0.6416   192.9600     1.1940     0.0899
  605   12.080   2640.35     1.8982     0.0106     0.1532     0.1208     1.9724     0.5885   193.2800     1.7791     0.0320
  606   12.100   2641.31     2.0899     0.0158     0.1169     0.1210     2.1430     0.7520   193.6000     1.9494     0.0028
  607   12.120   2642.30     1.9074     0.0214     0.1161     0.1212     1.9554     1.0931   193.9200     1.7615    -0.0039
  608   12.140   2643.29     1.6093     0.0243     0.1156     0.1214     1.6571     1.4590   194.2400     1.4629    -0.0051
  609   12.160   2644.28     1.3238     0.0236     0.1318     0.1216     1.3766     1.6966   194.5600     1.1821     0.0038
  610   12.180   2645.26     1.0892     0.0202     0.1531     0.1218     1.1504     1.7735   194.8800     0.9555     0.0251
  611   12.200   2646.20     0.9516     0.0179     0.1763     0.1220     1.0218     1.8226   195.2000     0.8266     0.0548
  612   12.220   2647.20     0.8792     0.0166     0.2003     0.1222     0.9605     1.8661   195.5200     0.7650     0.0932
  613   12.240   2648.20     0.9581     0.0151     0.1964     0.1224     1.0415     1.6118   195.8400     0.8456     0.0898
  614   12.260   2649.15     1.0756     0.0119     0.1928     0.1226     1.1584     1.1563   196.1600     0.9622     0.0774
  615   12.280   2650.15     1.1481     0.0099     0.1799     0.1228     1.2247     0.8630   196.4800     1.0282     0.0579
  616   12.300   2651.10     1.1803     0.0092     0.1765     0.1230     1.2540     0.7811   196.8000     1.0572     0.0495
  617   12.320   2652.06     1.1325     0.0100     0.1791     0.1232     1.2080     0.8761   197.1200     1.0109     0.0559
  618   12.340   2653.06     1.1093     0.0099     0.1628     0.1234     1.1831     0.8982   197.4400     0.9856     0.0531
  619   12.360   2654.04     1.2792     0.0076     0.1503     0.1236     1.3419     0.6235   197.7600     1.1441     0.0222
  620   12.380   2654.98     1.6912     0.0059     0.1085     0.1238     1.7457     0.3836   198.0800     1.5476     0.0048
  621   12.400   2655.97     2.5696     0.0079     0.0514     0.1240     2.5981     0.3319   198.4000     2.3997    -0.0230
  622   12.420   2656.93     3.3919     0.0109     0.0187     0.1242     3.4045     0.3375   198.7200     3.2058    -0.0293
  623   12.440   2657.94     3.9853     0.0146     0.0183     0.1244     3.9921     0.3809   199.0400     3.7931    -0.0287
  624   12.460   2658.92     4.3826     0.0197     0.0049     0.1246     4.3858     0.4544   199.3600     4.1865    -0.0279
  625   12.480   2659.88     4.2202     0.0250     0.0134     0.1248     4.2247     0.5773   199.6800     4.0250    -0.0283
  626   12.500   2660.87     3.7828     0.0284     0.0240     0.1250     3.7900     0.7266   200.0000     3.5900    -0.0300
  627   12.520   2661.85     3.4481     0.0302     0.0525     0.1252     3.4667     0.8614   200.3200     3.2664    -0.0247
  628   12.540   2662.80     3.2459     0.0311     0.0589     0.1254     3.2695     0.9406   200.6400     3.0689    -0.0225
  629   12.560   2663.76     2.9368     0.0326     0.0638     0.1256     2.9628     1.0850   200.9600     2.7619    -0.0231
  630   12.580   2664.73     2.5946     0.0333     0.0672     0.1258     2.6225     1.2442   201.2800     2.4212    -0.0246
  631   12.600   2665.72     2.3069     0.0318     0.0749     0.1260     2.3371     1.3413   201.6000     2.1355    -0.0252
  632   12.620   2666.68     2.1556     0.0298     0.0907     0.1262     2.1909     1.3576   201.9200     1.9890    -0.0213
  633   12.640   2667.68     2.0011     0.0254     0.0959     0.1264     2.0420     1.2450   202.2400     1.8398    -0.0157
  634   12.660   2668.64     1.8961     0.0223     0.1001     0.1266     1.9359     1.1577   202.5600     1.7333    -0.0184
  635   12.680   2669.64     1.7484     0.0209     0.1127     0.1268     1.7940     1.1683   202.8800     1.5911    -0.0115
  636   12.700   2670.59     1.6973     0.0190     0.1171     0.1270     1.7456     1.1136   203.2000     1.5424    -0.0077
  637   12.720   2671.57     1.7793     0.0162     0.1167     0.1272     1.8289     0.9281   203.5200     1.6254    -0.0055
  638   12.740   2672.56     1.8603     0.0149     0.0997     0.1274     1.9050     0.8041   203.8400     1.7012    -0.0123
  639   12.760   2673.53     1.7146     0.0168     0.0892     0.1276     1.7530     0.9460   204.1600     1.5488    -0.0234
  640   12.780   2674.47     1.4396     0.0166     0.0887     0.1278     1.4777     1.1155   204.4800     1.2733    -0.0290
  641   12.800   2675.47     1.1537     0.0151     0.0707     0.1280     1.1855     1.2375   204.8000     0.9807    -0.0542
  642   12.820   2676.42     0.8829     0.0140     0.0796     0.1282     0.9139     1.4595   205.1200     0.7087    -0.0767
  643   12.840   2677.36     0.7675     0.0087     0.0985     0.1284     0.8059     1.0779   205.4400     0.6005    -0.0614
  644   12.860   2678.36     0.6972     0.0050     0.1262     0.1286     0.7457     0.6954   205.7600     0.5400    -0.0241
  645   12.880   2682.00     0.8088     0.0054     0.1328     0.1288     0.8651     0.7427   206.0800     0.6591     0.0091
  646   12.900   2697.13     1.1941     0.0101     0.1292     0.1290     1.2489     1.3723   206.4000     1.0425     0.0037
  647   12.920   2711.70     1.6013     0.0137     0.1341     0.1292     1.6550     1.0022   206.7200     1.4482    -0.0012
  648   12.940   2712.65     2.8071     0.0188     0.1492     0.1294     2.8682     0.7149   207.0400     2.6611     0.0060
  649   12.960   2713.65     4.3897     0.0268     0.1369     0.1296     4.4509     0.6241   207.3600     4.2435     0.0038
  650   12.980   2714.65     6.2989     0.0369     0.1091     0.1298     6.3478     0.6062   207.6800     6.1402    -0.0022
  651   13.000   2715.65     8.6032     0.0486     0.1090     0.1300     8.6475     0.5874   208.0000     8.4395    -0.0029
  652   13.020   2716.68    10.6690     0.0639     0.1212     0.1302    10.7182     0.6122   208.3200    10.5099    -0.0012
  653   13.040   2717.68    13.2734     0.0808     0.1268     0.1304    13.3269     0.6303   208.6400    13.1182    -0.0002
  654   13.060   2718.68    15.5075     0.0937     0.1256     0.1306    15.5598     0.6162   208.9600    15.3508    -0.0004
  655   13.080   2719.68    16.3850     0.1050     0.1152     0.1308    16.4358     0.6439   209.2800    16.2266    -0.0006
  656   13.100   2720.65    16.4717     0.1099     0.1078     0.1310    16.5176     0.6659   209.6000    16.3080    -0.0013
  657   13.120   2721.64    16.0533     0.1177     0.1147     0.1312    16.1001     0.7290   209.9200    15.8902    -0.0012
  658   13.140   2722.64    15.7418     0.1222     0.1242     0.1314    15.7914     0.7739   210.2400    15.5811    -0.0009
  659   13.160   2723.66    15.7678     0.1193     0.1326     0.1316    15.8219     0.7610   210.5600    15.6114    -0.0002
  660   13.180   2724.66    16.7161     0.1157     0.1367     0.1318    16.7725     0.7143   210.8800    16.5616     0.0002
  661   13.200   2725.61    17.8322     0.1111     0.1309     0.1320    17.8886     0.6566   211.2000    17.6774     0.0001
  662   13.220   2726.57    19.2434     0.1163     0.0974     0.1322    19.2916     0.6157   211.5200    19.0801    -0.0009
  663   13.240   2727.51    20.5968     0.1050    -0.0098     0.1324    20.6128     0.5181   211.8400    20.4010    -0.0046
  664   13.260   2728.43    21.9896     0.1076    -0.0953     0.1326    21.9538     0.4947   212.1600    21.7416    -0.0100
  665   13.280   2729.38    23.1473     0.1138    -0.0689     0.1328    23.1115     0.4968   212.4800    22.8990    -0.0095
  666   13.300   2730.33    24.1297     0.1324    -0.0219     0.1330    24.1173     0.5543   212.8000    23.9045    -0.0068
  667   13.320   2732.94    22.4843     0.1553     0.0604     0.1332    22.5107     0.6716   213.1200    22.2976    -0.0032
  668   13.340   2733.94    25.0211     0.1741     0.0009     0.1334    25.0262     0.7340   213.4400    24.8127    -0.0049
  669   13.360   2734.90    25.4598     0.1866     0.0013     0.1336    25.4601     0.7373   213.7600    25.2464    -0.0053
  670   13.380   2735.86    25.2658     0.1919     0.0360     0.1338    25.2795     0.7575   214.0800    25.0654    -0.0040
  671   13.400   2736.72    24.4963     0.1879     0.0672     0.1340    24.5222     0.7653   214.4000    24.3078    -0.0030
  672   13.420   2737.67    23.3551     0.1813     0.0784     0.1342    23.3890     0.7724   214.7200    23.1743    -0.0023
  673   13.440   2738.60    22.1844     0.1774     0.0852     0.1344    22.2193     0.7947   215.0400    22.0043    -0.0023
  674   13.460   2739.51    20.9531     0.1728     0.0791     0.1346    20.9873     0.8224   215.3600    20.7720    -0.0026
  675   13.480   2740.41    19.5765     0.1654     0.0821     0.1348    19.6103     0.8288   215.6800    19.3946    -0.0028
  676   13.500   2741.33    18.0495     0.1561     0.0861     0.1350    18.0856     0.8287   216.0000    17.8696    -0.0027
  677   13.520   2742.25    16.5033     0.1436     0.0885     0.1352    16.5400     0.8403   216.3200    16.3237    -0.0029
  678   13.540   2743.15    15.0036     0.1303     0.0875     0.1354    15.0405     0.8431   216.6400    14.8239    -0.0032
  679   13.560   2744.08    13.2435     0.1175     0.0841     0.1356    13.2792     0.8611   216.9600    13.0622    -0.0039
  680   13.580   2745.03    11.6744     0.1071     0.0905     0.1358    11.7114     0.8903   217.2800    11.4941    -0.0042
  681   13.600   2745.99     9.9504     0.0997     0.0902     0.1360     9.9887     0.9710   217.6000     9.7711    -0.0046
  682   13.620   2747.00     8.8739     0.0937     0.0859     0.1362     8.9104     1.0427   217.9200     8.6924    -0.0057
  683   13.640   2747.97     8.1306     0.0863     0.0946     0.1364     8.1685     1.0476   218.2400     7.9503    -0.0058
  684   13.660   2748.95     7.6245     0.0748     0.1078     0.1366     7.6680     0.9742   218.5600     7.4495    -0.0044
  685   13.680   2749.97     7.4379     0.0624     0.1129     0.1368     7.4853     0.8350   218.8800     7.2664    -0.0033
  686   13.700   2750.94     7.3313     0.0508     0.1062     0.1370     7.3780     0.6895   219.2000     7.1588    -0.0036
  687   13.720   2751.92     6.9452     0.0421     0.0645     0.1372     6.9794     0.5978   219.5200     6.7599    -0.0083
  688   13.740   2752.92     6.6162     0.0356     0.0474     0.1374     6.6373     0.5350   219.8400     6.4175    -0.0136
  689   13.760   2753.92     6.5380     0.0299     0.0310     0.1376     6.5531     0.4565   220.1600     6.3329    -0.0161
  690   13.780   2754.88     6.4857     0.0310     0.0327     0.1378     6.4999     0.4766   220.4800     6.2794    -0.0166
  691   13.800   2755.88     6.2045     0.0334     0.0220     0.1380     6.2156     0.5306   220.8000     5.9948    -0.0186
  692   13.820   2756.85     5.8321     0.0352     0.0310     0.1382     5.8425     0.5962   221.1200     5.6214    -0.0202
  693   13.840   2757.84     5.6361     0.0304     0.0376     0.1384     5.6498     0.5356   221.4400     5.4283    -0.0195
  694   13.860   2758.78     5.4581     0.0256     0.0154     0.1386     5.4699     0.4656   221.7600     5.2481    -0.0211
  695   13.880   2759.75     5.1113     0.0279    -0.0174     0.1388     5.1080     0.5394   222.0800     4.8859    -0.0301
  696   13.900   2760.77     4.7543     0.0327    -0.0115     0.1390     4.7469     0.6776   222.4000     4.5245    -0.0346
  697   13.920   2761.75     4.4445     0.0257     0.0077     0.1392     4.4457     0.5705   222.7200     4.2230    -0.0323
  698   13.940   2762.70     4.3814     0.0250     0.0285     0.1394     4.3894     0.5697   223.0400     4.1664    -0.0289
  699   13.960   2763.69     4.7688     0.0269     0.0480     0.1396     4.7839     0.5800   223.3600     4.5606    -0.0227
  700   13.980   2764.69     5.5668     0.0280     0.0059     0.1398     5.5863     0.5177   223.6800     5.3626    -0.0174
  701   14.000   2765.68     6.1679     0.0290    -0.0210     0.1400     6.1593     0.4760   224.0000     5.9353    -0.0270
  702   14.020   2766.68     6.8434     0.0355    -0.0329     0.1402     6.8329     0.5307   224.3200     6.6086    -0.0250
  703   14.040   2767.68     8.1662     0.0374    -0.0236     0.1404     8.1528     0.4767   224.6400     7.9281    -0.0217
  704   14.060   2768.65     9.3269     0.0349    -0.0187     0.1406     9.3229     0.3827   224.9600     9.0979    -0.0165
  705   14.080   2769.60     9.7144     0.0404    -0.0192     0.1408     9.6999     0.4166   225.2800     9.4746    -0.0185
  706   14.100   2770.63     9.7394     0.0450    -0.0751     0.1410     9.7143     0.4607   225.6000     9.4887    -0.0212
  707   14.120   2771.60     9.5701     0.0508    -0.0800     0.1412     9.5358     0.5283   225.9200     9.3098    -0.0239
  708   14.140   2772.56     9.1794     0.0627    -0.0765     0.1414     9.1489     0.6777   226.2400     8.9227    -0.0240
  709   14.160   2773.57     8.5948     0.0720    -0.0828     0.1416     8.5586     0.8279   226.5600     8.3321    -0.0273
  710   14.180   2774.57     8.2855     0.0722    -0.0613     0.1418     8.2563     0.8668   226.8800     8.0294    -0.0263
  711   14.200   2775.56     8.1950     0.0690    -0.0288     0.1420     8.1776     0.8412   227.2000     7.9504    -0.0231
  712   14.220   2776.55     8.3404     0.0654     0.0083     0.1422     8.3396     0.7884   227.5200     8.1120    -0.0178
  713   14.240   2777.54     8.7086     0.0585     0.0338     0.1424     8.7191     0.6764   227.8400     8.4913    -0.0138
  714   14.260   2778.49     9.2272     0.0508     0.0635     0.1426     9.2497     0.5538   228.1600     9.0215    -0.0099
  715   14.280   2779.50     9.7864     0.0469     0.0421     0.1428     9.8088     0.4832   228.4800     9.5803    -0.0093
  716   14.300   2780.53    10.2698     0.0498     0.0040     0.1430    10.2778     0.4888   228.8000    10.0490    -0.0123
  717   14.320   2781.55    10.7758     0.0562    -0.0081     0.1432    10.7757     0.5264   229.1200    10.5466    -0.0136
  718   14.340   2782.50    11.3144     0.0636    -0.0285     0.1434    11.3043     0.5697   229.4400    11.0748    -0.0151
  719   14.360   2783.50    11.9146     0.0727    -0.0441     0.1436    11.8986     0.6165   229.7600    11.6688    -0.0156
  720   14.380   2784.47    12.1060     0.0792    -0.0508     0.1438    12.0844     0.6536   230.0800    11.8543    -0.0165
  721   14.400   2785.45    11.8506     0.0845    -0.0356     0.1440    11.8328     0.7088   230.4000    11.6024    -0.0160
  722   14.420   2786.44    11.3572     0.0884    -0.0071     0.1442    11.3504     0.7732   230.7200    11.1197    -0.0144
  723   14.440   2787.40    10.6358     0.0894     0.0125     0.1444    10.6388     0.8329   231.0400    10.4078    -0.0132
  724   14.460   2788.41     9.9691     0.0847     0.0316     0.1446     9.9806     0.8418   231.3600     9.7492    -0.0120
  725   14.480   2789.41     9.4351     0.0804     0.0427     0.1448     9.4509     0.8451   231.6800     9.2192    -0.0116
  726   14.500   2790.42     9.2389     0.0763     0.0661     0.1450     9.2633     0.8250   232.0000     9.0313    -0.0096
  727   14.520   2791.41     9.3241     0.0734     0.0907     0.1452     9.3592     0.7896   232.3200     9.1269    -0.0068
  728   14.540   2792.38     9.5636     0.0725     0.1038     0.1454     9.6066     0.7605   232.6400     9.3739    -0.0046
  729   14.560   2793.36     9.9321     0.0728     0.0801     0.1456     9.9692     0.7392   232.9600     9.7362    -0.0059
  730   14.580   2794.36    10.3548     0.0751     0.0536     0.1458    10.3793     0.7280   233.2800    10.1460    -0.0086
  731   14.600   2795.40    11.0254     0.0753     0.0634     0.1460    11.0495     0.6919   233.6000    10.8159    -0.0082
  732   14.620   2796.39    12.0574     0.0778     0.0595     0.1462    12.0836     0.6592   233.9200    11.8497    -0.0071
  733   14.640   2797.39    13.3452     0.0825     0.0570     0.1464    13.3692     0.6327   234.2400    13.1350    -0.0068
  734   14.660   2798.41    14.3654     0.0930     0.0163     0.1466    14.3803     0.6580   234.5600    14.1457    -0.0078
  735   14.680   2799.41    14.9333     0.0996    -0.0182     0.1468    14.9286     0.6716   234.8800    14.6937    -0.0108
  736   14.700   2800.37    15.1621     0.1025    -0.0098     0.1470    15.1561     0.6758   235.2000    14.9209    -0.0108
  737   14.720   2801.26    14.8817     0.1065    -0.0136     0.1472    14.8775     0.7125   235.5200    14.6420    -0.0107
  738   14.740   2802.27    14.0857     0.1124     0.0037     0.1474    14.0843     0.7922   235.8400    13.8485    -0.0109
  739   14.760   2803.24    13.1973     0.1155     0.0260     0.1476    13.2039     0.8672   236.1600    12.9677    -0.0102
  740   14.780   2804.27    12.3195     0.1105     0.0509     0.1478    12.3370     0.8768   236.4800    12.1005    -0.0088
  741   14.800   2805.25    11.6966     0.1043     0.0656     0.1480    11.7222     0.8870   236.8000    11.4854    -0.0076
  742   14.820   2806.21    11.2249     0.0959     0.0767     0.1482    11.2561     0.8524   237.1200    11.0189    -0.0067
  743   14.840   2807.21    10.6758     0.0913     0.0892     0.1484    10.7105     0.8482   237.4400    10.4730    -0.0063
  744   14.860   2808.21     9.9408     0.0873     0.1051     0.1486     9.9833     0.8711   237.7600     9.7456    -0.0049
  745   14.880   2817.11     9.0250     0.0809     0.1094     0.1488     9.0701     0.8896   238.0800     8.8320    -0.0047
  746   14.900   2841.72     8.2860     0.0737     0.1152     0.1490     8.3335     0.8243   238.4000     8.0951    -0.0044
  747   14.920   2852.78     7.5800     0.0692     0.1235     0.1492     7.6306     0.8954   238.7200     7.3918    -0.0039
  748   14.940   2853.73     6.9169     0.0706     0.1286     0.1494     6.9704     0.9955   239.0400     6.7313    -0.0033
  749   14.960   2854.70     6.2625     0.0705     0.1297     0.1496     6.3164     1.1048   239.3600     6.0771    -0.0035
  750   14.980   2855.68     5.5700     0.0664     0.1277     0.1498     5.6250     1.1614   239.6800     5.3853    -0.0035
  751   15.000   2856.65     5.0700     0.0622     0.1273     0.1500     5.1228     1.2077   240.0000     4.8828    -0.0050
  752   15.020   2857.69     4.5863     0.0591     0.1297     0.1502     4.6397     1.2566   240.3200     4.3993    -0.0053
  753   15.040   2858.64     4.0781     0.0573     0.1309     0.1504     4.1334     1.3596   240.6400     3.8928    -0.0048
  754   15.060   2859.58     3.5667     0.0539     0.1271     0.1506     3.6204     1.4729   240.9600     3.3795    -0.0067
  755   15.080   2860.57     3.1695     0.0491     0.1220     0.1508     3.2216     1.5208   241.2800     2.9803    -0.0090
  756   15.100   2861.55     3.0114     0.0475     0.1101     0.1510     3.0600     1.5663   241.6000     2.8184    -0.0125
  757   15.120   2862.55     2.9318     0.0479     0.0998     0.1512     2.9756     1.6189   241.9200     2.7337    -0.0172
  758   15.140   2863.53     2.6708     0.0505     0.0918     0.1514     2.7092     1.8229   242.2400     2.4670    -0.0244
  759   15.160   2864.48     2.2236     0.0516     0.1107     0.1516     2.2660     2.1898   242.5600     2.0234    -0.0251
  760   15.180   2865.48     1.8885     0.0497     0.1499     0.1518     1.9467     2.5531   242.8800     1.7038    -0.0076
  761   15.200   2866.46     1.6523     0.0459     0.1765     0.1520     1.7226     2.6824   243.2000     1.4794     0.0105
  762   15.220   2867.45     1.4674     0.0408     0.2110     0.1522     1.5502     2.7074   243.5200     1.3067     0.0346
  763   15.240   2868.39     1.3167     0.0348     0.2290     0.1524     1.4137     2.5625   243.8400     1.1698     0.0671
  764   15.260   2869.34     1.2468     0.0343     0.2235     0.1526     1.3395     2.7736   244.1600     1.0953     0.0621
  765   15.280   2870.38     1.4720     0.0335     0.2261     0.1528     1.5682     2.4101   244.4800     1.3237     0.0577
  766   15.300   2871.34     1.8442     0.0305     0.1711     0.1530     1.9275     1.7623   244.8000     1.6827     0.0276
  767   15.320   2872.32     2.0298     0.0247     0.1224     0.1532     2.0867     1.2222   245.1200     1.8416    -0.0096
  768   15.340   2873.23     1.9498     0.0243     0.1386     0.1534     2.0050     1.2358   245.4400     1.7596    -0.0124
  769   15.360   2874.20     2.0804     0.0279     0.1482     0.1536     2.1433     1.3837   245.7600     1.8975    -0.0020
  770   15.380   2875.20     2.2094     0.0315     0.0949     0.1538     2.2604     1.4476   246.0800     2.0143    -0.0160
  771   15.400   2876.23     2.3776     0.0327     0.1098     0.1540     2.4224     1.3971   246.4000     2.1760    -0.0218
  772   15.420   2877.19     2.4676     0.0324     0.1174     0.1542     2.5161     1.3310   246.7200     2.2693    -0.0171
  773   15.440   2878.14     2.6451     0.0291     0.1222     0.1544     2.6960     1.1161   247.0400     2.4490    -0.0136
  774   15.460   2879.12     2.7910     0.0277     0.1141     0.1546     2.8407     1.0032   247.3600     2.5933    -0.0140
  775   15.480   2880.06     3.1341     0.0274     0.0967     0.1548     3.1783     0.9056   247.6800     2.9306    -0.0169
  776   15.500   2881.06     3.7711     0.0272     0.0492     0.1550     3.7986     0.7602   248.0000     3.5506    -0.0251
  777   15.520   2882.04     4.0874     0.0277     0.0027     0.1552     4.0943     0.6730   248.3200     3.8460    -0.0361
  778   15.540   2883.02     3.6072     0.0295    -0.0027     0.1554     3.6051     0.7911   248.6400     3.3565    -0.0479
  779   15.560   2884.00     3.2150     0.0325     0.0228     0.1556     3.2207     0.9889   248.9600     2.9717    -0.0478
  780   15.580   2885.00     2.9677     0.0361     0.0472     0.1558     2.9837     1.1987   249.2800     2.7344    -0.0430
  781   15.600   2885.96     2.8733     0.0362     0.0646     0.1560     2.8988     1.2588   249.6000     2.6492    -0.0359
  782   15.620   2886.90     2.9304     0.0351     0.0640     0.1562     2.9569     1.2083   249.9200     2.7070    -0.0344
  783   15.640   2887.90     3.1206     0.0303     0.0624     0.1564     3.1486     0.9955   250.2400     2.8984    -0.0309
  784   15.660   2888.88     3.3550     0.0256     0.0493     0.1566     3.3761     0.7699   250.5600     3.1255    -0.0341
  785   15.680   2889.85     3.5440     0.0224     0.0520     0.1568     3.5646     0.6447   250.8800     3.3137    -0.0325
  786   15.700   2890.86     3.7519     0.0237     0.0199     0.1570     3.7644     0.6350   251.2000     3.5132    -0.0362
  787   15.720   2891.81     3.5893     0.0264     0.0066     0.1572     3.5937     0.7186   251.5200     3.3422    -0.0439
  788   15.740   2892.76     3.1617     0.0304     0.0120     0.1574     3.1646     0.9231   251.8400     2.9127    -0.0517
  789   15.760   2893.77     2.6582     0.0339     0.0319     0.1576     2.6694     1.2136   252.1600     2.4173    -0.0541
  790   15.780   2894.75     2.2880     0.0391     0.0387     0.1578     2.3030     1.6407   252.4800     2.0505    -0.0595
  791   15.800   2895.70     1.9506     0.0430     0.0541     0.1580     1.9704     2.1024   252.8000     1.7176    -0.0644
  792   15.820   2896.67     1.5726     0.0409     0.0692     0.1582     1.5987     2.4257   253.1200     1.3456    -0.0714
  793   15.840   2897.62     1.2638     0.0367     0.0974     0.1584     1.2999     2.7151   253.4400     1.0464    -0.0693
  794   15.860   2898.60     1.0332     0.0311     0.1401     0.1586     1.0847     2.8539   253.7600     0.8309    -0.0431
  795   15.880   2899.56     0.8679     0.0267     0.1872     0.1588     0.9396     2.9306   254.0800     0.6855     0.0179
  796   15.900   2900.53     0.7115     0.0219     0.2187     0.1590     0.7992     2.9242   254.4000     0.5448     0.0922
  797   15.920   2901.51     0.5781     0.0193     0.2571     0.1592     0.6800     3.1500   254.7200     0.4253     0.1981
  798   15.940   2902.47     0.5084     0.0173     0.2962     0.1594     0.6277     3.3349   255.0400     0.3726     0.3352
  799   15.960   2903.44     0.4775     0.0163     0.3240     0.1596     0.6106     3.3925   255.3600     0.3552     0.4430
  800   15.980   2904.40     0.4649     0.0153     0.3411     0.1598     0.6059     3.2845   255.6800     0.3502     0.5020
  801   16.000   2905.37     0.4609     0.0151     0.3555     0.1600     0.6084     3.2832   256.0000     0.3524     0.5422
  802   16.020   2906.35     0.4654     0.0155     0.3666     0.1602     0.6176     3.3211   256.3200     0.3613     0.5599
  803   16.040   2907.35     0.4691     0.0159     0.3773     0.1604     0.6257     3.3950   256.6400     0.3690     0.5753
  804   16.060   2908.33     0.4691     0.0160     0.3841     0.1606     0.6294     3.3927   256.9600     0.3724     0.5933
  805   16.080   2909.28     0.4632     0.0158     0.3880     0.1608     0.6262     3.3901   257.2800     0.3689     0.6162
  806   16.100   2910.23     0.4540     0.0162     0.3939     0.1610     0.6196     3.5562   257.6000     0.3620     0.6441
  807   16.120   2911.23     0.4531     0.0166     0.4017     0.1612     0.6212     3.6433   257.9200     0.3633     0.6577
  808   16.140   2912.23     0.4544     0.0167     0.4062     0.1614     0.6235     3.6775   258.2400     0.3652     0.6604
  809   16.160   2913.19     0.4553     0.0168     0.4153     0.1616     0.6287     3.6917   258.5600     0.3701     0.6786
  810   16.180   2914.17     0.4654     0.0170     0.4205     0.1618     0.6420     3.6817   258.8800     0.3831     0.6752
  811   16.200   2915.15     0.4739     0.0170     0.4272     0.1620     0.6518     3.5880   259.2000     0.3926     0.6662
  812   16.220   2916.15     0.4663     0.0156     0.4294     0.1622     0.6459     3.3352   259.5200     0.3864     0.6869
  813   16.240   2917.11     0.4580     0.0125     0.4368     0.1624     0.6397     2.7162   259.8400     0.3798     0.7112
  814   16.260   2918.05     0.4537     0.0134     0.4500     0.1626     0.6406     2.9556   260.1600     0.3805     0.7425
  815   16.280   2919.04     0.4671     0.0203     0.4664     0.1628     0.6608     4.3977   260.4800     0.4004     0.7455
  816   16.300   2920.04     0.6296     0.0358     0.4781     0.1630     0.8296     6.8517   260.8000     0.5688     0.5627
  817   16.320   2921.00     1.3150     0.0398     0.4466     0.1632     1.5106     3.5322   261.1200     1.2495     0.2475
  818   16.340   2921.99     1.5891     0.0411     0.2031     0.1634     1.7125     2.5196   261.4400     1.4511     0.0868
  819   16.360   2922.96     1.2451     0.0418     0.1547     0.1636     1.3108     3.1262   261.7600     1.0491    -0.0072
  820   16.380   2923.94     1.0011     0.0421     0.1920     0.1638     1.0768     4.0039   262.0800     0.8148     0.0209
  821   16.400   2924.90     0.7809     0.0415     0.1825     0.1640     0.8591     5.0015   262.4000     0.5967     0.0364
  822   16.420   2925.89     0.6130     0.0358     0.2660     0.1642     0.7140     5.5122   262.7200     0.4512     0.1716
  823   16.440   2926.85     0.5329     0.0263     0.3541     0.1644     0.6728     4.7946   263.0400     0.4097     0.4116
  824   16.460   2927.83     0.5109     0.0201     0.3884     0.1646     0.6704     3.8972   263.3600     0.4071     0.5288
  825   16.480   2928.83     0.5071     0.0193     0.4130     0.1648     0.6774     3.7914   263.6800     0.4137     0.5820
  826   16.500   2929.78     0.4993     0.0196     0.4321     0.1650     0.6778     3.9020   264.0000     0.4138     0.6285
  827   16.520   2930.73     0.4942     0.0197     0.4434     0.1652     0.6793     3.9823   264.3200     0.4150     0.6642
  828   16.540   2931.68     0.4929     0.0200     0.4533     0.1654     0.6815     4.0636   264.6400     0.4169     0.6808
  829   16.560   2932.68     0.5001     0.0202     0.4656     0.1656     0.6944     4.0428   264.9600     0.4295     0.6919
  830   16.580   2933.64     0.4924     0.0203     0.4731     0.1658     0.6901     4.0954   265.2800     0.4248     0.7179
  831   16.600   2934.62     0.4827     0.0204     0.4760     0.1660     0.6824     4.2276   265.6000     0.4168     0.7424
  832   16.620   2935.60     0.4797     0.0205     0.4795     0.1662     0.6806     4.2670   265.9200     0.4146     0.7524
  833   16.640   2936.58     0.4766     0.0205     0.4845     0.1664     0.6795     4.2841   266.2400     0.4133     0.7663
  834   16.660   2937.53     0.4796     0.0207     0.4884     0.1666     0.6841     4.3175   266.5600     0.4175     0.7673
  835   16.680   2938.50     0.4803     0.0207     0.4932     0.1668     0.6867     4.3181   266.8800     0.4199     0.7732
  836   16.700   2939.50     0.4849     0.0209     0.4941     0.1670     0.6923     4.3253   267.2000     0.4251     0.7687
  837   16.720   2940.46     0.4845     0.0208     0.4991     0.1672     0.6934     4.2806   267.5200     0.4259     0.7755
  838   16.740   2941.45     0.4843     0.0206     0.5023     0.1674     0.6946     4.2808   267.8400     0.4268     0.7812
  839   16.760   2942.43     0.4827     0.0208     0.5094     0.1676     0.6955     4.2935   268.1600     0.4273     0.7934
  840   16.780   2943.38     0.4789     0.0206     0.5154     0.1678     0.6945     4.3156   268.4800     0.4260     0.8114
  841   16.800   2944.35     0.4811     0.0206     0.5185     0.1680     0.6985     4.2919   268.8000     0.4297     0.8133
  842   16.820   2945.34     0.4796     0.0204     0.5204     0.1682     0.6982     4.2576   269.1200     0.4291     0.8211
  843   16.840   2946.32     0.4804     0.0204     0.5214     0.1684     0.6991     4.2348   269.4400     0.4296     0.8199
  844   16.860   2947.27     0.4818     0.0200     0.5216     0.1686     0.7010     4.1629   269.7600     0.4312     0.8190
  845   16.880   2948.25     0.4817     0.0197     0.5254     0.1688     0.7007     4.0784   270.0800     0.4306     0.8190
  846   16.900   2958.79     0.4904     0.0197     0.5310     0.1690     0.7127     4.0797   270.4000     0.4423     0.8146
  847   16.920   2975.39     0.5028     0.0197     0.5367     0.1692     0.7273     4.0665   270.7200     0.4566     0.8002
  848   16.940   2978.51     0.4994     0.0198     0.5401     0.1694     0.7263     3.9546   271.0400     0.4552     0.8145
  849   16.960   2979.46     0.4980     0.0194     0.5393     0.1696     0.7243     3.8817   271.3600     0.4529     0.8149
  850   16.980   2980.44     0.4975     0.0190     0.5398     0.1698     0.7243     3.8016   271.6800     0.4526     0.8178
  851   17.000   2981.39     0.4951     0.0189     0.5411     0.1700     0.7221     3.8287   272.0000     0.4501     0.8231
  852   17.020   2982.34     0.5018     0.0191     0.5422     0.1702     0.7294     3.8117   272.3200     0.4571     0.8132
  853   17.040   2983.34     0.5081     0.0193     0.5461     0.1704     0.7360     3.8051   272.6400     0.4634     0.8032
  854   17.060   2984.33     0.5107     0.0194     0.5467     0.1706     0.7416     3.8001   272.9600     0.4686     0.8092
  855   17.080   2985.28     0.5139     0.0194     0.5422     0.1708     0.7423     3.7715   273.2800     0.4690     0.7952
  856   17.100   2986.24     0.5151     0.0193     0.5420     0.1710     0.7423     3.7624   273.6000     0.4687     0.7893
  857   17.120   2987.24     0.5172     0.0193     0.5405     0.1712     0.7444     3.7359   273.9200     0.4705     0.7858
  858   17.140   2988.19     0.5163     0.0189     0.5426     0.1714     0.7445     3.6600   274.2400     0.4702     0.7906
  859   17.160   2989.21     0.5137     0.0189     0.5478     0.1716     0.7432     3.6820   274.5600     0.4687     0.7998
  860   17.180   2990.16     0.5159     0.0188     0.5497     0.1718     0.7459     3.6653   274.8800     0.4711     0.7982
  861   17.200   2991.13     0.5138     0.0187     0.5544     0.1720     0.7463     3.6408   275.2000     0.4711     0.8100
  862   17.220   2992.09     0.5143     0.0188     0.5589     0.1722     0.7490     3.6727   275.5200     0.4734     0.8164
  863   17.240   2993.04     0.5174     0.0188     0.5539     0.1724     0.7504     3.6370   275.8400     0.4746     0.8056
  864   17.260   2994.03     0.5258     0.0189     0.5600     0.1726     0.7600     3.6008   276.1600     0.4838     0.7960
  865   17.280   2995.03     0.5286     0.0189     0.5596     0.1728     0.7638     3.5890   276.4800     0.4873     0.7945
  866   17.300   2995.99     0.5349     0.0192     0.5593     0.1730     0.7701     3.6027   276.8000     0.4933     0.7846
  867   17.320   2996.97     0.5420     0.0191     0.5583     0.1732     0.7763     3.5140   277.1200     0.4992     0.7705
  868   17.340   2997.94     0.5317     0.0193     0.5596     0.1734     0.7672     3.6074   277.4400     0.4897     0.7906
  869   17.360   2998.86     0.5290     0.0194     0.5547     0.1736     0.7633     3.6604   277.7600     0.4855     0.7914
  870   17.380   2999.86     0.5332     0.0191     0.5530     0.1738     0.7652     3.5929   278.0800     0.4871     0.7772
  871   17.400   3000.83     0.5341     0.0191     0.5579     0.1740     0.7679     3.5823   278.4000     0.4895     0.7815
  872   17.420   3001.82     0.5333     0.0192     0.5604     0.1742     0.7685     3.5924   278.7200     0.4898     0.7878
  873   17.440   3002.79     0.5425     0.0195     0.5565     0.1744     0.7775     3.6153   279.0400     0.4984     0.7725
  874   17.460   3003.73     0.5425     0.0196     0.5605     0.1746     0.7765     3.6066   279.3600     0.4971     0.7695
  875   17.480   3004.72     0.5448     0.0193     0.5648     0.1748     0.7827     3.5508   279.6800     0.5030     0.7787
  876   17.500   3005.63     0.5449     0.0191     0.5626     0.1750     0.7809     3.4905   280.0000     0.5009     0.7725
  877   17.520   3006.64     0.5442     0.0183     0.5677     0.1752     0.7823     3.3489   280.3200     0.5019     0.7803
  878   17.540   3007.67     0.5531     0.0177     0.5725     0.1754     0.7927     3.2102   280.6400     0.5121     0.7714
  879   17.560   3008.59     0.5684     0.0167     0.5766     0.1756     0.8106     2.9629   280.9600     0.5296     0.7571
  880   17.580   3009.59     0.5851     0.0190     0.5707     0.1758     0.8260     3.2844   281.2800     0.5448     0.7306
  881   17.600   3010.56     0.6151     0.0240     0.5629     0.1760     0.8523     3.9427   281.6000     0.5707     0.6812
  882   17.620   3011.52     0.7356     0.0256     0.5514     0.1762     0.9685     3.5729   281.9200     0.6866     0.5520
  883   17.640   3012.54     0.8306     0.0264     0.5010     0.1764     1.0590     3.3437   282.2400     0.7767     0.4736
  884   17.660   3013.48     0.8210     0.0268     0.2978     0.1766     0.9710     3.1607   282.5600     0.6885     0.2555
  885   17.680   3014.46     0.7195     0.0269     0.3012     0.1768     0.8452     3.5929   282.8800     0.5624     0.2184
  886   17.700   3015.45     0.6355     0.0272     0.3719     0.1770     0.7754     4.1162   283.2000     0.4922     0.3187
  887   17.720   3016.45     0.5965     0.0233     0.4376     0.1772     0.7737     3.8896   283.5200     0.4901     0.4989
  888   17.740   3017.38     0.5878     0.0179     0.4647     0.1774     0.7796     3.0332   283.8400     0.4958     0.5634
  889   17.760   3018.34     0.5803     0.0173     0.4889     0.1776     0.7823     2.9627   284.1600     0.4981     0.6089
  890   17.780   3019.28     0.5722     0.0174     0.4980     0.1778     0.7800     3.0394   284.4800     0.4955     0.6396
  891   17.800   3020.31     0.5559     0.0176     0.5110     0.1780     0.7691     3.1331   284.8000     0.4843     0.6806
  892   17.820   3021.30     0.5512     0.0175     0.5231     0.1782     0.7695     3.1625   285.1200     0.4843     0.7050
  893   17.840   3022.25     0.5521     0.0175     0.5330     0.1784     0.7746     3.1788   285.4400     0.4892     0.7186
  894   17.860   3023.16     0.5518     0.0180     0.5401     0.1786     0.7776     3.2560   285.7600     0.4918     0.7300
  895   17.880   3024.19     0.5556     0.0180     0.5452     0.1788     0.7839     3.2551   286.0800     0.4978     0.7330
  896   17.900   3025.14     0.5551     0.0180     0.5486     0.1790     0.7853     3.2344   286.4000     0.4989     0.7395
  897   17.920   3026.09     0.5558     0.0181     0.5489     0.1792     0.7864     3.2512   286.7200     0.4997     0.7401
  898   17.940   3027.06     0.5561     0.0182     0.5516     0.1794     0.7871     3.2832   287.0400     0.5001     0.7413
  899   17.960   3028.05     0.5687     0.0183     0.5578     0.1796     0.8018     3.2354   287.3600     0.5144     0.7298
  900   17.980   3029.07     0.5727     0.0184     0.5630     0.1798     0.8087     3.2129   287.6800     0.5210     0.7333
  901   18.000   3030.02     0.5794     0.0184     0.5666     0.1800     0.8167     3.1762   288.0000     0.5287     0.7282
  902   18.020   3030.98     0.5852     0.0187     0.5700     0.1802     0.8242     3.1994   288.3200     0.5359     0.7259
  903   18.040   3031.93     0.5841     0.0189     0.5736     0.1804     0.8244     3.2220   288.6400     0.5358     0.7312
  904   18.060   3032.88     0.5775     0.0188     0.5769     0.1806     0.8194     3.2539   288.9600     0.5304     0.7454
  905   18.080   3033.91     0.5752     0.0188     0.5717     0.1808     0.8177     3.3038   289.2800     0.5284     0.7504
  906   18.100   3034.86     0.5882     0.0187     0.5448     0.1810     0.8143     3.1664   289.6000     0.5247     0.6814
  907   18.120   3035.84     0.5771     0.0187     0.5624     0.1812     0.8116     3.2311   289.9200     0.5216     0.7226
  908   18.140   3036.84     0.5729     0.0189     0.5687     0.1814     0.8112     3.2893   290.2400     0.5210     0.7408
  909   18.160   3037.79     0.5730     0.0190     0.5713     0.1816     0.8129     3.3201   290.5600     0.5223     0.7460
  910   18.180   3038.79     0.5789     0.0188     0.5720     0.1818     0.8180     3.2628   290.8800     0.5271     0.7349
  911   18.200   3039.74     0.5851     0.0181     0.5638     0.1820     0.8227     3.1048   291.2000     0.5315     0.7218
  912   18.220   3040.70     0.5955     0.0181     0.5633     0.1822     0.8306     3.0480   291.5200     0.5390     0.7003
  913   18.240   3041.69     0.5936     0.0179     0.5716     0.1824     0.8319     3.0147   291.8400     0.5400     0.7130
  914   18.260   3042.73     0.5910     0.0182     0.5814     0.1826     0.8331     3.0865   292.1600     0.5409     0.7280
  915   18.280   3043.69     0.5906     0.0182     0.5755     0.1828     0.8336     3.0944   292.4800     0.5411     0.7315
  916   18.300   3044.62     0.5958     0.0184     0.5672     0.1830     0.8328     3.0918   292.8000     0.5400     0.7061
  917   18.320   3045.61     0.5833     0.0186     0.5714     0.1832     0.8233     3.1886   293.1200     0.5302     0.7321
  918   18.340   3046.56     0.5938     0.0188     0.5666     0.1834     0.8319     3.1870   293.4400     0.5385     0.7124
  919   18.360   3047.56     0.5884     0.0189     0.5694     0.1836     0.8273     3.1950   293.7600     0.5335     0.7220
  920   18.380   3048.51     0.5846     0.0192     0.5707     0.1838     0.8241     3.2892   294.0800     0.5300     0.7290
  921   18.400   3049.47     0.5914     0.0191     0.5737     0.1840     0.8322     3.2455   294.4000     0.5378     0.7239
  922   18.420   3050.44     0.5973     0.0191     0.5732     0.1842     0.8376     3.1866   294.7200     0.5429     0.7145
  923   18.440   3051.42     0.5896     0.0192     0.5751     0.1844     0.8311     3.2411   295.0400     0.5361     0.7289
  924   18.460   3052.45     0.5869     0.0187     0.5751     0.1846     0.8278     3.1813   295.3600     0.5324     0.7306
  925   18.480   3053.40     0.5798     0.0181     0.5837     0.1848     0.8237     3.1222   295.6800     0.5280     0.7499
  926   18.500   3054.37     0.5821     0.0180     0.5863     0.1850     0.8276     3.1042   296.0000     0.5316     0.7515
  927   18.520   3055.36     0.5820     0.0181     0.5915     0.1852     0.8304     3.1089   296.3200     0.5340     0.7607
  928   18.540   3056.31     0.5799     0.0177     0.5923     0.1854     0.8286     3.0403   296.6400     0.5320     0.7649
  929   18.560   3057.31     0.5821     0.0182     0.5903     0.1856     0.8313     3.1492   296.9600     0.5344     0.7631
  930   18.580   3058.30     0.6067     0.0186     0.5820     0.1858     0.8522     3.0868   297.2800     0.5549     0.7187
  931   18.600   3059.22     0.6110     0.0187     0.5796     0.1860     0.8555     3.0632   297.6000     0.5579     0.7101
  932   18.620   3060.22     0.6033     0.0190     0.5817     0.1862     0.8473     3.1378   297.9200     0.5494     0.7185
  933   18.640   3061.17     0.6090     0.0189     0.5732     0.1864     0.8502     3.1371   298.2400     0.5519     0.7028
  934   18.660   3062.20     0.6192     0.0191     0.5769     0.1866     0.8595     3.1011   298.5600     0.5610     0.6874
  935   18.680   3063.20     0.6100     0.0194     0.5868     0.1868     0.8555     3.1702   298.8800     0.5566     0.7146
  936   18.700   3064.13     0.6066     0.0192     0.5844     0.1870     0.8527     3.1588   299.2000     0.5535     0.7209
  937   18.720   3065.12     0.6174     0.0189     0.5809     0.1872     0.8614     3.0754   299.5200     0.5619     0.7008
  938   18.740   3066.07     0.6190     0.0191     0.5792     0.1874     0.8627     3.0798   299.8400     0.5628     0.6977
  939   18.760   3067.07     0.6253     0.0189     0.5829     0.1876     0.8691     3.0278   300.1600     0.5690     0.6908
  940   18.780   3068.03     0.6171     0.0193     0.5815     0.1878     0.8617     3.0821   300.4800     0.5612     0.7029
  941   18.800   3068.98     0.6164     0.0199     0.5858     0.1880     0.8620     3.1867   300.8000     0.5612     0.7070
  942   18.820   3069.98     0.6276     0.0206     0.5856     0.1882     0.8732     3.2912   301.1200     0.5721     0.6933
  943   18.840   3070.95     0.6244     0.0204     0.5863     0.1884     0.8709     3.2532   301.4400     0.5695     0.6997
  944   18.860   3071.94     0.6297     0.0199     0.5831     0.1886     0.8753     3.1719   301.7600     0.5735     0.6906
  945   18.880   3076.17     0.6337     0.0197     0.5869     0.1888     0.8795     3.1146   302.0800     0.5775     0.6865
  946   18.900   3090.71     0.6383     0.0195     0.5919     0.1890     0.8861     3.0816   302.4000     0.5837     0.6872
  947   18.920   3105.26     0.6428     0.0191     0.5968     0.1892     0.8928     3.0116   302.7200     0.5900     0.6878
  948   18.940   3113.13     0.6479     0.0192     0.6022     0.1894     0.9005     2.9678   303.0400     0.5974     0.6896
  949   18.960   3114.16     0.6510     0.0195     0.5987     0.1896     0.9032     2.9907   303.3600     0.5999     0.6850
  950   18.980   3115.16     0.6515     0.0191     0.5994     0.1898     0.9041     2.9267   303.6800     0.6004     0.6855
  951   19.000   3116.12     0.6461     0.0190     0.5964     0.1900     0.8981     2.9327   304.0000     0.5941     0.6901
  952   19.020   3117.10     0.6492     0.0190     0.5946     0.1902     0.8981     2.9224   304.3200     0.5938     0.6778
  953   19.040   3118.06     0.6543     0.0187     0.6009     0.1904     0.9056     2.8624   304.6400     0.6009     0.6785
  954   19.060   3119.02     0.6535     0.0187     0.6057     0.1906     0.9075     2.8577   304.9600     0.6026     0.6876
  955   19.080   3120.00     0.6571     0.0191     0.6086     0.1908     0.9120     2.9156   305.2800     0.6067     0.6856
  956   19.100   3121.03     0.6648     0.0190     0.6044     0.1910     0.9200     2.8604   305.6000     0.6144     0.6779
  957   19.120   3121.99     0.6683     0.0188     0.6032     0.1912     0.9214     2.8196   305.9200     0.6154     0.6683
  958   19.140   3122.94     0.6662     0.0191     0.6050     0.1914     0.9206     2.8812   306.2400     0.6144     0.6744
  959   19.160   3123.92     0.6738     0.0187     0.5990     0.1916     0.9255     2.7718   306.5600     0.6190     0.6588
  960   19.180   3124.88     0.6611     0.0188     0.6085     0.1918     0.9149     2.8280   306.8800     0.6080     0.6785
  961   19.200   3125.88     0.6556     0.0189     0.6149     0.1920     0.9134     2.8967   307.2000     0.6062     0.6960
  962   19.220   3126.88     0.6652     0.0190     0.6128     0.1922     0.9224     2.8569   307.5200     0.6148     0.6834
  963   19.240   3127.84     0.6628     0.0187     0.6128     0.1924     0.9201     2.8099   307.8400     0.6122     0.6861
  964   19.260   3128.80     0.6565     0.0186     0.6116     0.1926     0.9140     2.8363   308.1600     0.6058     0.6939
  965   19.280   3129.79     0.6698     0.0189     0.6160     0.1928     0.9276     2.8433   308.4800     0.6191     0.6797
  966   19.300   3130.77     0.6699     0.0188     0.6201     0.1930     0.9307     2.8032   308.8000     0.6219     0.6884
  967   19.320   3131.72     0.6740     0.0187     0.6149     0.1932     0.9319     2.7769   309.1200     0.6227     0.6757
  968   19.340   3132.71     0.6742     0.0192     0.6105     0.1934     0.9321     2.8585   309.4400     0.6226     0.6755
  969   19.360   3133.66     0.6844     0.0192     0.6119     0.1936     0.9406     2.8172   309.7600     0.6309     0.6600
  970   19.380   3134.62     0.6855     0.0189     0.6186     0.1938     0.9446     2.7653   310.0800     0.6346     0.6669
  971   19.400   3135.60     0.6824     0.0191     0.6181     0.1940     0.9424     2.7994   310.4000     0.6320     0.6724
  972   19.420   3136.64     0.6773     0.0192     0.6165     0.1942     0.9362     2.8291   310.7200     0.6255     0.6752
  973   19.440   3137.59     0.6782     0.0192     0.6189     0.1944     0.9375     2.8161   311.0400     0.6264     0.6749
  974   19.460   3138.56     0.6705     0.0190     0.6205     0.1946     0.9313     2.8288   311.3600     0.6200     0.6877
  975   19.480   3139.54     0.6731     0.0186     0.6182     0.1948     0.9331     2.7673   311.6800     0.6214     0.6827
  976   19.500   3140.55     0.6759     0.0187     0.6201     0.1950     0.9360     2.7696   312.0000     0.6240     0.6802
  977   19.520   3141.51     0.6848     0.0187     0.6218     0.1952     0.9453     2.7321   312.3200     0.6329     0.6715
  978   19.540   3142.44     0.6838     0.0186     0.6231     0.1954     0.9460     2.7189   312.6400     0.6334     0.6773
  979   19.560   3143.39     0.6861     0.0190     0.6218     0.1956     0.9471     2.7685   312.9600     0.6342     0.6717
  980   19.580   3144.36     0.6861     0.0192     0.6212     0.1958     0.9471     2.8024   313.2800     0.6338     0.6718
  981   19.600   3145.37     0.6927     0.0195     0.6221     0.1960     0.9535     2.8132   313.6000     0.6399     0.6642
  982   19.620   3146.37     0.6934     0.0197     0.6203     0.1962     0.9543     2.8358   313.9200     0.6404     0.6638
  983   19.640   3147.29     0.6934     0.0199     0.6210     0.1964     0.9549     2.8689   314.2400     0.6407     0.6655
  984   19.660   3148.28     0.6917     0.0197     0.6185     0.1966     0.9508     2.8506   314.5600     0.6362     0.6605
  985   19.680   3149.22     0.6929     0.0198     0.6222     0.1968     0.9533     2.8695   314.8800     0.6385     0.6629
  986   19.700   3150.22     0.6982     0.0198     0.6264     0.1970     0.9602     2.8338   315.2000     0.6450     0.6618
  987   19.720   3151.22     0.6922     0.0197     0.6288     0.1972     0.9573     2.8428   315.5200     0.6418     0.6763
  988   19.740   3152.18     0.6886     0.0191     0.6259     0.1974     0.9523     2.7750   315.8400     0.6365     0.6766
  989   19.760   3153.13     0.6996     0.0193     0.6263     0.1976     0.9609     2.7750   316.1600     0.6447     0.6585
  990   19.780   3154.13     0.7043     0.0195     0.6356     0.1978     0.9713     2.7658   316.4800     0.6548     0.6688
  991   19.800   3155.07     0.7059     0.0199     0.6354     0.1980     0.9722     2.8160   316.8000     0.6554     0.6653
  992   19.820   3156.05     0.6935     0.0200     0.6362     0.1982     0.9617     2.8719   317.1200     0.6446     0.6834
  993   19.840   3157.02     0.7085     0.0202     0.6281     0.1984     0.9726     2.8756   317.4400     0.6552     0.6572
  994   19.860   3158.00     0.7109     0.0199     0.6369     0.1986     0.9770     2.8003   317.7600     0.6592     0.6599
  995   19.880   3158.98     0.7058     0.0200     0.6389     0.1988     0.9740     2.8256   318.0800     0.6559     0.6706
  996   19.900   3159.95     0.7090     0.0198     0.6392     0.1990     0.9781     2.8067   318.4000     0.6597     0.6697
  997   19.920   3160.93     0.7174     0.0195     0.6428     0.1992     0.9864     2.7238   318.7200     0.6677     0.6608
  998   19.940   3161.87     0.7141     0.0197     0.6476     0.1994     0.9848     2.7460   319.0400     0.6658     0.6686
  999   19.960   3162.84     0.7076     0.0197     0.6451     0.1996     0.9798     2.7855   319.3600     0.6604     0.6790
 1000   19.980   3163.81     0.7138     0.0198     0.6342     0.1998     0.9810     2.7731   319.6800     0.6613     0.6598
 1001   20.000   3164.82     0.7124     0.0200     0.6412     0.2000     0.9817     2.8119   320.0000     0.6617     0.6667
 1002   20.020   3165.81     0.7249     0.0197     0.6413     0.2002     0.9944     2.7313   320.3200     0.6740     0.6549
 1003   20.040   3166.76     0.7254     0.0197     0.6408     0.2004     0.9952     2.7163   320.6400     0.6746     0.6551
 1004   20.060   3167.72     0.7275     0.0198     0.6445     0.2006     0.9975     2.7255   320.9600     0.6765     0.6536
 1005   20.080   3168.70     0.7298     0.0202     0.6479     0.2008     1.0015     2.7746   321.2800     0.6802     0.6557
 1006   20.100   3169.70     0.7303     0.0200     0.6507     0.2010     1.0031     2.7462   321.6000     0.6815     0.6582
 1007   20.120   3170.65     0.7209     0.0204     0.6464     0.2012     0.9942     2.8179   321.9200     0.6723     0.6684
 1008   20.140   3171.65     0.7261     0.0203     0.6457     0.2014     0.9967     2.8044   322.2400     0.6745     0.6567
 1009   20.160   3172.61     0.7328     0.0202     0.6515     0.2016     1.0055     2.7559   322.5600     0.6830     0.6557
 1010   20.180   3173.59     0.7300     0.0207     0.6575     0.2018     1.0051     2.8350   322.8800     0.6822     0.6642
 1011   20.200   3174.89     0.7296     0.0207     0.6495     0.2020     1.0032     2.8397   323.2000     0.6800     0.6608
 1012   20.220   3176.98     0.7307     0.0201     0.6499     0.2022     1.0021     2.7506   323.5200     0.6786     0.6542
 1013   20.240   3178.05     0.7287     0.0203     0.6595     0.2024     1.0048     2.7867   323.8400     0.6810     0.6682
 1014   20.260   3179.06     0.7273     0.0204     0.6600     0.2026     1.0045     2.8035   324.1600     0.6803     0.6721
 1015   20.280   3180.00     0.7250     0.0204     0.6642     0.2028     1.0038     2.7974   324.4800     0.6793     0.6788
 1016   20.300   3181.02     0.7160     0.0206     0.6638     0.2030     0.9950     2.8757   324.8000     0.6702     0.6882
 1017   20.320   3181.99     0.7281     0.0203     0.6578     0.2032     1.0047     2.8187   325.1200     0.6795     0.6702
 1018   20.340   3182.97     0.7320     0.0201     0.6699     0.2034     1.0114     2.7428   325.4400     0.6860     0.6735
 1019   20.360   3183.98     0.7345     0.0203     0.6685     0.2036     1.0155     2.7858   325.7600     0.6897     0.6748
 1020   20.380   3184.90     0.7493     0.0208     0.6673     0.2038     1.0297     2.7877   326.0800     0.7037     0.6593
 1021   20.400   3185.87     0.7467     0.0210     0.6708     0.2040     1.0292     2.7965   326.4000     0.7028     0.6669
 1022   20.420   3186.82     0.7487     0.0210     0.6558     0.2042     1.0257     2.8144   326.7200     0.6990     0.6516
 1023   20.440   3187.83     0.7490     0.0209     0.6527     0.2044     1.0238     2.7862   327.0400     0.6967     0.6455
 1024   20.460   3188.82     0.7427     0.0207     0.6559     0.2046     1.0163     2.7844   327.3600     0.6890     0.6488
 1025   20.480   3189.78     0.7350     0.0207     0.6575     0.2048     1.0110     2.8125   327.6800     0.6834     0.6619
 1026   20.500   3190.76     0.7418     0.0204     0.6645     0.2050     1.0197     2.7549   328.0000     0.6917     0.6602
 1027   20.520   3191.78     0.7431     0.0203     0.6714     0.2052     1.0247     2.7400   328.3200     0.6964     0.6682
 1028   20.540   3192.73     0.7522     0.0200     0.6685     0.2054     1.0346     2.6611   328.6400     0.7060     0.6614
 1029   20.560   3193.68     0.7589     0.0200     0.6610     0.2056     1.0379     2.6462   328.9600     0.7089     0.6468
 1030   20.580   3194.67     0.7555     0.0203     0.6599     0.2058     1.0315     2.6814   329.2800     0.7022     0.6427
 1031   20.600   3195.62     0.7669     0.0202     0.6582     0.2060     1.0434     2.6481   329.6000     0.7138     0.6338
 1032   20.620   3196.61     0.7478     0.0202     0.6680     0.2062     1.0276     2.6889   329.9200     0.6977     0.6594
 1033   20.640   3197.57     0.7368     0.0202     0.6638     0.2064     1.0161     2.7435   330.2400     0.6859     0.6687
 1034   20.660   3198.57     0.7417     0.0201     0.6612     0.2066     1.0194     2.7130   330.5600     0.6888     0.6600
 1035   20.680   3199.57     0.7432     0.0196     0.6671     0.2068     1.0225     2.6276   330.8800     0.6916     0.6624
 1036   20.700   3200.52     0.7389     0.0196     0.6685     0.2070     1.0197     2.6495   331.2000     0.6885     0.6702
 1037   20.720   3201.50     0.7400     0.0195     0.6698     0.2072     1.0215     2.6471   331.5200     0.6900     0.6711
 1038   20.740   3202.47     0.7443     0.0197     0.6721     0.2074     1.0256     2.6537   331.8400     0.6937     0.6663
 1039   20.760   3203.42     0.7433     0.0199     0.6757     0.2076     1.0273     2.6599   332.1600     0.6952     0.6743
 1040   20.780   3204.38     0.7510     0.0208     0.6726     0.2078     1.0340     2.7613   332.4800     0.7016     0.6645
 1041   20.800   3205.38     0.7575     0.0217     0.6691     0.2080     1.0390     2.8628   332.8000     0.7062     0.6547
 1042   20.820   3206.35     0.7666     0.0218     0.6770     0.2082     1.0480     2.8724   333.1200     0.7148     0.6457
 1043   20.840   3207.35     0.7679     0.0218     0.6842     0.2084     1.0547     2.8366   333.4400     0.7213     0.6578
 1044   20.860   3209.61     0.7760     0.0214     0.6848     0.2086     1.0634     2.7807   333.7600     0.7296     0.6518
 1045   20.880   3223.13     0.7766     0.0213     0.6868     0.2088     1.0648     2.7446   334.0800     0.7307     0.6532
 1046   20.900   3236.64     0.7772     0.0211     0.6887     0.2090     1.0662     2.7135   334.4000     0.7318     0.6546
 1047   20.920   3246.97     0.7763     0.0208     0.6916     0.2092     1.0663     2.6810   334.7200     0.7316     0.6578
 1048   20.940   3247.93     0.7679     0.0205     0.6904     0.2094     1.0584     2.6582   335.0400     0.7234     0.6667
 1049   20.960   3248.91     0.7644     0.0205     0.6874     0.2096     1.0535     2.6753   335.3600     0.7181     0.6666
 1050   20.980   3249.88     0.7623     0.0206     0.6799     0.2098     1.0485     2.7033   335.6800     0.7128     0.6616
 1051   21.000   3250.80     0.7621     0.0208     0.6823     0.2100     1.0478     2.7258   336.0000     0.7118     0.6606
 1052   21.020   3251.87     0.7560     0.0205     0.6859     0.2102     1.0437     2.7119   336.3200     0.7074     0.6711
 1053   21.040   3252.78     0.7554     0.0203     0.6772     0.2104     1.0409     2.6863   336.6400     0.7043     0.6664
 1054   21.060   3253.73     0.7608     0.0202     0.6760     0.2106     1.0447     2.6528   336.9600     0.7077     0.6573
 1055   21.080   3254.71     0.7663     0.0208     0.6809     0.2108     1.0514     2.7230   337.2800     0.7141     0.6555
 1056   21.100   3255.70     0.7740     0.0210     0.6851     0.2110     1.0617     2.7152   337.6000     0.7241     0.6547
 1057   21.120   3256.70     0.7819     0.0208     0.6847     0.2112     1.0688     2.6687   337.9200     0.7309     0.6457
 1058   21.140   3257.70     0.7781     0.0207     0.6849     0.2114     1.0668     2.6519   338.2400     0.7286     0.6533
 1059   21.160   3258.65     0.7785     0.0211     0.6816     0.2116     1.0645     2.7118   338.5600     0.7259     0.6466
 1060   21.180   3259.65     0.7762     0.0213     0.6868     0.2118     1.0632     2.7320   338.8800     0.7243     0.6510
 1061   21.200   3260.61     0.7732     0.0209     0.6908     0.2120     1.0630     2.6965   339.2000     0.7238     0.6605
 1062   21.220   3261.56     0.7760     0.0206     0.6863     0.2122     1.0652     2.6644   339.5200     0.7257     0.6566
 1063   21.240   3262.59     0.7781     0.0206     0.6814     0.2124     1.0646     2.6503   339.8400     0.7248     0.6482
 1064   21.260   3263.54     0.7772     0.0205     0.6884     0.2126     1.0649     2.6397   340.1600     0.7247     0.6517
 1065   21.280   3264.52     0.7729     0.0204     0.6940     0.2128     1.0639     2.6468   340.4800     0.7234     0.6634
 1066   21.300   3265.48     0.7722     0.0204     0.6955     0.2130     1.0642     2.6305   340.8000     0.7234     0.6665
 1067   21.320   3266.47     0.7695     0.0205     0.6977     0.2132     1.0625     2.6623   341.1200     0.7214     0.6715
 1068   21.340   3267.44     0.7707     0.0206     0.7019     0.2134     1.0642     2.6788   341.4400     0.7227     0.6715
 1069   21.360   3268.47     0.7725     0.0207     0.7016     0.2136     1.0681     2.6839   341.7600     0.7264     0.6750
 1070   21.380   3269.38     0.7764     0.0207     0.6986     0.2138     1.0691     2.6636   342.0800     0.7270     0.6647
 1071   21.400   3270.38     0.7767     0.0207     0.6907     0.2140     1.0683     2.6776   342.4000     0.7259     0.6615
 1072   21.420   3271.31     0.7941     0.0207     0.6904     0.2142     1.0853     2.6192   342.7200     0.7426     0.6452
 1073   21.440   3272.31     0.7981     0.0209     0.7035     0.2144     1.0915     2.6109   343.0400     0.7485     0.6469
 1074   21.460   3273.32     0.7939     0.0207     0.7019     0.2146     1.0891     2.6072   343.3600     0.7457     0.6547
 1075   21.480   3274.26     0.8058     0.0210     0.6990     0.2148     1.0983     2.6178   343.6800     0.7546     0.6383
 1076   21.500   3275.25     0.8058     0.0210     0.6983     0.2150     1.0993     2.5929   344.0000     0.7553     0.6406
 1077   21.520   3276.21     0.8018     0.0213     0.6964     0.2152     1.0939     2.6625   344.3200     0.7495     0.6406
 1078   21.540   3277.21     0.8088     0.0211     0.6909     0.2154     1.1005     2.6069   344.6400     0.7559     0.6340
 1079   21.560   3278.16     0.8029     0.0209     0.6936     0.2156     1.0929     2.5916   344.9600     0.7480     0.6348
 1080   21.580   3279.14     0.8034     0.0209     0.6959     0.2158     1.0955     2.5988   345.2800     0.7502     0.6394
 1081   21.600   3280.10     0.8097     0.0212     0.7019     0.2160     1.1043     2.6157   345.6000     0.7587     0.6399
 1082   21.620   3281.05     0.8064     0.0210     0.7043     0.2162     1.1016     2.6018   345.9200     0.7557     0.6441
 1083   21.640   3282.05     0.8022     0.0212     0.6999     0.2164     1.0975     2.6427   346.2400     0.7513     0.6480
 1084   21.660   3282.99     0.8041     0.0214     0.6977     0.2166     1.0971     2.6670   346.5600     0.7506     0.6409
 1085   21.680   3284.02     0.7980     0.0209     0.7031     0.2168     1.0920     2.6131   346.8800     0.7451     0.6486
 1086   21.700   3284.98     0.7888     0.0211     0.7079     0.2170     1.0853     2.6690   347.2000     0.7381     0.6625
 1087   21.720   3285.95     0.7921     0.0209     0.6991     0.2172     1.0874     2.6459   347.5200     0.7399     0.6569
 1088   21.740   3286.90     0.7903     0.0212     0.7095     0.2174     1.0867     2.6806   347.8400     0.7388     0.6607
 1089   21.760   3287.89     0.7957     0.0213     0.7096     0.2176     1.0940     2.6838   348.1600     0.7458     0.6604
 1090   21.780   3288.87     0.8099     0.0216     0.7155     0.2178     1.1091     2.6754   348.4800     0.7606     0.6502
 1091   21.800   3289.86     0.7988     0.0214     0.7209     0.2180     1.1021     2.6655   348.8000     0.7533     0.6693
 1092   21.820   3290.84     0.7914     0.0216     0.7112     0.2182     1.0911     2.7224   349.1200     0.7420     0.6677
 1093   21.840   3291.79     0.7868     0.0217     0.7173     0.2184     1.0870     2.7607   349.4400     0.7376     0.6731
 1094   21.860   3292.79     0.7889     0.0216     0.7200     0.2186     1.0914     2.7447   349.7600     0.7416     0.6763
 1095   21.880   3293.81     0.7952     0.0212     0.7244     0.2188     1.0988     2.6713   350.0800     0.7487     0.6731
 1096   21.900   3294.72     0.8051     0.0211     0.7248     0.2190     1.1098     2.6348   350.4000     0.7594     0.6670
 1097   21.920   3295.72     0.8023     0.0215     0.7269     0.2192     1.1071     2.6745   350.7200     0.7564     0.6697
 1098   21.940   3296.67     0.8050     0.0217     0.7280     0.2194     1.1107     2.6960   351.0400     0.7596     0.6694
 1099   21.960   3297.62     0.8072     0.0219     0.7246     0.2196     1.1120     2.7146   351.3600     0.7607     0.6655
 1100   21.980   3298.67     0.8064     0.0219     0.7308     0.2198     1.1132     2.7080   351.6800     0.7616     0.6708
 1101   22.000   3299.65     0.8036     0.0216     0.7259     0.2200     1.1095     2.6836   352.0000     0.7575     0.6711
 1102   22.020   3300.60     0.8021     0.0217     0.7286     0.2202     1.1070     2.7116   352.3200     0.7547     0.6700
 1103   22.040   3301.61     0.8098     0.0218     0.7320     0.2204     1.1169     2.6966   352.6400     0.7642     0.6682
 1104   22.060   3302.56     0.8066     0.0215     0.7373     0.2206     1.1153     2.6597   352.9600     0.7623     0.6747
 1105   22.080   3303.55     0.8127     0.0217     0.7336     0.2208     1.1226     2.6897   353.2800     0.7693     0.6719
 1106   22.100   3304.50     0.8274     0.0217     0.7321     0.2210     1.1336     2.6312   353.6000     0.7800     0.6513
 1107   22.120   3305.49     0.8234     0.0215     0.7362     0.2212     1.1335     2.6071   353.9200     0.7796     0.6633
 1108   22.140   3306.46     0.8232     0.0216     0.7306     0.2214     1.1298     2.6247   354.2400     0.7756     0.6559
 1109   22.160   3307.46     0.8280     0.0215     0.7314     0.2216     1.1362     2.6024   354.5600     0.7817     0.6552
 1110   22.180   3308.45     0.8217     0.0216     0.7397     0.2218     1.1308     2.6240   354.8800     0.7759     0.6627
 1111   22.200   3309.42     0.8206     0.0213     0.7348     0.2220     1.1311     2.5992   355.2000     0.7759     0.6667
 1112   22.220   3310.39     0.8161     0.0219     0.7308     0.2222     1.1221     2.6920   355.5200     0.7666     0.6605
 1113   22.240   3311.41     0.8253     0.0221     0.7401     0.2224     1.1355     2.6717   355.8400     0.7797     0.6623
 1114   22.260   3312.38     0.8176     0.0219     0.7448     0.2226     1.1295     2.6700   356.1600     0.7734     0.6724
 1115   22.280   3313.37     0.8187     0.0222     0.7473     0.2228     1.1319     2.7142   356.4800     0.7754     0.6742
 1116   22.300   3314.32     0.8179     0.0229     0.7364     0.2230     1.1303     2.8061   356.8000     0.7735     0.6733
 1117   22.320   3315.32     0.8202     0.0224     0.7413     0.2232     1.1292     2.7232   357.1200     0.7720     0.6638
 1118   22.340   3316.27     0.8166     0.0221     0.7453     0.2234     1.1297     2.7090   357.4400     0.7722     0.6761
 1119   22.360   3317.28     0.8246     0.0215     0.7443     0.2236     1.1381     2.6208   357.7600     0.7803     0.6701
 1120   22.380   3318.24     0.8362     0.0215     0.7419     0.2238     1.1476     2.5747   358.0800     0.7895     0.6556
 1121   22.400   3319.21     0.8288     0.0213     0.7616     0.2240     1.1431     2.5652   358.4000     0.7847     0.6680
 1122   22.420   3320.20     0.8334     0.0207     0.7640     0.2242     1.1559     2.4894   358.7200     0.7972     0.6820
 1123   22.440   3321.15     0.8363     0.0205     0.7674     0.2244     1.1580     2.4696   359.0400     0.7990     0.6778
 1124   22.460   3322.18     0.8226     0.0203     0.7613     0.2246     1.1468     2.4689   359.3600     0.7874     0.6949
 1125   22.480   3323.18     0.8132     0.0207     0.7565     0.2248     1.1326     2.5215   359.6800     0.7729     0.6932
 1126   22.500   3324.12     0.8162     0.0211     0.7618     0.2250     1.1341     2.5807   360.0000     0.7741     0.6874
 1127   22.520   3325.12     0.8177     0.0212     0.7627     0.2252     1.1382     2.6081   360.3200     0.7779     0.6916
 1128   22.540   3326.35     0.8197     0.0218     0.7607     0.2254     1.1396     2.6604   360.6400     0.7790     0.6884
 1129   22.560   3328.02     0.8213     0.0218     0.7582     0.2256     1.1402     2.6636   360.9600     0.7792     0.6847
 1130   22.580   3329.48     0.8212     0.0218     0.7598     0.2258     1.1396     2.6497   361.2800     0.7783     0.6841
 1131   22.600   3330.48     0.8231     0.0216     0.7686     0.2260     1.1451     2.6352   361.6000     0.7835     0.6899
 1132   22.620   3331.45     0.8300     0.0214     0.7679     0.2262     1.1519     2.5740   361.9200     0.7900     0.6838
 1133   22.640   3332.42     0.8212     0.0214     0.7712     0.2264     1.1446     2.5957   362.2400     0.7824     0.6948
 1134   22.660   3333.38     0.8141     0.0217     0.7710     0.2266     1.1376     2.6719   362.5600     0.7750     0.7013
 1135   22.680   3334.38     0.8272     0.0216     0.7708     0.2268     1.1508     2.6135   362.8800     0.7879     0.6898
 1136   22.700   3335.38     0.8269     0.0211     0.7762     0.2270     1.1519     2.5553   363.2000     0.7887     0.6932
 1137   22.720   3336.36     0.8276     0.0215     0.7751     0.2272     1.1539     2.6073   363.5200     0.7903     0.6953
 1138   22.740   3337.37     0.8409     0.0208     0.7794     0.2274     1.1685     2.4895   363.8400     0.8047     0.6868
 1139   22.760   3338.33     0.8525     0.0215     0.7854     0.2276     1.1802     2.5416   364.1600     0.8161     0.6773
 1140   22.780   3339.34     0.8528     0.0221     0.7886     0.2278     1.1839     2.5974   364.4800     0.8195     0.6843
 1141   22.800   3340.28     0.8532     0.0224     0.7936     0.2280     1.1850     2.6179   364.8000     0.8202     0.6854
 1142   22.820   3341.27     0.8259     0.0215     0.7945     0.2282     1.1619     2.5583   365.1200     0.7968     0.7178
 1143   22.840   3342.22     0.8328     0.0216     0.7356     0.2284     1.1344     2.6519   365.4400     0.7690     0.6368
 1144   22.860   3352.24     0.8238     0.0215     0.7526     0.2286     1.1383     2.6004   365.7600     0.7725     0.6734
 1145   22.880   3371.18     0.8208     0.0215     0.7636     0.2288     1.1399     2.5999   366.0800     0.7738     0.6862
 1146   22.900   3387.35     0.8191     0.0217     0.7790     0.2290     1.1434     2.6436   366.4000     0.7770     0.6990
 1147   22.920   3388.36     0.8267     0.0212     0.7804     0.2292     1.1558     2.5694   366.7200     0.7891     0.7025
 1148   22.940   3389.34     0.8155     0.0207     0.7831     0.2294     1.1442     2.5234   367.0400     0.7772     0.7120
 1149   22.960   3390.30     0.8142     0.0205     0.7896     0.2296     1.1457     2.5204   367.3600     0.7784     0.7193
 1150   22.980   3391.24     0.8165     0.0199     0.7859     0.2298     1.1464     2.4416   367.6800     0.7787     0.7135
 1151   23.000   3392.23     0.8064     0.0201     0.7873     0.2300     1.1372     2.4801   368.0000     0.7692     0.7249
 1152   23.020   3393.27     0.8100     0.0201     0.7847     0.2302     1.1400     2.4916   368.3200     0.7717     0.7201
 1153   23.040   3394.24     0.8111     0.0199     0.7844     0.2304     1.1398     2.4564   368.6400     0.7712     0.7163
 1154   23.060   3395.15     0.8054     0.0197     0.7834     0.2306     1.1353     2.4438   368.9600     0.7664     0.7242
 1155   23.080   3396.17     0.8065     0.0198     0.7777     0.2308     1.1341     2.4590   369.2800     0.7648     0.7179
 1156   23.100   3397.13     0.7965     0.0195     0.7804     0.2310     1.1239     2.4451   369.6000     0.7543     0.7272
 1157   23.120   3398.10     0.7960     0.0194     0.7802     0.2312     1.1241     2.4398   369.9200     0.7542     0.7293
 1158   23.140   3399.07     0.8006     0.0193     0.7746     0.2314     1.1262     2.4097   370.2400     0.7560     0.7195
 1159   23.160   3400.09     0.7968     0.0187     0.7784     0.2316     1.1238     2.3425   370.5600     0.7532     0.7262
 1160   23.180   3401.06     0.7964     0.0184     0.7765     0.2318     1.1224     2.3175   370.8800     0.7515     0.7243
 1161   23.200   3402.06     0.7897     0.0186     0.7736     0.2320     1.1155     2.3548   371.2000     0.7443     0.7305
 1162   23.220   3403.01     0.7886     0.0185     0.7712     0.2322     1.1127     2.3395   371.5200     0.7412     0.7281
 1163   23.240   3403.99     0.7777     0.0182     0.7725     0.2324     1.1016     2.3358   371.8400     0.7298     0.7384
 1164   23.260   3404.94     0.7795     0.0179     0.7712     0.2326     1.1038     2.2958   372.1600     0.7317     0.7375
 1165   23.280   3405.89     0.7784     0.0179     0.7634     0.2328     1.1011     2.2988   372.4800     0.7286     0.7349
 1166   23.300   3406.90     0.7642     0.0181     0.7791     0.2330     1.0906     2.3694   372.8000     0.7178     0.7580
 1167   23.320   3407.89     0.7601     0.0182     0.7825     0.2332     1.0881     2.3853   373.1200     0.7149     0.7659
 1168   23.340   3408.86     0.7612     0.0179     0.7830     0.2334     1.0900     2.3607   373.4400     0.7165     0.7667
 1169   23.360   3409.85     0.7651     0.0179     0.7761     0.2336     1.0919     2.3346   373.7600     0.7181     0.7583
 1170   23.380   3410.80     0.7570     0.0178     0.7813     0.2338     1.0844     2.3383   374.0800     0.7103     0.7684
 1171   23.400   3411.76     0.7490     0.0174     0.7891     0.2340     1.0794     2.3221   374.4000     0.7050     0.7838
 1172   23.420   3412.78     0.7471     0.0168     0.7919     0.2342     1.0793     2.2528   374.7200     0.7046     0.7902
 1173   23.440   3413.74     0.7437     0.0168     0.7918     0.2344     1.0771     2.2554   375.0400     0.7021     0.7967
 1174   23.460   3414.72     0.7409     0.0168     0.7908     0.2346     1.0726     2.2728   375.3600     0.6973     0.7962
 1175   23.480   3415.71     0.7445     0.0162     0.7861     0.2348     1.0758     2.1882   375.6800     0.7001     0.7914
 1176   23.500   3416.71     0.7460     0.0154     0.7783     0.2350     1.0733     2.0692   376.0000     0.6973     0.7806
 1177   23.520   3417.66     0.7431     0.0146     0.7674     0.2352     1.0664     1.9534   376.3200     0.6901     0.7745
 1178   23.540   3418.66     0.7302     0.0138     0.7673     0.2354     1.0525     1.8755   376.6400     0.6758     0.7872
 1179   23.560   3419.61     0.7216     0.0141     0.7661     0.2356     1.0434     1.9486   376.9600     0.6664     0.7962
 1180   23.580   3437.94     0.7397     0.0161     0.7253     0.2358     1.0526     2.2432   377.2800     0.6753     0.7596
 1181   23.600   3485.68     0.8022     0.0161     0.6681     0.2360     1.0911     2.2406   377.6000     0.7135     0.6441
 1182   23.620   3533.41     0.8646     0.0158     0.6157     0.2362     1.1295     2.1877   377.9200     0.7516     0.5287
 1183   23.640   3547.40     0.8816     0.0152     0.6171     0.2364     1.1423     1.7248   378.2400     0.7640     0.5028
 1184   23.660   3548.40     0.8798     0.0160     0.5864     0.2366     1.1280     1.7933   378.5600     0.7494     0.4729
 1185   23.680   3549.40     0.8047     0.0152     0.5994     0.2368     1.0547     1.8479   378.8800     0.6758     0.5306
 1186   23.700   3550.38     0.7782     0.0128     0.6352     0.2370     1.0431     1.6528   379.2000     0.6639     0.5931
 1187   23.720   3551.34     0.7866     0.0092     0.6566     0.2372     1.0600     1.1746   379.5200     0.6805     0.6079
 1188   23.740   3552.31     0.7913     0.0093     0.6677     0.2374     1.0703     1.1724   379.8400     0.6905     0.6184
 1189   23.760   3553.29     0.7909     0.0097     0.6893     0.2376     1.0763     1.2112   380.1600     0.6961     0.6348
 1190   23.780   3554.26     0.9247     0.0102     0.6887     0.2378     1.2195     1.2436   380.4800     0.8390     0.5562
 1191   23.800   3555.29     1.3602     0.0113     0.6149     0.2380     1.6324     1.0208   380.8000     1.2516     0.3316
 1192   23.820   3556.26     2.2685     0.0117     0.4731     0.2382     2.4859     0.5371   381.1200     2.1048     0.1348
 1193   23.840   3558.01     3.3321     0.0158     0.3660     0.2384     3.5008     0.5632   381.4400     3.1194     0.0651
 1194   23.860   3560.47     4.3212     0.0213     0.2621     0.2386     4.4464     0.7568   381.7600     4.0646     0.0307
 1195   23.880   3562.93     5.3104     0.0267     0.1608     0.2388     5.3920     0.7138   382.0800     5.0099    -0.0036
 1196   23.900   3564.41     5.5992     0.0322     0.1595     0.2390     5.6676     0.6645   382.4000     5.2852    -0.0144
 1197   23.920   3565.36     5.4680     0.0371     0.1708     0.2392     5.5387     0.6751   382.7200     5.1560    -0.0138
 1198   23.940   3566.34     5.4187     0.0440     0.2025     0.2394     5.4973     0.8100   383.0400     5.1142    -0.0103
 1199   23.960   3567.31     5.3330     0.0470     0.2248     0.2396     5.4253     0.8752   383.3600     5.0419    -0.0040
 1200   23.980   3578.73     5.2610     0.0472     0.2332     0.2398     5.3578     0.8966   383.6800     4.9742    -0.0019
 1201   24.000   3597.74     5.2558     0.0442     0.2411     0.2400     5.3559     0.8393   384.0000     4.9719    -0.0003
 1202   24.020   3616.21     5.2500     0.0417     0.2535     0.2402     5.3536     0.7924   384.3200     4.9693     0.0013
 1203   24.040   3617.20     5.2432     0.0415     0.2819     0.2404     5.3584     0.7921   384.6400     4.9737     0.0068
 1204   24.060   3618.17     5.2423     0.0404     0.2842     0.2406     5.3596     0.7713   384.9600     4.9747     0.0078
 1205   24.080   3619.15     5.3352     0.0371     0.2920     0.2408     5.4596     0.6975   385.2800     5.0743     0.0109
 1206   24.100   3620.12     5.5252     0.0305     0.2898     0.2410     5.6443     0.5564   385.6000     5.2587     0.0081
 1207   24.120   3621.10     5.8059     0.0276     0.3003     0.2412     5.9314     0.4799   385.9200     5.5455     0.0104
 1208   24.140   3622.11     6.5251     0.0273     0.2513     0.2414     6.6411     0.4305   386.2400     6.2549     0.0056
 1209   24.160   3623.10     7.3278     0.0307     0.1708     0.2416     7.4113     0.4266   386.5600     7.0247    -0.0060
 1210   24.180   3624.15     8.0109     0.0362     0.1256     0.2418     8.0673     0.4586   386.8800     7.6804    -0.0140
 1211   24.200   3625.12     8.2503     0.0435     0.1382     0.2420     8.3035     0.5291   387.2000     7.9163    -0.0146
 1212   24.220   3626.05     8.1727     0.0506     0.1685     0.2422     8.2394     0.6172   387.5200     7.8519    -0.0106
 1213   24.240   3627.06     8.0252     0.0564     0.1888     0.2424     8.1021     0.7009   387.8400     7.7142    -0.0077
 1214   24.260   3628.07     7.9647     0.0571     0.2050     0.2426     8.0486     0.7171   388.1600     7.6604    -0.0056
 1215   24.280   3629.05     8.0613     0.0572     0.2165     0.2428     8.1503     0.7061   388.4800     7.7618    -0.0040
 1216   24.300   3630.00     8.2673     0.0578     0.2307     0.2430     8.3625     0.6951   388.8000     7.9737    -0.0020
 1217   24.320   3631.00     8.6611     0.0583     0.2387     0.2432     8.7605     0.6827   389.1200     8.3714    -0.0008
 1218   24.340   3632.00     9.1846     0.0570     0.2272     0.2434     9.2829     0.6347   389.4400     8.8935    -0.0010
 1219   24.360   3632.99     9.9659     0.0572     0.2112     0.2436    10.0563     0.5938   389.7600     9.6665    -0.0029
 1220   24.380   3635.78    10.8336     0.0612     0.2102     0.2438    10.9217     0.5882   390.0800    10.5316    -0.0032
 1221   24.400   3642.09    11.6770     0.0681     0.2110     0.2440    11.7654     0.6285   390.4000    11.3750    -0.0030
 1222   24.420   3648.40    12.5203     0.0777     0.2117     0.2442    12.6092     0.6472   390.7200    12.2184    -0.0027
 1223   24.440   3651.31    13.4030     0.0874     0.2133     0.2444    13.4921     0.6659   391.0400    13.1010    -0.0025
 1224   24.460   3652.21    14.0266     0.0944     0.2302     0.2446    14.1204     0.6799   391.3600    13.7291    -0.0015
 1225   24.480   3653.18    14.3246     0.1025     0.2467     0.2448    14.4267     0.7176   391.6800    14.0350    -0.0001
 1226   24.500   3654.05    14.1294     0.1082     0.2501     0.2450    14.2348     0.7623   392.0000    13.8428     0.0004
 1227   24.520   3658.21    13.8285     0.1076     0.2424     0.2452    13.9314     0.7644   392.3200    13.5391     0.0000
 1228   24.540   3663.00    13.5288     0.1023     0.2347     0.2454    13.6285     0.7268   392.6400    13.2358    -0.0006
 1229   24.560   3666.13    13.4106     0.0969     0.2351     0.2456    13.5089     0.7203   392.9600    13.1160    -0.0009
 1230   24.580   3667.04    13.5660     0.0951     0.2401     0.2458    13.6667     0.7030   393.2800    13.2734    -0.0005
 1231   24.600   3667.99    13.7283     0.0955     0.2296     0.2460    13.8263     0.6998   393.6000    13.4327    -0.0009
 1232   24.620   3668.89    13.8055     0.0943     0.2260     0.2462    13.9008     0.6852   393.9200    13.5069    -0.0014
 1233   24.640   3669.78    13.9507     0.0916     0.2289     0.2464    14.0466     0.6605   394.2400    13.6523    -0.0013
 1234   24.660   3670.73    14.2182     0.0893     0.2369     0.2466    14.3165     0.6340   394.5600    13.9220    -0.0009
 1235   24.680   3671.68    14.6584     0.0869     0.2389     0.2468    14.7593     0.6030   394.8800    14.3644    -0.0005
 1236   24.700   3672.59    15.4716     0.0848     0.2253     0.2470    15.5681     0.5650   395.2000    15.1729    -0.0011
 1237   24.720   3673.54    16.5216     0.0828     0.2074     0.2472    16.6122     0.5182   395.5200    16.2167    -0.0019
 1238   24.740   3674.46    17.4781     0.0833     0.1840     0.2474    17.5570     0.4845   395.8400    17.1612    -0.0035
 1239   24.760   3675.42    18.3180     0.0891     0.1896     0.2476    18.3975     0.4980   396.1600    18.0013    -0.0032
 1240   24.780   3676.35    19.4654     0.0940     0.1865     0.2478    19.5435     0.4960   396.4800    19.1470    -0.0032
 1241   24.800   3677.28    20.4674     0.0988     0.1924     0.2480    20.5459     0.4940   396.8000    20.1491    -0.0030
 1242   24.820   3678.18    21.2413     0.1047     0.2088     0.2482    21.3283     0.5012   397.1200    20.9312    -0.0020
 1243   24.840   3679.12    21.6251     0.1118     0.2085     0.2484    21.7132     0.5197   397.4400    21.3157    -0.0018
 1244   24.860   3680.07    21.6140     0.1145     0.2313     0.2486    21.7078     0.5277   397.7600    21.3101    -0.0012
 1245   24.880   3689.97    21.2872     0.1167     0.2338     0.2488    21.3850     0.5408   398.0800    20.9869    -0.0008
 1246   24.900   3701.51    20.9493     0.1174     0.2363     0.2490    21.0482     0.5442   398.4000    20.6498    -0.0007
 1247   24.920   3710.43    20.5596     0.1172     0.2430     0.2492    20.6604     0.5533   398.7200    20.2617    -0.0005
 1248   24.940   3711.34    19.8120     0.1164     0.2441     0.2494    19.9138     0.5749   399.0400    19.5148    -0.0004
 1249   24.960   3712.27    18.9516     0.1146     0.2444     0.2496    19.0561     0.5912   399.3600    18.6567     0.0000
 1250   24.980   3713.18    18.2318     0.1090     0.2461     0.2498    18.3330     0.5849   399.6800    17.9333    -0.0005
 1251   25.000   3714.12    17.8819     0.1040     0.2507     0.2500    17.9868     0.5779   400.0000    17.5868     0.0000
 1252   25.020   3715.07    17.7120     0.1029     0.2503     0.2502    17.8168     0.5796   400.3200    17.4165     0.0000
 1253   25.040   3715.99    17.8301     0.1027     0.2467     0.2504    17.9351     0.5796   400.6400    17.5345     0.0000
 1254   25.060   3716.90    18.2765     0.1009     0.2221     0.2506    18.3755     0.5596   400.9600    17.9746    -0.0008
 1255   25.080   3717.85    18.9298     0.0980     0.1698     0.2508    19.0027     0.5264   401.2800    18.6014    -0.0042
 1256   25.100   3718.76    19.4138     0.0977     0.1697     0.2510    19.4855     0.5079   401.6000    19.0839    -0.0042
 1257   25.120   3719.74    19.8093     0.1008     0.1775     0.2512    19.8833     0.5139   401.9200    19.4814    -0.0039
 1258   25.140   3720.64    20.1411     0.1056     0.1685     0.2514    20.2137     0.5283   402.2400    19.8114    -0.0040
 1259   25.160   3721.62    20.2922     0.1110     0.1712     0.2516    20.3619     0.5470   402.5600    19.9593    -0.0043
 1260   25.180   3722.54    20.4905     0.1163     0.2058     0.2518    20.5722     0.5711   402.8800    20.1694    -0.0028
 1261   25.200   3723.49    20.6867     0.1204     0.2251     0.2520    20.7783     0.5838   403.2000    20.3751    -0.0017
 1262   25.220   3724.41    20.7128     0.1241     0.2393     0.2522    20.8115     0.5995   403.5200    20.4080    -0.0008
 1263   25.240   3725.31    20.8619     0.1288     0.2385     0.2524    20.9643     0.6201   403.8400    20.5604    -0.0004
 1264   25.260   3726.29    21.1598     0.1309     0.2323     0.2526    21.2565     0.6216   404.1600    20.8524    -0.0011
 1265   25.280   3727.24    21.2540     0.1331     0.2438     0.2528    21.3536     0.6273   404.4800    20.9491    -0.0007
 1266   25.300   3728.15    21.4074     0.1426     0.2466     0.2530    21.5110     0.6678   404.8000    21.1062    -0.0003
 1267   25.320   3729.13    21.8077     0.1529     0.2502     0.2532    21.9124     0.7076   405.1200    21.5073    -0.0002
 1268   25.340   3730.04    22.3299     0.1603     0.2513     0.2534    22.4353     0.7253   405.4400    22.0298    -0.0001
 1269   25.360   3730.97    22.8509     0.1645     0.2444     0.2536    22.9548     0.7260   405.7600    22.5490    -0.0003
 1270   25.380   3731.94    23.1383     0.1667     0.2509     0.2538    23.2423     0.7227   406.0800    22.8362    -0.0003
 1271   25.400   3732.86    23.2385     0.1661     0.2485     0.2540    23.3437     0.7161   406.4000    22.9373    -0.0002
 1272   25.420   3733.81    23.3171     0.1671     0.2445     0.2542    23.4204     0.7173   406.7200    23.0136    -0.0004
 1273   25.440   3734.78    23.4157     0.1624     0.2511     0.2544    23.5204     0.6948   407.0400    23.1133    -0.0002
 1274   25.460   3735.72    23.6715     0.1587     0.2528     0.2546    23.7773     0.6738   407.3600    23.3700    -0.0001
 1275   25.480   3736.68    24.1619     0.1632     0.2539     0.2548    24.2689     0.6801   407.6800    23.8612     0.0000
 1276   25.500   3737.63    24.9107     0.1686     0.2543     0.2550    25.0174     0.6834   408.0000    24.6094     0.0000
 1277   25.520   3738.58    25.9772     0.1701     0.2466     0.2552    26.0815     0.6626   408.3200    25.6732    -0.0003
 1278   25.540   3739.55    27.5241     0.1693     0.2519     0.2554    27.6298     0.6255   408.6400    27.2211    -0.0001
 1279   25.560   3740.52    29.2311     0.1686     0.2508     0.2556    29.3362     0.5861   408.9600    28.9272    -0.0002
 1280   25.580   3741.48    31.0678     0.1800     0.2566     0.2558    31.1750     0.5887   409.2800    30.7657     0.0000
 1281   25.600   3742.50    32.7382     0.1898     0.2364     0.2560    32.8394     0.5891   409.6000    32.4298    -0.0005
 1282   25.620   3743.44    33.8610     0.1957     0.2206     0.2562    33.9562     0.5823   409.9200    33.5463    -0.0009
 1283   25.640   3744.41    34.4076     0.1939     0.2218     0.2564    34.5038     0.5642   410.2400    34.0936    -0.0008
 1284   25.660   3745.37    34.4569     0.1968     0.2305     0.2566    34.5521     0.5714   410.5600    34.1416    -0.0009
 1285   25.680   3746.34    34.6494     0.1960     0.2388     0.2568    34.7486     0.5664   410.8800    34.3377    -0.0006
 1286   25.700   3747.31    34.9434     0.1861     0.2478     0.2570    35.0447     0.5336   411.2000    34.6335    -0.0005
 1287   25.720   3748.24    35.2280     0.1816     0.2536     0.2572    35.3325     0.5158   411.5200    34.9210    -0.0002
 1288   25.740   3749.27    35.0375     0.1787     0.2523     0.2574    35.1422     0.5092   411.8400    34.7303    -0.0002
 1289   25.760   3750.25    34.4497     0.1767     0.2448     0.2576    34.5523     0.5105   412.1600    34.1401    -0.0004
 1290   25.780   3752.73    30.5590     0.1746     0.2449     0.2578    30.6708     0.5700   412.4800    30.2583     0.0003
 1291   25.800   3753.75    33.4584     0.1801     0.2473     0.2580    33.5609     0.5380   412.8000    33.1481    -0.0004
 1292   25.820   3754.70    33.2184     0.1910     0.2555     0.2582    33.3267     0.5735   413.1200    32.9136     0.0000
 1293   25.840   3755.73    32.7594     0.2000     0.2493     0.2584    32.8648     0.6069   413.4400    32.4514    -0.0002
 1294   25.860   3756.61    32.2287     0.2037     0.2473     0.2586    32.3323     0.6267   413.7600    31.9185    -0.0004
 1295   25.880   3757.59    31.4806     0.1992     0.2646     0.2588    31.5898     0.6270   414.0800    31.1757     0.0000
 1296   25.900   3758.51    30.7328     0.1919     0.2520     0.2590    30.8410     0.6188   414.4000    30.4266    -0.0001
 1297   25.920   3759.46    30.1475     0.1890     0.2481     0.2592    30.2524     0.6225   414.7200    29.8377    -0.0003
 1298   25.940   3760.42    29.7657     0.1789     0.2455     0.2594    29.8678     0.5981   415.0400    29.4527    -0.0006
 1299   25.960   3761.38    29.3757     0.1655     0.2609     0.2596    29.4820     0.5592   415.3600    29.0666    -0.0002
 1300   25.980   3762.30    28.5204     0.1585     0.2513     0.2598    28.6272     0.5457   415.6800    28.2115    -0.0002
 1301   26.000   3763.28    27.0913     0.1501     0.2495     0.2600    27.1932     0.5423   416.0000    26.7772    -0.0006
 1302   26.020   3764.19    25.5730     0.1328     0.2449     0.2602    25.6761     0.5089   416.3200    25.2598    -0.0006
 1303   26.040   3765.14    24.2991     0.1154     0.2491     0.2604    24.4035     0.4701   416.6400    23.9868    -0.0005
 1304   26.060   3766.05    23.8653     0.1043     0.2506     0.2606    23.9700     0.4369   416.9600    23.5530    -0.0005
 1305   26.080   3766.99    24.4308     0.0947     0.2535     0.2608    24.5368     0.3903   417.2800    24.1195    -0.0003
 1306   26.100   3767.96    26.2714     0.0871     0.2571     0.2610    26.3799     0.3376   417.6000    25.9623    -0.0001
 1307   26.120   3768.97    28.6105     0.0873     0.2559     0.2612    28.7175     0.3105   417.9200    28.2996    -0.0002
 1308   26.140   3769.99    31.0174     0.0910     0.2520     0.2614    31.1255     0.2997   418.2400    30.7072    -0.0001
 1309   26.160   3770.97    33.1307     0.0944     0.2324     0.2616    33.2308     0.2897   418.5600    32.8122    -0.0007
 1310   26.180   3771.96    34.9447     0.0984     0.2054     0.2618    35.0348     0.2858   418.8800    34.6159    -0.0014
 1311   26.200   3772.95    36.4237     0.1045     0.2164     0.2620    36.5125     0.2898   419.2000    36.0933    -0.0014
 1312   26.220   3773.90    37.2371     0.1113     0.2107     0.2622    37.3276     0.3005   419.5200    36.9081    -0.0013
 1313   26.240   3774.85    37.2449     0.1226     0.2219     0.2624    37.3356     0.3283   419.8400    36.9158    -0.0013
 1314   26.260   3775.83    36.6172     0.1292     0.2203     0.2626    36.7072     0.3510   420.1600    36.2870    -0.0013
 1315   26.280   3776.79    35.8902     0.1274     0.2253     0.2628    35.9833     0.3527   420.4800    35.5628    -0.0012
 1316   26.300   3777.75    35.1979     0.1217     0.2358     0.2630    35.2964     0.3439   420.8000    34.8756    -0.0008
 1317   26.320   3778.70    34.6090     0.1181     0.2428     0.2632    34.7109     0.3402   421.1200    34.2898    -0.0006
 1318   26.340   3779.70    33.8785     0.1160     0.2426     0.2634    33.9827     0.3405   421.4400    33.5612    -0.0005
 1319   26.360   3780.65    33.3545     0.1130     0.2301     0.2636    33.4578     0.3373   421.7600    33.0360    -0.0005
 1320   26.380   3781.61    33.1188     0.1096     0.2038     0.2638    33.2068     0.3307   422.0800    32.7847    -0.0017
 1321   26.400   3782.60    33.5661     0.1066     0.2360     0.2640    33.6515     0.3205   422.4000    33.2291    -0.0018
 1322   26.420   3783.63    34.3888     0.1073     0.2371     0.2642    34.4883     0.3156   422.7200    34.0656    -0.0008
 1323   26.440   3784.59    35.0571     0.1130     0.2538     0.2644    35.1633     0.3245   423.0400    34.7403    -0.0003
 1324   26.460   3785.51    35.3957     0.1196     0.2405     0.2646    35.4974     0.3385   423.3600    35.0740    -0.0006
 1325   26.480   3786.52    35.7110     0.1156     0.2509     0.2648    35.8165     0.3227   423.6800    35.3928    -0.0004
 1326   26.500   3787.50    36.2705     0.1150     0.2611     0.2650    36.3789     0.3143   424.0000    35.9549    -0.0002
 1327   26.520   3788.82    37.7494     0.1143     0.2633     0.2652    37.8600     0.3059   424.3200    37.4357     0.0000
 1328   26.540   3789.77    39.1929     0.1206     0.2563     0.2654    39.2993     0.3113   424.6400    38.8747    -0.0003
 1329   26.560   3790.76    41.0926     0.1395     0.2620     0.2656    41.2037     0.3446   424.9600    40.7788     0.0000
 1330   26.580   3791.96    42.1509     0.1585     0.2598     0.2658    42.2603     0.3787   425.2800    41.8350    -0.0001
 1331   26.600   3794.18    41.2170     0.1719     0.2581     0.2660    41.3256     0.4068   425.6000    40.9000    -0.0002
 1332   26.620   3796.40    40.2830     0.1821     0.2563     0.2662    40.3909     0.4310   425.9200    39.9650    -0.0002
 1333   26.640   3798.62    39.3490     0.1768     0.2546     0.2664    39.4561     0.4190   426.2400    39.0299    -0.0003
 1334   26.660   3810.29    38.0855     0.1648     0.2526     0.2666    38.1919     0.4267   426.5600    37.7653    -0.0004
 1335   26.680   3836.56    37.1111     0.1537     0.2505     0.2668    37.2166     0.3992   426.8800    36.7897    -0.0004
 1336   26.700   3855.93    36.5238     0.1431     0.2629     0.2670    36.6312     0.3916   427.2000    36.2040    -0.0003
 1337   26.720   3856.87    36.9123     0.1394     0.2489     0.2672    37.0205     0.3786   427.5200    36.5930    -0.0003
 1338   26.740   3857.85    37.0167     0.1396     0.2624     0.2674    37.1258     0.3766   427.8400    36.6980    -0.0002
 1339   26.760   3858.80    36.9372     0.1360     0.2508     0.2676    37.0435     0.3683   428.1600    36.6153    -0.0004
 1340   26.780   3859.80    37.1690     0.1401     0.2489     0.2678    37.2752     0.3779   428.4800    36.8467    -0.0004
 1341   26.800   3860.79    37.1673     0.1507     0.2560     0.2680    37.2748     0.4055   428.8000    36.8460    -0.0003
 1342   26.820   3861.71    36.9347     0.1616     0.2667     0.2682    37.0434     0.4359   429.1200    36.6143    -0.0003
 1343   26.840   3862.66    36.0931     0.1612     0.2722     0.2684    36.2057     0.4419   429.4400    35.7763     0.0000
 1344   26.860   3863.62    35.2382     0.1583     0.2588     0.2686    35.3500     0.4440   429.7600    34.9203    -0.0001
 1345   26.880   3864.61    34.1265     0.1545     0.2550     0.2688    34.2308     0.4449   430.0800    33.8007    -0.0006
 1346   26.900   3865.53    32.5945     0.1490     0.2663     0.2690    32.7048     0.4483   430.4000    32.2744    -0.0002
 1347   26.920   3866.45    30.9562     0.1410     0.2728     0.2692    31.0727     0.4482   430.7200    30.6419     0.0003
 1348   26.940   3867.41    29.7324     0.1325     0.2715     0.2694    29.8446     0.4400   431.0400    29.4136    -0.0001
 1349   26.960   3868.38    29.0188     0.1237     0.2673     0.2696    29.1305     0.4235   431.3600    28.6992    -0.0001
 1350   26.980   3869.34    28.9082     0.1215     0.2763     0.2698    29.0228     0.4211   431.6800    28.5912     0.0001
 1351   27.000   3870.29    29.2484     0.1198     0.2680     0.2700    29.3592     0.4112   432.0000    28.9272    -0.0002
 1352   27.020   3871.29    29.6014     0.1156     0.2730     0.2702    29.7141     0.3921   432.3200    29.2818    -0.0001
 1353   27.040   3872.23    29.8509     0.1109     0.2684     0.2704    29.9642     0.3721   432.6400    29.5315     0.0000
 1354   27.060   3873.18    30.4236     0.1039     0.2661     0.2706    30.5361     0.3429   432.9600    30.1031    -0.0001
 1355   27.080   3874.17    31.7176     0.0963     0.2675     0.2708    31.8285     0.3072   433.2800    31.3952    -0.0002
 1356   27.100   3875.07    33.0735     0.0939     0.2683     0.2710    33.1860     0.2858   433.6000    32.7524    -0.0001
 1357   27.120   3876.07    34.2519     0.0944     0.2707     0.2712    34.3653     0.2771   433.9200    33.9314     0.0000
 1358   27.140   3877.10    35.5531     0.0995     0.2742     0.2714    35.6688     0.2819   434.2400    35.2345     0.0001
 1359   27.160   3878.10    37.0938     0.1070     0.2718     0.2716    37.2066     0.2911   434.5600    36.7721    -0.0001
 1360   27.180   3879.06    38.4533                0.2771     0.2718    38.5691              434.8800    38.1342     0.0001
 1361   27.200   3880.03    39.3616                0.2773     0.2720    39.4766              435.2000    39.0414     0.0001
 1362   27.220   3881.03    40.0501                0.2744     0.2722    40.1667              435.5200    39.7312     0.0001
 1363   27.240   3882.03    40.5430                0.2844     0.2724    40.6617              435.8400    40.2258     0.0003
 1364   27.260   3883.02    41.0429                0.2859     0.2726    41.1630              436.1600    40.7268     0.0003
 1365   27.274   3883.69    41.4600                           0.2727    41.5801              436.3843    41.1437     0.0003
 
 
