

 Program UNIPLOT                         version 05.36.02
 _______________
 (c) Fugro Netherlands Marine, Nootdorp, The Netherlands


 ASCII representation of data plotted on a graph.

 This ASCII file presents data interpolated to values per fixed depth interval.
 The data are corrected for the depth-offset differences between the various 
 transducers in the penetrometer.

 The records at the start of penetration may include no values or anomalous
 values where a depth offset implies incomplete penetration of a particular
 sensor into the ground.

 The records at the end of penetration may include no values for data channels
 where the transducer did not reach this depth.

 The reference level for test values is (1) the ground surface for onshore tests and (2) the seafloor for nearshore and offshore tests.

 UNICAS data file          : CPT-1013.001                            
 Output using command file : PlotASCII.cmd

 ASCII file created at : date          :06-Nov-2021
                         time          :10:35:37
 Project number                        :20024805
 Date of testing                       :05-Nov-2021
 Location                              :Hong Kong Offshore Wind Farm Project
 Test name                             :CPT-1013
 Penetrometer                          :F7.5CKE2HAW2/B/2711
 Serial no                             :1701-2711

 Table description:
 Column ID                             :Parameter name
 ___________________________________________________________________________________
 Rec                                   :Record ID, Record ID [-]
 Depth                                 :Depth, Depth [m]
 Time                                  :Time, Time [s]
 Cone                                  :Cone Resistance, Cone Resistance [MPa]
 Friction                              :Sleeve Friction, Sleeve Friction [MPa]
 Pore 2                                :Porewater Pressure, Porewater Pressure at Shoulder [MPa]
 HydroPress                            :Hydrostatic Pressure, Hydrostatic Pressure [MPa]
 qt                                    :Total Cone Resistance, Total Cone Resistance [MPa]
 Fric_ratio                            :Friction Ratio, Friction Ratio [%]
 SigmaVert                             :Vertical stress, Vertical stress [kPa] as specified in ground model
 Qnet                                  :Net Cone Resistance, Net Cone Resistance [MPa], unit weight as specified in ground model
 Bq                                    :Porewater Pressure Ratio, Porewater Pressure Ratio [-], unit weight as specified in ground model


 Data table:
  Rec    Depth      Time       Cone   Friction     Pore 2 HydroPress         qt Fric_ratio  SigmaVert       Qnet         Bq
   No        m         s        MPa        MPa        MPa        MPa        MPa          %        kPa        MPa          -
    1    0.000   1688.75     0.0000                           0.0000     0.0000                0.0000     0.0000           
    2    0.020   1689.69     0.0035                0.0004     0.0002     0.0037                0.3200     0.0033     0.0484
    3    0.040   1690.69     0.0024                0.0007     0.0004     0.0027                0.6400     0.0020     0.1261
    4    0.060   1691.68     0.0077                0.0007     0.0006     0.0080                0.9600     0.0070     0.0282
    5    0.080   1692.63     0.0037                0.0008     0.0008     0.0041                1.2800     0.0028     0.0207
    6    0.100   1693.61     0.0048     0.0006     0.0007     0.0010     0.0051    13.8374     1.6000     0.0035    -0.0500
    7    0.120   1694.55     0.0046     0.0009    -0.0005     0.0012     0.0049    54.9159     1.9200     0.0029     0.5892
    8    0.140   1695.53     0.0096     0.0009    -0.0015     0.0014     0.0088     9.8603     2.2400     0.0066    -0.4994
    9    0.160   1697.92     0.0108     0.0006    -0.0011     0.0016     0.0103     6.1609     2.5600     0.0077    -0.3758
   10    0.180   1700.61     0.0117     0.0012    -0.0007     0.0018     0.0114    11.6824     2.8800     0.0085    -0.3144
   11    0.200   1702.95     0.0128     0.0007     0.0001     0.0020     0.0127     5.7422     3.2000     0.0095    -0.2404
   12    0.220   1703.95     0.0147     0.0009     0.0016     0.0022     0.0152     5.6489     3.5200     0.0116    -0.0883
   13    0.240   1704.92     0.0151     0.0012     0.0025     0.0024     0.0160     8.2232     3.8400     0.0122    -0.0301
   14    0.260   1705.90     0.0237     0.0013     0.0024     0.0026     0.0248     5.8077     4.1600     0.0206    -0.0048
   15    0.280   1706.85     0.0209     0.0015     0.0025     0.0028     0.0220     6.9838     4.4800     0.0175    -0.0181
   16    0.300   1707.82     0.0236     0.0019     0.0030     0.0030     0.0248     8.9175     4.8000     0.0200    -0.0165
   17    0.320   1708.82     0.0279     0.0018     0.0024     0.0032     0.0291     6.5919     5.1200     0.0240    -0.0169
   18    0.340   1709.75     0.0259     0.0020     0.0024     0.0034     0.0271     7.3869     5.4400     0.0216    -0.0327
   19    0.360   1710.77     0.0296     0.0022     0.0021     0.0036     0.0305     7.7133     5.7600     0.0248    -0.0567
   20    0.380   1711.72     0.0260     0.0025     0.0025     0.0038     0.0272     8.6964     6.0800     0.0211    -0.0533
   21    0.400   1712.71     0.0259     0.0027     0.0023     0.0040     0.0268    10.0863     6.4000     0.0204    -0.0947
   22    0.420   1713.63     0.0279     0.0030     0.0029     0.0042     0.0291    11.1324     6.7200     0.0224    -0.0590
   23    0.440   1714.64     0.0294     0.0026     0.0027     0.0044     0.0305     9.5006     7.0400     0.0234    -0.0746
   24    0.460   1715.61     0.0285     0.0027     0.0033     0.0046     0.0298     9.6618     7.3600     0.0224    -0.0698
   25    0.480   1716.97     0.0278     0.0028     0.0050     0.0048     0.0298    10.7753     7.6800     0.0221    -0.0048
   26    0.500   1751.37     0.0253     0.0025     0.0046     0.0050     0.0273     8.8792     8.0000     0.0193    -0.0184
   27    0.520   1783.85     0.0223     0.0024     0.0037     0.0052     0.0241    10.3985     8.3200     0.0157    -0.0642
   28    0.540   1784.82     0.0220     0.0029     0.0035     0.0054     0.0234    13.4343     8.6400     0.0148    -0.1397
   29    0.560   1785.80     0.0226     0.0027     0.0037     0.0056     0.0241    11.6081     8.9600     0.0152    -0.1351
   30    0.580   1786.78     0.0217     0.0024     0.0048     0.0058     0.0236    11.1251     9.2800     0.0143    -0.0982
   31    0.600   1787.73     0.0251     0.0026     0.0057     0.0060     0.0273    11.7050     9.6000     0.0177    -0.0360
   32    0.620   1788.70     0.0246     0.0025     0.0063     0.0062     0.0269    11.1954     9.9200     0.0170    -0.0418
   33    0.640   1789.68     0.0228     0.0027     0.0080     0.0064     0.0259    11.4458    10.2400     0.0156     0.0647
   34    0.660   1790.62     0.0216     0.0022     0.0092     0.0066     0.0253    11.2745    10.5600     0.0147     0.1529
   35    0.680   1791.59     0.0232     0.0026     0.0101     0.0068     0.0273    11.6842    10.8800     0.0164     0.1793
   36    0.700   1792.55     0.0243     0.0029     0.0101     0.0070     0.0287    10.6353    11.2000     0.0175     0.2078
   37    0.720   1793.53     0.0249     0.0021     0.0049     0.0072     0.0274     8.6487    11.5200     0.0159    -0.0914
   38    0.740   1794.47     0.0259     0.0025     0.0057     0.0074     0.0284     9.4482    11.8400     0.0166    -0.0849
   39    0.760   1795.45     0.0268     0.0023     0.0081     0.0076     0.0300     9.0581    12.1600     0.0178    -0.0092
   40    0.780   1796.41     0.0290     0.0028     0.0098     0.0078     0.0329     9.6004    12.4800     0.0204     0.0679
   41    0.800   1797.36     0.0270     0.0023     0.0109     0.0080     0.0313     8.2618    12.8000     0.0185     0.1253
   42    0.820   1798.32     0.0285     0.0026     0.0121     0.0082     0.0334     9.6123    13.1200     0.0203     0.1688
   43    0.840   1799.30     0.0267     0.0026     0.0100     0.0084     0.0317     9.4217    13.4400     0.0182     0.1865
   44    0.860   1800.25     0.0291     0.0025     0.0115     0.0086     0.0336     8.8669    13.7600     0.0198     0.1055
   45    0.880   1801.22     0.0279     0.0025     0.0136     0.0088     0.0334     8.3652    14.0800     0.0193     0.2249
   46    0.900   1802.16     0.0310     0.0024     0.0147     0.0090     0.0371     8.4176    14.4000     0.0227     0.2446
   47    0.920   1803.12     0.0252     0.0022     0.0152     0.0092     0.0315     8.0106    14.7200     0.0168     0.3502
   48    0.940   1804.10     0.0284     0.0023     0.0159     0.0094     0.0350     8.4690    15.0400     0.0200     0.3179
   49    0.960   1805.08     0.0262     0.0025     0.0165     0.0096     0.0331     9.7085    15.3600     0.0177     0.3833
   50    0.980   1806.03     0.0266     0.0024     0.0175     0.0098     0.0337     8.3243    15.6800     0.0181     0.4051
   51    1.000   1807.02     0.0290     0.0026     0.0186     0.0100     0.0367     8.9877    16.0000     0.0207     0.4019
   52    1.020   1807.97     0.0315     0.0026     0.0196     0.0102     0.0395     9.0226    16.3200     0.0232     0.3918
   53    1.040   1808.92     0.0279     0.0026     0.0201     0.0104     0.0363    10.1849    16.6400     0.0196     0.4990
   54    1.060   1809.92     0.0307     0.0025     0.0205     0.0106     0.0393     7.9938    16.9600     0.0224     0.4431
   55    1.080   1810.88     0.0336     0.0026     0.0211     0.0108     0.0423     7.8839    17.2800     0.0250     0.4018
   56    1.100   1811.86     0.0326     0.0026     0.0219     0.0110     0.0417     8.1303    17.6000     0.0241     0.4434
   57    1.120   1812.80     0.0362     0.0024     0.0226     0.0112     0.0457     7.0546    17.9200     0.0277     0.4097
   58    1.140   1813.78     0.0335     0.0026     0.0241     0.0114     0.0435     7.5091    18.2400     0.0253     0.4926
   59    1.160   1814.73     0.0333     0.0029     0.0249     0.0116     0.0435     8.6921    18.5600     0.0250     0.5137
   60    1.180   1815.72     0.0331     0.0027     0.0260     0.0118     0.0438     7.8024    18.8800     0.0250     0.5487
   61    1.200   1816.67     0.0349     0.0026     0.0254     0.0120     0.0458     7.3083    19.2000     0.0266     0.5231
   62    1.220   1817.64     0.0359     0.0029     0.0237     0.0122     0.0460     8.1264    19.5200     0.0264     0.4432
   63    1.240   1818.63     0.0391     0.0029     0.0237     0.0124     0.0490     7.2890    19.8400     0.0292     0.3846
   64    1.260   1819.60     0.0369     0.0030     0.0234     0.0126     0.0467     8.0821    20.1600     0.0265     0.4062
   65    1.280   1820.58     0.0401     0.0031     0.0229     0.0128     0.0497     8.2606    20.4800     0.0293     0.3529
   66    1.300   1821.55     0.0433     0.0025     0.0236     0.0130     0.0531     5.8826    20.8000     0.0323     0.3219
   67    1.320   1822.52     0.0400     0.0027     0.0247     0.0132     0.0502     6.7740    21.1200     0.0291     0.3857
   68    1.340   1823.49     0.0415     0.0036     0.0244     0.0134     0.0517     8.6126    21.4400     0.0303     0.3641
   69    1.360   1824.43     0.0377     0.0031     0.0249     0.0136     0.0481     8.4743    21.7600     0.0263     0.4198
   70    1.380   1825.40     0.0409     0.0030     0.0264     0.0138     0.0518     7.3876    22.0800     0.0298     0.4150
   71    1.400   1826.36     0.0425     0.0031     0.0275     0.0140     0.0540     7.5483    22.4000     0.0316     0.4220
   72    1.420   1827.34     0.0446     0.0031     0.0274     0.0142     0.0562     6.9539    22.7200     0.0335     0.3980
   73    1.440   1828.30     0.0427     0.0033     0.0290     0.0144     0.0546     7.4042    23.0400     0.0316     0.4398
   74    1.460   1829.29     0.0438     0.0031     0.0305     0.0146     0.0563     7.3732    23.3600     0.0330     0.4645
   75    1.480   1830.23     0.0446     0.0029     0.0297     0.0148     0.0570     6.4817    23.6800     0.0333     0.4430
   76    1.500   1831.17     0.0477     0.0028     0.0304     0.0150     0.0603     5.8954    24.0000     0.0363     0.4126
   77    1.520   1832.16     0.0457     0.0031     0.0310     0.0152     0.0588     6.5501    24.3200     0.0345     0.4593
   78    1.540   1833.11     0.0490     0.0033     0.0325     0.0154     0.0623     7.0145    24.6400     0.0376     0.4321
   79    1.560   1834.07     0.0460     0.0029     0.0328     0.0156     0.0601     6.3866    24.9600     0.0352     0.5159
   80    1.580   1835.04     0.0488     0.0030     0.0316     0.0158     0.0619     5.9201    25.2800     0.0366     0.4236
   81    1.600   1836.00     0.0466     0.0025     0.0329     0.0160     0.0601     5.4922    25.6000     0.0345     0.4697
   82    1.620   1836.98     0.0522     0.0026     0.0349     0.0162     0.0666     5.0391    25.9200     0.0407     0.4442
   83    1.640   1837.94     0.0557     0.0028     0.0365     0.0164     0.0708     5.2496    26.2400     0.0446     0.4406
   84    1.660   1838.88     0.0556     0.0030     0.0388     0.0166     0.0716     5.2906    26.5600     0.0450     0.4728
   85    1.680   1839.83     0.0595     0.0029     0.0365     0.0168     0.0758     4.8738    26.8800     0.0489     0.4454
   86    1.700   1840.82     0.0557     0.0029     0.0353     0.0170     0.0701     5.0111    27.2000     0.0429     0.4043
   87    1.720   1841.82     0.0530     0.0030     0.0355     0.0172     0.0679     5.5840    27.5200     0.0404     0.4561
   88    1.740   1842.76     0.0558     0.0030     0.0380     0.0174     0.0715     5.3417    27.8400     0.0437     0.4581
   89    1.760   1843.74     0.0509     0.0030     0.0391     0.0176     0.0670     5.8852    28.1600     0.0388     0.5308
   90    1.780   1844.65     0.0515     0.0030     0.0385     0.0178     0.0674     5.9407    28.4800     0.0389     0.5109
   91    1.800   1845.62     0.0503     0.0033     0.0404     0.0180     0.0671     6.4447    28.8000     0.0383     0.5746
   92    1.820   1846.59     0.0514     0.0031     0.0416     0.0182     0.0687     5.8713    29.1200     0.0396     0.5819
   93    1.840   1847.56     0.0503     0.0026     0.0415     0.0184     0.0677     5.0241    29.4400     0.0383     0.6057
   94    1.860   1848.52     0.0514     0.0030     0.0420     0.0186     0.0689     5.8112    29.7600     0.0391     0.5888
   95    1.880   1849.50     0.0486     0.0030     0.0438     0.0188     0.0669     6.1903    30.0800     0.0368     0.6700
   96    1.900   1850.43     0.0443     0.0026     0.0441     0.0190     0.0628     5.7148    30.4000     0.0324     0.7770
   97    1.920   1851.40     0.0450     0.0028     0.0432     0.0192     0.0633     6.0747    30.7200     0.0325     0.7425
   98    1.940   1852.38     0.0477     0.0026     0.0427     0.0194     0.0654     5.5471    31.0400     0.0344     0.6592
   99    1.960   1853.36     0.0457     0.0026     0.0427     0.0196     0.0636     5.6898    31.3600     0.0323     0.7150
  100    1.980   1854.31     0.0446     0.0029     0.0436     0.0198     0.0628     6.3918    31.6800     0.0311     0.7552
  101    2.000   1855.24     0.0422     0.0030     0.0439     0.0200     0.0604     6.7514    32.0000     0.0284     0.8257
  102    2.020   1856.18     0.0419     0.0031     0.0435     0.0202     0.0602     7.0329    32.3200     0.0279     0.8378
  103    2.040   1857.22     0.0442     0.0028     0.0434     0.0204     0.0625     6.6590    32.6400     0.0299     0.7745
  104    2.060   1858.20     0.0399     0.0027     0.0442     0.0206     0.0587     6.8298    32.9600     0.0258     0.9377
  105    2.080   1859.11     0.0409     0.0023     0.0453     0.0208     0.0596     5.4099    33.2800     0.0263     0.9004
  106    2.100   1863.98     0.0383     0.0026     0.0449     0.0210     0.0574     6.3462    33.6000     0.0238     1.0505
  107    2.120   1873.42     0.0341     0.0024     0.0434     0.0212     0.0525     5.9655    33.9200     0.0186     1.2463
  108    2.140   1876.87     0.0348     0.0026     0.0414     0.0214     0.0525     7.2706    34.2400     0.0182     1.1382
  109    2.160   1877.89     0.0377     0.0024     0.0434     0.0216     0.0555     6.6219    34.5600     0.0210     0.9971
  110    2.180   1878.86     0.0390     0.0024     0.0444     0.0218     0.0575     6.4347    34.8800     0.0226     0.9915
  111    2.200   1879.83     0.0405     0.0027     0.0452     0.0220     0.0592     6.5396    35.2000     0.0240     0.9410
  112    2.220   1880.81     0.0431     0.0026     0.0463     0.0222     0.0625     6.1606    35.5200     0.0270     0.8867
  113    2.240   1881.75     0.0435     0.0024     0.0469     0.0224     0.0632     5.6344    35.8400     0.0274     0.9014
  114    2.260   1882.73     0.0484     0.0025     0.0460     0.0226     0.0676     5.8309    36.1600     0.0314     0.7340
  115    2.280   1883.67     0.0456     0.0025     0.0459     0.0228     0.0654     5.2972    36.4800     0.0290     0.8413
  116    2.300   1884.63     0.0502     0.0027     0.0420     0.0230     0.0681     5.3148    36.8000     0.0313     0.6275
  117    2.320   1885.60     0.0506     0.0029     0.0396     0.0232     0.0675     5.7284    37.1200     0.0304     0.5651
  118    2.340   1886.58     0.0514     0.0030     0.0394     0.0234     0.0679     5.8132    37.4400     0.0304     0.5189
  119    2.360   1887.54     0.0497     0.0030     0.0406     0.0236     0.0666     5.8980    37.7600     0.0288     0.5785
  120    2.380   1888.49     0.0520     0.0029     0.0406     0.0238     0.0691     5.6708    38.0800     0.0310     0.5434
  121    2.400   1889.46     0.0549     0.0027     0.0403     0.0240     0.0720     5.0440    38.4000     0.0336     0.4949
  122    2.420   1890.44     0.0579     0.0029     0.0410     0.0242     0.0750     5.1948    38.7200     0.0363     0.4553
  123    2.440   1907.20     0.0589     0.0025     0.0419     0.0244     0.0763     4.3764    39.0400     0.0373     0.4614
  124    2.460   1929.75     0.0609     0.0028     0.0428     0.0246     0.0788     4.8448    39.3600     0.0394     0.4544
  125    2.480   1945.09     0.0606     0.0030     0.0423     0.0248     0.0784     4.7534    39.6800     0.0388     0.4572
  126    2.500   1946.05     0.0588     0.0028     0.0422     0.0250     0.0765     4.8350    40.0000     0.0365     0.4695
  127    2.520   1947.01     0.0593     0.0028     0.0424     0.0252     0.0772     4.6236    40.3200     0.0369     0.4701
  128    2.540   1947.97     0.0582     0.0033     0.0420     0.0254     0.0758     5.7997    40.6400     0.0352     0.4753
  129    2.560   1948.94     0.0625     0.0031     0.0436     0.0256     0.0805     4.9291    40.9600     0.0396     0.4409
  130    2.580   1949.86     0.0590     0.0031     0.0454     0.0258     0.0780     5.2155    41.2800     0.0367     0.5287
  131    2.600   1950.80     0.0609     0.0031     0.0472     0.0260     0.0803     5.1935    41.6000     0.0387     0.5267
  132    2.620   1951.77     0.0627     0.0030     0.0457     0.0262     0.0828     4.8790    41.9200     0.0408     0.5296
  133    2.640   1952.75     0.0648     0.0030     0.0457     0.0264     0.0831     4.4495    42.2400     0.0409     0.4197
  134    2.660   1953.72     0.0630     0.0030     0.0482     0.0266     0.0829     4.7876    42.5600     0.0403     0.5174
  135    2.680   1954.68     0.0664     0.0029     0.0505     0.0268     0.0874     4.6520    42.8800     0.0445     0.5204
  136    2.700   1955.62     0.0671     0.0031     0.0518     0.0270     0.0887     4.5649    43.2000     0.0455     0.5345
  137    2.720   1956.57     0.0645     0.0031     0.0533     0.0272     0.0867     4.6339    43.5200     0.0432     0.5971
  138    2.740   1957.56     0.0632     0.0028     0.0545     0.0274     0.0859     4.3201    43.8400     0.0421     0.6356
  139    2.760   1958.49     0.0659     0.0032     0.0546     0.0276     0.0888     4.9155    44.1600     0.0447     0.6047
  140    2.780   1959.46     0.0641     0.0032     0.0549     0.0278     0.0870     5.1846    44.4800     0.0425     0.6293
  141    2.800   1960.44     0.0647     0.0034     0.0547     0.0280     0.0878     5.2131    44.8000     0.0430     0.6295
  142    2.820   1961.36     0.0630     0.0034     0.0553     0.0282     0.0862     5.3076    45.1200     0.0411     0.6592
  143    2.840   1962.34     0.0683     0.0033     0.0563     0.0284     0.0917     5.0834    45.4400     0.0463     0.5931
  144    2.860   1963.28     0.0635     0.0033     0.0578     0.0286     0.0876     4.9803    45.7600     0.0418     0.6892
  145    2.880   1964.27     0.0647     0.0034     0.0554     0.0288     0.0887     5.2994    46.0800     0.0426     0.6644
  146    2.900   1965.24     0.0674     0.0032     0.0552     0.0290     0.0907     4.8353    46.4000     0.0443     0.5954
  147    2.920   1966.18     0.0689     0.0032     0.0555     0.0292     0.0923     4.7075    46.7200     0.0456     0.5842
  148    2.940   1967.14     0.0651     0.0035     0.0560     0.0294     0.0884     5.3422    47.0400     0.0414     0.6312
  149    2.960   1968.09     0.0610     0.0037     0.0569     0.0296     0.0848     6.1904    47.3600     0.0374     0.7213
  150    2.980   1969.06     0.0614     0.0032     0.0572     0.0298     0.0854     5.2692    47.6800     0.0378     0.7261
  151    3.000   1970.00     0.0655     0.0031     0.0585     0.0300     0.0899     4.8498    48.0000     0.0419     0.6692
  152    3.020   1970.97     0.0674     0.0031     0.0586     0.0302     0.0918     4.5434    48.3200     0.0435     0.6443
  153    3.040   1971.90     0.0650     0.0036     0.0605     0.0304     0.0903     5.4187    48.6400     0.0416     0.7132
  154    3.060   1972.87     0.0632     0.0032     0.0616     0.0306     0.0889     5.1081    48.9600     0.0399     0.7658
  155    3.080   1973.84     0.0635     0.0034     0.0623     0.0308     0.0895     5.3586    49.2800     0.0402     0.7770
  156    3.100   1974.76     0.0648     0.0035     0.0619     0.0310     0.0910     5.5099    49.6000     0.0414     0.7576
  157    3.120   1975.74     0.0653     0.0033     0.0613     0.0312     0.0909     5.0388    49.9200     0.0409     0.7241
  158    3.140   1976.70     0.0658     0.0030     0.0620     0.0314     0.0917     4.6130    50.2400     0.0415     0.7318
  159    3.160   1977.67     0.0647     0.0035     0.0619     0.0316     0.0908     5.3324    50.5600     0.0403     0.7615
  160    3.180   1978.64     0.0637     0.0032     0.0614     0.0318     0.0895     4.9705    50.8800     0.0386     0.7644
  161    3.200   1979.56     0.0599     0.0036     0.0609     0.0320     0.0856     5.7557    51.2000     0.0344     0.8502
  162    3.220   1980.53     0.0583     0.0030     0.0610     0.0322     0.0840     4.9214    51.5200     0.0324     0.8964
  163    3.240   1981.51     0.0617     0.0030     0.0609     0.0324     0.0872     4.9348    51.8400     0.0354     0.8041
  164    3.260   1982.47     0.0621     0.0025     0.0612     0.0326     0.0878     3.9993    52.1600     0.0356     0.8008
  165    3.280   1983.46     0.0639     0.0026     0.0606     0.0328     0.0894     4.0608    52.4800     0.0370     0.7550
  166    3.300   1984.40     0.0636     0.0029     0.0610     0.0330     0.0893     4.4477    52.8000     0.0365     0.7807
  167    3.320   1985.36     0.0612     0.0028     0.0631     0.0332     0.0874     4.6926    53.1200     0.0343     0.8549
  168    3.340   1986.32     0.0608     0.0026     0.0632     0.0334     0.0872     4.1923    53.4400     0.0338     0.8758
  169    3.360   1987.26     0.0636     0.0029     0.0616     0.0336     0.0900     4.5954    53.7600     0.0362     0.8076
  170    3.380   1988.23     0.0638     0.0032     0.0599     0.0338     0.0889     4.8325    54.0800     0.0348     0.7482
  171    3.400   1989.18     0.0633     0.0030     0.0605     0.0340     0.0888     4.5425    54.4000     0.0344     0.7749
  172    3.420   1990.17     0.0641     0.0029     0.0602     0.0342     0.0892     4.4671    54.7200     0.0345     0.7456
  173    3.440   1991.11     0.0652     0.0027     0.0611     0.0344     0.0908     4.1653    55.0400     0.0357     0.7421
  174    3.460   1992.09     0.0688     0.0031     0.0610     0.0346     0.0945     4.4934    55.3600     0.0391     0.6748
  175    3.480   1993.07     0.0681     0.0032     0.0606     0.0348     0.0936     4.4171    55.6800     0.0379     0.6874
  176    3.500   1994.02     0.0731     0.0032     0.0603     0.0350     0.0984     4.3407    56.0000     0.0424     0.5980
  177    3.520   1995.00     0.0745     0.0031     0.0604     0.0352     0.1000     4.1840    56.3200     0.0436     0.5813
  178    3.540   1995.92     0.0735     0.0035     0.0584     0.0354     0.0985     4.8089    56.6400     0.0418     0.5729
  179    3.560   1996.91     0.0723     0.0033     0.0576     0.0356     0.0967     4.6435    56.9600     0.0397     0.5659
  180    3.580   1999.55     0.0723     0.0032     0.0586     0.0358     0.0967     4.3107    57.2800     0.0394     0.5723
  181    3.600   2003.24     0.0698     0.0032     0.0595     0.0360     0.0947     4.3354    57.6000     0.0371     0.6296
  182    3.620   2006.02     0.0680     0.0034     0.0574     0.0362     0.0925     4.9094    57.9200     0.0346     0.6419
  183    3.640   2006.99     0.0673     0.0033     0.0568     0.0364     0.0913     4.8304    58.2400     0.0330     0.6247
  184    3.660   2007.93     0.0665     0.0029     0.0563     0.0366     0.0901     4.3756    58.5600     0.0315     0.6178
  185    3.680   2008.89     0.0655     0.0029     0.0561     0.0368     0.0890     4.4286    58.8800     0.0301     0.6368
  186    3.700   2009.89     0.0622     0.0033     0.0560     0.0370     0.0859     5.2323    59.2000     0.0267     0.7314
  187    3.720   2010.87     0.0598     0.0030     0.0571     0.0372     0.0835     5.0679    59.5200     0.0240     0.8121
  188    3.740   2011.83     0.0647     0.0028     0.0595     0.0374     0.0894     4.2884    59.8400     0.0296     0.7329
  189    3.760   2012.80     0.0613     0.0032     0.0603     0.0376     0.0867     5.2389    60.1600     0.0265     0.8644
  190    3.780   2013.71     0.0611     0.0030     0.0612     0.0378     0.0867     4.7499    60.4800     0.0262     0.8794
  191    3.800   2014.69     0.0583     0.0029     0.0611     0.0380     0.0841     4.8514    60.8000     0.0233     1.0056
  192    3.820   2015.64     0.0612     0.0033     0.0612     0.0382     0.0868     5.5353    61.1200     0.0257     0.8820
  193    3.840   2016.61     0.0604     0.0032     0.0625     0.0384     0.0866     5.2378    61.4400     0.0252     0.9524
  194    3.860   2017.55     0.0649     0.0037     0.0623     0.0386     0.0911     5.6040    61.7600     0.0293     0.8087
  195    3.880   2018.54     0.0639     0.0033     0.0637     0.0388     0.0905     5.3118    62.0800     0.0284     0.8601
  196    3.900   2019.51     0.0647     0.0032     0.0640     0.0390     0.0916     5.0685    62.4000     0.0292     0.8581
  197    3.920   2020.45     0.0624     0.0031     0.0663     0.0392     0.0898     4.8560    62.7200     0.0271     0.9718
  198    3.940   2021.41     0.0615     0.0028     0.0666     0.0394     0.0893     4.6588    63.0400     0.0263     1.0206
  199    3.960   2022.36     0.0570     0.0030     0.0687     0.0396     0.0855     4.9864    63.3600     0.0222     1.2873
  200    3.980   2023.32     0.0602     0.0030     0.0686     0.0398     0.0891     5.1697    63.6800     0.0254     1.1398
  201    4.000   2024.30     0.0578     0.0028     0.0699     0.0400     0.0871     4.8315    64.0000     0.0231     1.2847
  202    4.020   2025.24     0.0573     0.0027     0.0710     0.0402     0.0869     4.5950    64.3200     0.0226     1.3417
  203    4.040   2026.23     0.0614     0.0027     0.0709     0.0404     0.0911     4.4203    64.6400     0.0264     1.1417
  204    4.060   2027.17     0.0606     0.0025     0.0724     0.0406     0.0908     4.0155    64.9600     0.0258     1.2153
  205    4.080   2028.14     0.0607     0.0029     0.0728     0.0408     0.0912     4.9131    65.2800     0.0260     1.2278
  206    4.100   2029.11     0.0608     0.0027     0.0715     0.0410     0.0912     4.3907    65.6000     0.0256     1.2270
  207    4.120   2030.07     0.0619     0.0028     0.0697     0.0412     0.0914     4.3608    65.9200     0.0255     1.1487
  208    4.140   2031.04     0.0592     0.0027     0.0691     0.0414     0.0882     4.3760    66.2400     0.0220     1.2660
  209    4.160   2032.00     0.0586     0.0027     0.0675     0.0416     0.0873     4.5846    66.5600     0.0208     1.2879
  210    4.180   2032.97     0.0569     0.0027     0.0682     0.0418     0.0854     4.7211    66.8800     0.0185     1.4116
  211    4.200   2033.93     0.0599     0.0029     0.0696     0.0420     0.0890     4.8339    67.2000     0.0218     1.2488
  212    4.220   2034.89     0.0629     0.0025     0.0707     0.0422     0.0924     4.0084    67.5200     0.0249     1.1351
  213    4.240   2035.86     0.0616     0.0027     0.0714     0.0424     0.0916     4.3254    67.8400     0.0237     1.2191
  214    4.260   2036.83     0.0619     0.0029     0.0713     0.0426     0.0921     4.7442    68.1600     0.0239     1.2259
  215    4.280   2037.80     0.0582     0.0029     0.0719     0.0428     0.0882     4.9741    68.4800     0.0197     1.4538
  216    4.300   2038.75     0.0580     0.0030     0.0681     0.0430     0.0874     5.2040    68.8000     0.0186     1.4570
  217    4.320   2039.69     0.0586     0.0028     0.0677     0.0432     0.0869     4.8664    69.1200     0.0177     1.3553
  218    4.340   2040.70     0.0600     0.0028     0.0696     0.0434     0.0889     4.6636    69.4400     0.0195     1.3052
  219    4.360   2041.64     0.0570     0.0023     0.0719     0.0436     0.0870     3.9030    69.7600     0.0172     1.6197
  220    4.380   2058.67     0.0593     0.0025     0.0728     0.0438     0.0897     4.4772    70.0800     0.0197     1.5197
  221    4.400   2077.84     0.0627     0.0022     0.0736     0.0440     0.0935     3.8353    70.4000     0.0231     1.3268
  222    4.420   2097.01     0.0661     0.0019     0.0742     0.0442     0.0973     3.2598    70.7200     0.0266     1.1340
  223    4.440   2099.14     0.0674     0.0019     0.0736     0.0444     0.0985     2.8315    71.0400     0.0274     1.0797
  224    4.460   2100.11     0.0720     0.0023     0.0732     0.0446     0.1027     3.2820    71.3600     0.0313     0.9059
  225    4.480   2101.06     0.0713     0.0019     0.0748     0.0448     0.1024     2.7048    71.6800     0.0308     0.9528
  226    4.500   2102.03     0.0735     0.0020     0.0766     0.0450     0.1056     2.8217    72.0000     0.0336     0.9362
  227    4.520   2102.99     0.0780     0.0023     0.0733     0.0452     0.1097     3.1106    72.3200     0.0374     0.8178
  228    4.540   2103.95     0.0837     0.0020     0.0645     0.0454     0.1109     2.4627    72.6400     0.0383     0.5114
  229    4.560   2104.92     0.0770     0.0021     0.0699     0.0456     0.1059     2.6824    72.9600     0.0329     0.7038
  230    4.580   2105.89     0.0793     0.0025     0.0721     0.0458     0.1094     3.1682    73.2800     0.0361     0.7147
  231    4.600   2106.86     0.0822     0.0024     0.0718     0.0460     0.1121     2.9611    73.6000     0.0385     0.6552
  232    4.620   2107.80     0.0806     0.0024     0.0725     0.0462     0.1110     2.9506    73.9200     0.0371     0.7068
  233    4.640   2108.77     0.0831     0.0024     0.0715     0.0464     0.1132     3.0278    74.2400     0.0389     0.6474
  234    4.660   2109.71     0.0739     0.0023     0.0694     0.0466     0.1033     3.0230    74.5600     0.0287     0.8166
  235    4.680   2110.68     0.0763     0.0029     0.0699     0.0468     0.1053     3.8033    74.8800     0.0304     0.7268
  236    4.700   2111.67     0.0746     0.0023     0.0715     0.0470     0.1047     3.0955    75.2000     0.0295     0.8349
  237    4.720   2112.63     0.0722     0.0025     0.0696     0.0472     0.1013     3.4555    75.5200     0.0258     0.8572
  238    4.740   2113.58     0.0728     0.0021     0.0719     0.0474     0.1028     2.8320    75.8400     0.0270     0.8930
  239    4.760   2114.54     0.0758     0.0024     0.0732     0.0476     0.1063     3.2408    76.1600     0.0301     0.8308
  240    4.780   2115.50     0.0789     0.0023     0.0745     0.0478     0.1100     2.8977    76.4800     0.0336     0.7888
  241    4.800   2116.47     0.0831     0.0024     0.0756     0.0480     0.1145     3.0069    76.8000     0.0377     0.7131
  242    4.820   2117.45     0.0830     0.0026     0.0774     0.0482     0.1153     3.0673    77.1200     0.0381     0.7496
  243    4.840   2118.41     0.0872     0.0026     0.0767     0.0484     0.1197     3.0078    77.4400     0.0423     0.6878
  244    4.860   2119.37     0.0882     0.0023     0.0752     0.0486     0.1195     2.6041    77.7600     0.0418     0.6217
  245    4.880   2120.31     0.0909     0.0025     0.0726     0.0488     0.1222     2.7025    78.0800     0.0441     0.5821
  246    4.900   2121.27     0.0880     0.0023     0.0757     0.0490     0.1194     2.6203    78.4000     0.0410     0.6283
  247    4.920   2122.24     0.0865     0.0025     0.0770     0.0492     0.1183     2.8756    78.7200     0.0396     0.6699
  248    4.940   2123.15     0.0855     0.0022     0.0768     0.0494     0.1181     2.5107    79.0400     0.0391     0.7251
  249    4.960   2124.14     0.0879     0.0027     0.0721     0.0496     0.1189     3.1031    79.3600     0.0395     0.6136
  250    4.980   2125.10     0.0926     0.0021     0.0697     0.0498     0.1219     2.3194    79.6800     0.0422     0.4722
  251    5.000   2126.03     0.0954     0.0026     0.0684     0.0500     0.1245     2.7747    80.0000     0.0445     0.4354
  252    5.020   2127.00     0.0979     0.0025     0.0675     0.0502     0.1263     2.5147    80.3200     0.0460     0.3813
  253    5.040   2127.95     0.0979     0.0027     0.0661     0.0504     0.1257     2.7588    80.6400     0.0451     0.3516
  254    5.060   2128.89     0.0962     0.0026     0.0666     0.0506     0.1243     2.6409    80.9600     0.0433     0.3768
  255    5.080   2129.83     0.1004     0.0026     0.0640     0.0508     0.1280     2.6340    81.2800     0.0467     0.3178
  256    5.100   2130.79     0.1000     0.0027     0.0636     0.0510     0.1265     2.6968    81.6000     0.0449     0.2684
  257    5.120   2131.75     0.1043     0.0027     0.0656     0.0512     0.1314     2.6942    81.9200     0.0495     0.2720
  258    5.140   2132.74     0.0972     0.0027     0.0680     0.0514     0.1255     2.7397    82.2400     0.0433     0.3705
  259    5.160   2133.66     0.0913     0.0030     0.0692     0.0516     0.1202     3.1548    82.5600     0.0377     0.4599
  260    5.180   2134.61     0.0947     0.0028     0.0700     0.0518     0.1238     2.9812    82.8800     0.0410     0.4270
  261    5.200   2135.59     0.0902     0.0030     0.0726     0.0520     0.1204     3.2452    83.2000     0.0372     0.5377
  262    5.220   2136.56     0.0914     0.0033     0.0719     0.0522     0.1217     3.6971    83.5200     0.0382     0.5206
  263    5.240   2137.54     0.0930     0.0032     0.0748     0.0524     0.1240     3.4176    83.8400     0.0401     0.5332
  264    5.260   2138.50     0.0952     0.0027     0.0758     0.0526     0.1270     2.8893    84.1600     0.0428     0.5383
  265    5.280   2139.45     0.0933     0.0027     0.0772     0.0528     0.1255     2.8832    84.4800     0.0410     0.5829
  266    5.300   2140.37     0.0920     0.0027     0.0793     0.0530     0.1253     2.9566    84.8000     0.0405     0.6463
  267    5.320   2141.34     0.0951     0.0028     0.0755     0.0532     0.1269     3.0267    85.1200     0.0418     0.5389
  268    5.340   2142.31     0.0979     0.0028     0.0754     0.0534     0.1295     2.9324    85.4400     0.0441     0.4959
  269    5.360   2143.28     0.0968     0.0029     0.0754     0.0536     0.1284     2.9892    85.7600     0.0427     0.5077
  270    5.380   2144.25     0.1006     0.0028     0.0756     0.0538     0.1321     2.8369    86.0800     0.0461     0.4624
  271    5.400   2145.20     0.0993     0.0029     0.0773     0.0540     0.1320     2.9226    86.4000     0.0456     0.5204
  272    5.420   2146.17     0.0951     0.0030     0.0768     0.0542     0.1276     3.1614    86.7200     0.0409     0.5679
  273    5.440   2147.09     0.0935     0.0026     0.0755     0.0544     0.1253     2.8683    87.0400     0.0382     0.5546
  274    5.460   2148.07     0.0900     0.0027     0.0752     0.0546     0.1218     2.9948    87.3600     0.0344     0.6105
  275    5.480   2149.03     0.0927     0.0028     0.0741     0.0548     0.1238     2.9824    87.6800     0.0362     0.5345
  276    5.500   2150.01     0.0932     0.0027     0.0748     0.0550     0.1246     2.8300    88.0000     0.0366     0.5403
  277    5.520   2150.97     0.0971     0.0023     0.0755     0.0552     0.1287     2.3778    88.3200     0.0404     0.5023
  278    5.540   2151.94     0.0942     0.0027     0.0784     0.0554     0.1267     2.8632    88.6400     0.0380     0.5771
  279    5.560   2152.92     0.0977     0.0025     0.0795     0.0556     0.1310     2.5856    88.9600     0.0421     0.5675
  280    5.580   2153.88     0.0993     0.0027     0.0827     0.0558     0.1338     2.7067    89.2800     0.0445     0.5907
  281    5.600   2154.86     0.1015     0.0029     0.0834     0.0560     0.1365     2.8720    89.6000     0.0469     0.5811
  282    5.620   2155.81     0.1080     0.0029     0.0841     0.0562     0.1433     2.7631    89.9200     0.0533     0.5222
  283    5.640   2156.78     0.1075     0.0027     0.0832     0.0564     0.1430     2.4480    90.2400     0.0527     0.5335
  284    5.660   2157.77     0.1124     0.0029     0.0815     0.0566     0.1465     2.6398    90.5600     0.0560     0.4421
  285    5.680   2158.74     0.1062     0.0031     0.0794     0.0568     0.1403     2.8750    90.8800     0.0494     0.4951
  286    5.700   2159.67     0.1115     0.0035     0.0737     0.0570     0.1428     3.1708    91.2000     0.0516     0.3431
  287    5.720   2160.65     0.1095     0.0032     0.0731     0.0572     0.1403     2.8668    91.5200     0.0488     0.3311
  288    5.740   2161.60     0.1104     0.0034     0.0748     0.0574     0.1413     3.1943    91.8400     0.0494     0.3281
  289    5.760   2162.58     0.1082     0.0035     0.0764     0.0576     0.1402     3.2048    92.1600     0.0480     0.3865
  290    5.780   2163.54     0.1099     0.0029     0.0795     0.0578     0.1427     2.6002    92.4800     0.0502     0.4057
  291    5.800   2164.52     0.1054     0.0028     0.0822     0.0580     0.1396     2.6469    92.8000     0.0468     0.5005
  292    5.820   2165.46     0.1032     0.0031     0.0843     0.0582     0.1384     2.9851    93.1200     0.0453     0.5635
  293    5.840   2166.42     0.1111     0.0034     0.0861     0.0584     0.1469     3.0727    93.4400     0.0534     0.4996
  294    5.860   2167.40     0.1093     0.0033     0.0888     0.0586     0.1462     2.9957    93.7600     0.0525     0.5593
  295    5.880   2168.40     0.1108     0.0033     0.0755     0.0588     0.1453     3.0490    94.0800     0.0512     0.4565
  296    5.900   2169.38     0.1112     0.0032     0.0797     0.0590     0.1437     2.8164    94.4000     0.0493     0.3763
  297    5.920   2170.36     0.1122     0.0030     0.0846     0.0592     0.1478     2.7050    94.7200     0.0531     0.4823
  298    5.940   2171.29     0.1061     0.0029     0.0847     0.0594     0.1421     2.7376    95.0400     0.0470     0.5571
  299    5.960   2172.24     0.1037     0.0033     0.0848     0.0596     0.1391     3.1541    95.3600     0.0437     0.5651
  300    5.980   2173.22     0.1009     0.0030     0.0872     0.0598     0.1371     2.9839    95.6800     0.0414     0.6347
  301    6.000   2174.21     0.1041     0.0032     0.0903     0.0600     0.1417     3.1110    96.0000     0.0457     0.6463
  302    6.020   2175.19     0.1118     0.0028     0.0929     0.0602     0.1505     2.6289    96.3200     0.0542     0.5906
  303    6.040   2176.16     0.1182     0.0027     0.0950     0.0604     0.1578     2.3649    96.6400     0.0612     0.5549
  304    6.060   2177.10     0.1187     0.0026     0.0927     0.0606     0.1580     2.1728    96.9600     0.0610     0.5413
  305    6.080   2178.07     0.1201     0.0026     0.0927     0.0608     0.1591     2.1978    97.2800     0.0618     0.5153
  306    6.100   2179.04     0.1252     0.0029     0.0920     0.0610     0.1643     2.3021    97.6000     0.0667     0.4785
  307    6.120   2180.02     0.1282     0.0029     0.0867     0.0612     0.1652     2.2553    97.9200     0.0673     0.3995
  308    6.140   2180.96     0.1306     0.0030     0.0835     0.0614     0.1660     2.3058    98.2400     0.0678     0.3380
  309    6.160   2181.96     0.1309     0.0031     0.0805     0.0616     0.1652     2.3515    98.5600     0.0667     0.3009
  310    6.180   2182.90     0.1285     0.0032     0.0788     0.0618     0.1618     2.4434    98.8800     0.0629     0.2780
  311    6.200   2183.87     0.1234     0.0035     0.0763     0.0620     0.1558     2.7867    99.2000     0.0566     0.2683
  312    6.220   2184.87     0.1263     0.0032     0.0751     0.0622     0.1580     2.5645    99.5200     0.0585     0.2285
  313    6.240   2185.82     0.1272     0.0035     0.0750     0.0624     0.1585     2.7564    99.8400     0.0586     0.2059
  314    6.260   2186.80     0.1236     0.0032     0.0740     0.0626     0.1546     2.5537   100.1600     0.0544     0.2063
  315    6.280   2187.79     0.1278     0.0033     0.0775     0.0628     0.1597     2.5735   100.4800     0.0592     0.2221
  316    6.300   2188.73     0.1234     0.0031     0.0813     0.0630     0.1571     2.4344   100.8000     0.0563     0.3048
  317    6.320   2189.67     0.1222     0.0033     0.0835     0.0632     0.1569     2.6387   101.1200     0.0558     0.3499
  318    6.340   2190.64     0.1264     0.0036     0.0869     0.0634     0.1624     2.8742   101.4400     0.0609     0.3636
  319    6.360   2191.62     0.1267     0.0037     0.0890     0.0636     0.1638     2.9873   101.7600     0.0621     0.4001
  320    6.380   2192.58     0.1281     0.0037     0.0923     0.0638     0.1665     2.8822   102.0800     0.0644     0.4286
  321    6.400   2193.55     0.1279     0.0036     0.0938     0.0640     0.1670     2.8812   102.4000     0.0646     0.4516
  322    6.420   2200.20     0.1322     0.0039     0.0944     0.0642     0.1720     2.9762   102.7200     0.0693     0.4424
  323    6.440   2219.25     0.1368     0.0033     0.0935     0.0644     0.1762     2.5086   103.0400     0.0732     0.4054
  324    6.460   2238.29     0.1414     0.0034     0.0930     0.0646     0.1804     2.5721   103.3600     0.0771     0.3684
  325    6.480   2243.45     0.1422     0.0033     0.0931     0.0648     0.1816     2.3094   103.6800     0.0779     0.3702
  326    6.500   2244.42     0.1426     0.0033     0.0933     0.0650     0.1817     2.3070   104.0000     0.0777     0.3613
  327    6.520   2245.41     0.1416     0.0033     0.0916     0.0652     0.1804     2.2910   104.3200     0.0761     0.3583
  328    6.540   2246.38     0.1463     0.0033     0.0907     0.0654     0.1843     2.3079   104.6400     0.0796     0.3145
  329    6.560   2247.30     0.1472     0.0033     0.0911     0.0656     0.1851     2.2513   104.9600     0.0802     0.3096
  330    6.580   2248.27     0.1461     0.0034     0.0895     0.0658     0.1840     2.3283   105.2800     0.0787     0.3099
  331    6.600   2249.23     0.1416     0.0036     0.0911     0.0660     0.1792     2.5082   105.6000     0.0736     0.3192
  332    6.620   2250.20     0.1446     0.0034     0.0944     0.0662     0.1837     2.3917   105.9200     0.0778     0.3455
  333    6.640   2251.17     0.1481     0.0034     0.0970     0.0664     0.1885     2.3573   106.2400     0.0823     0.3613
  334    6.660   2252.12     0.1495     0.0033     0.1002     0.0666     0.1910     2.2117   106.5600     0.0845     0.3822
  335    6.680   2253.07     0.1525     0.0037     0.1017     0.0668     0.1951     2.4596   106.8800     0.0882     0.3931
  336    6.700   2254.05     0.1498     0.0033     0.1039     0.0670     0.1931     2.1531   107.2000     0.0859     0.4201
  337    6.720   2255.01     0.1539     0.0034     0.1036     0.0672     0.1978     2.2848   107.5200     0.0903     0.4144
  338    6.740   2255.95     0.1592     0.0033     0.1017     0.0674     0.2018     2.0716   107.8400     0.0940     0.3625
  339    6.760   2256.92     0.1609     0.0038     0.0994     0.0676     0.2029     2.3550   108.1600     0.0948     0.3438
  340    6.780   2257.89     0.1525     0.0040     0.1028     0.0678     0.1951     2.5641   108.4800     0.0867     0.3903
  341    6.800   2258.84     0.1486     0.0037     0.1005     0.0680     0.1911     2.4559   108.8000     0.0823     0.4032
  342    6.820   2259.80     0.1488     0.0035     0.1004     0.0682     0.1910     2.3630   109.1200     0.0819     0.3941
  343    6.840   2260.77     0.1483     0.0040     0.1001     0.0684     0.1902     2.7300   109.4400     0.0808     0.3896
  344    6.860   2261.76     0.1471     0.0038     0.1012     0.0686     0.1893     2.5857   109.7600     0.0795     0.3998
  345    6.880   2262.70     0.1415     0.0035     0.1017     0.0688     0.1842     2.4528   110.0800     0.0742     0.4449
  346    6.900   2263.65     0.1378     0.0034     0.1039     0.0690     0.1809     2.4883   110.4000     0.0705     0.4783
  347    6.920   2264.62     0.1393     0.0037     0.1072     0.0692     0.1840     2.6974   110.7200     0.0732     0.5056
  348    6.940   2265.60     0.1387     0.0033     0.1093     0.0694     0.1844     2.3211   111.0400     0.0733     0.5389
  349    6.960   2266.54     0.1378     0.0035     0.1104     0.0696     0.1840     2.5116   111.3600     0.0727     0.5554
  350    6.980   2267.47     0.1410     0.0035     0.1110     0.0698     0.1875     2.4961   111.6800     0.0758     0.5387
  351    7.000   2268.45     0.1495     0.0033     0.1111     0.0700     0.1962     2.2041   112.0000     0.0842     0.4892
  352    7.020   2269.41     0.1505     0.0034     0.1106     0.0702     0.1970     2.2533   112.3200     0.0847     0.4787
  353    7.040   2270.37     0.1563     0.0037     0.1087     0.0704     0.2019     2.4289   112.6400     0.0893     0.4282
  354    7.060   2271.34     0.1585     0.0040     0.1066     0.0706     0.2034     2.5412   112.9600     0.0904     0.4024
  355    7.080   2272.33     0.1713     0.0042     0.1000     0.0708     0.2137     2.5147   113.2800     0.1004     0.2996
  356    7.100   2273.27     0.1840     0.0038     0.0936     0.0710     0.2240     2.1378   113.6000     0.1104     0.2198
  357    7.120   2274.25     0.1897     0.0040     0.0886     0.0712     0.2273     2.2123   113.9200     0.1133     0.1604
  358    7.140   2275.19     0.1942     0.0039     0.0911     0.0714     0.2320     2.0108   114.2400     0.1178     0.1590
  359    7.160   2276.18     0.2010     0.0038     0.0917     0.0716     0.2394     1.9208   114.5600     0.1249     0.1601
  360    7.180   2277.12     0.2053     0.0031     0.0908     0.0718     0.2436     1.5184   114.8800     0.1287     0.1515
  361    7.200   2278.10     0.2075     0.0036     0.0910     0.0720     0.2454     1.7169   115.2000     0.1302     0.1413
  362    7.220   2279.07     0.2076     0.0032     0.0951     0.0722     0.2469     1.5635   115.5200     0.1314     0.1629
  363    7.240   2280.03     0.2150     0.0029     0.0981     0.0724     0.2558     1.3820   115.8400     0.1400     0.1773
  364    7.260   2281.02     0.2177     0.0034     0.1008     0.0726     0.2597     1.5606   116.1600     0.1435     0.1904
  365    7.280   2281.97     0.2295     0.0035     0.0993     0.0728     0.2717     1.5252   116.4800     0.1552     0.1778
  366    7.300   2282.91     0.2172     0.0034     0.0995     0.0730     0.2588     1.5447   116.8000     0.1420     0.1848
  367    7.320   2283.88     0.2061     0.0036     0.0956     0.0732     0.2475     1.7191   117.1200     0.1304     0.1947
  368    7.340   2284.83     0.2061     0.0038     0.0859     0.0734     0.2437     1.8500   117.4400     0.1263     0.1270
  369    7.360   2285.82     0.1961     0.0039     0.0893     0.0736     0.2323     1.9337   117.7600     0.1146     0.1109
  370    7.380   2286.80     0.1865     0.0038     0.0940     0.0738     0.2259     2.0280   118.0800     0.1078     0.1867
  371    7.400   2287.77     0.1893     0.0039     0.0955     0.0740     0.2285     2.0797   118.4000     0.1101     0.1764
  372    7.420   2288.72     0.1844     0.0037     0.0988     0.0742     0.2258     2.0364   118.7200     0.1071     0.2285
  373    7.440   2289.66     0.1854     0.0036     0.0997     0.0744     0.2270     1.9097   119.0400     0.1080     0.2302
  374    7.460   2290.63     0.1836     0.0037     0.1019     0.0746     0.2260     1.9364   119.3600     0.1067     0.2469
  375    7.480   2291.57     0.1737     0.0037     0.1037     0.0748     0.2171     2.0673   119.6800     0.0974     0.2925
  376    7.500   2292.52     0.1771     0.0038     0.1025     0.0750     0.2205     2.1619   120.0000     0.1005     0.2814
  377    7.520   2293.38     0.1826     0.0036     0.1057     0.0752     0.2259     2.0068   120.3200     0.1056     0.2638
  378    7.540   2294.32     0.1913     0.0036     0.1093     0.0754     0.2373     1.9230   120.6400     0.1166     0.2926
  379    7.560   2295.26     0.1865     0.0036     0.1101     0.0756     0.2319     1.8770   120.9600     0.1110     0.2946
  380    7.580   2296.20     0.1888     0.0034     0.1148     0.0758     0.2364     1.8259   121.2800     0.1151     0.3259
  381    7.600   2297.19     0.1839     0.0033     0.0956     0.0760     0.2243     1.7951   121.6000     0.1027     0.1950
  382    7.620   2298.17     0.1865     0.0035     0.1066     0.0762     0.2295     1.8844   121.9200     0.1075     0.2420
  383    7.640   2299.12     0.1821     0.0033     0.1125     0.0764     0.2288     1.8195   122.2400     0.1066     0.3262
  384    7.660   2300.07     0.1843     0.0034     0.1165     0.0766     0.2327     1.8343   122.5600     0.1101     0.3511
  385    7.680   2301.04     0.1838     0.0031     0.1193     0.0768     0.2338     1.6916   122.8800     0.1109     0.3810
  386    7.700   2302.03     0.1918     0.0032     0.1153     0.0770     0.2407     1.6830   123.2000     0.1175     0.3369
  387    7.720   2303.02     0.1854     0.0031     0.1109     0.0772     0.2324     1.6457   123.5200     0.1089     0.3199
  388    7.740   2303.97     0.1800     0.0034     0.1128     0.0774     0.2267     1.8952   123.8400     0.1029     0.3284
  389    7.760   2304.88     0.1763     0.0037     0.1145     0.0776     0.2244     2.0668   124.1600     0.1002     0.3686
  390    7.780   2305.71     0.1796     0.0038     0.1182     0.0778     0.2287     2.1000   124.4800     0.1043     0.3763
  391    7.800   2306.52     0.1811     0.0044     0.1220     0.0780     0.2318     2.4362   124.8000     0.1070     0.3987
  392    7.820   2307.34     0.1805     0.0041     0.1257     0.0782     0.2328     2.2512   125.1200     0.1077     0.4307
  393    7.840   2308.27     0.1797     0.0038     0.1247     0.0784     0.2322     2.1150   125.4400     0.1068     0.4373
  394    7.860   2309.24     0.1797     0.0034     0.1265     0.0786     0.2329     1.9184   125.7600     0.1071     0.4487
  395    7.880   2310.22     0.1809     0.0033     0.1285     0.0788     0.2346     1.8516   126.0800     0.1086     0.4522
  396    7.900   2311.15     0.2136     0.0028     0.1321     0.0790     0.2685     1.4075   126.4000     0.1421     0.3655
  397    7.920   2312.12     0.2818     0.0021     0.1350     0.0792     0.3383     0.8549   126.7200     0.2116     0.2638
  398    7.940   2313.10     0.2899     0.0020     0.1192     0.0794     0.3436     0.6812   127.0400     0.2165     0.2234
  399    7.960   2314.07     0.2597     0.0016     0.1113     0.0796     0.3060     0.5606   127.3600     0.1787     0.1735
  400    7.980   2315.00     0.2011     0.0010     0.1125     0.0798     0.2486     0.4522   127.6800     0.1209     0.2794
  401    8.000   2315.96     0.1457     0.0014     0.1141     0.0800     0.1937     0.8797   128.0000     0.0657     0.5436
  402    8.020   2316.90     0.1205     0.0017     0.1180     0.0802     0.1690     1.3654   128.3200     0.0406     0.8730
  403    8.040   2317.90     0.1164     0.0022     0.1209     0.0804     0.1668     1.9249   128.6400     0.0382     1.0366
  404    8.060   2318.89     0.1228     0.0023     0.1239     0.0806     0.1744     1.9567   128.9600     0.0455     0.9368
  405    8.080   2319.83     0.1537     0.0024     0.1272     0.0808     0.2067     1.6885   129.2800     0.0774     0.5950
  406    8.100   2320.80     0.2557     0.0021     0.1312     0.0810     0.3102     1.0308   129.6000     0.1806     0.2755
  407    8.120   2321.76     0.4485     0.0026     0.1333     0.0812     0.5046     0.6580   129.9200     0.3747     0.1399
  408    8.140   2322.74     0.5560     0.0031     0.1375     0.0814     0.6128     0.5804   130.2400     0.4825     0.1112
  409    8.160   2323.71     0.5148     0.0025     0.1303     0.0816     0.5717     0.4792   130.5600     0.4411     0.1219
  410    8.180   2324.71     0.4551     0.0026     0.1213     0.0818     0.5071     0.5588   130.8800     0.3762     0.1115
  411    8.200   2325.64     0.4047     0.0028     0.1066     0.0820     0.4527     0.6604   131.2000     0.3215     0.1006
  412    8.220   2326.61     0.3475     0.0029     0.0940     0.0822     0.3872     0.7818   131.5200     0.2557     0.0478
  413    8.240   2327.59     0.3031     0.0035     0.1040     0.0824     0.3451     1.1045   131.8400     0.2133     0.0829
  414    8.260   2328.56     0.2851     0.0033     0.1093     0.0826     0.3307     1.1520   132.1600     0.1986     0.1308
  415    8.280   2329.52     0.2676     0.0035     0.1131     0.0828     0.3146     1.2999   132.4800     0.1821     0.1594
  416    8.300   2330.49     0.2686     0.0038     0.1148     0.0830     0.3162     1.4102   132.8000     0.1834     0.1657
  417    8.320   2331.45     0.2780     0.0042     0.1177     0.0832     0.3269     1.5318   133.1200     0.1938     0.1713
  418    8.340   2332.38     0.2823     0.0046     0.1224     0.0834     0.3328     1.6534   133.4400     0.1994     0.1854
  419    8.360   2333.35     0.2813     0.0046     0.1233     0.0836     0.3333     1.6120   133.7600     0.1995     0.2017
  420    8.380   2334.32     0.3157     0.0046     0.1238     0.0838     0.3669     1.5619   134.0800     0.2328     0.1639
  421    8.400   2335.70     0.3103     0.0047     0.1202     0.0840     0.3624     1.4771   134.4000     0.2280     0.1756
  422    8.420   2355.53     0.3064     0.0041     0.1090     0.0842     0.3538     1.3322   134.7200     0.2191     0.1276
  423    8.440   2375.35     0.3025     0.0037     0.0979     0.0844     0.3452     1.1761   135.0400     0.2102     0.0796
  424    8.460   2389.06     0.2935     0.0037     0.0979     0.0846     0.3338     1.2337   135.3600     0.1984     0.0571
  425    8.480   2389.99     0.2981     0.0040     0.0994     0.0848     0.3400     1.3705   135.6800     0.2043     0.0725
  426    8.500   2390.97     0.2832     0.0040     0.1079     0.0850     0.3271     1.3585   136.0000     0.1911     0.1045
  427    8.520   2391.94     0.2518     0.0045     0.1045     0.0852     0.2966     1.7550   136.3200     0.1603     0.1335
  428    8.540   2392.91     0.2527     0.0042     0.1008     0.0854     0.2960     1.6729   136.6400     0.1593     0.1105
  429    8.560   2393.85     0.2806     0.0045     0.1026     0.0856     0.3214     1.6896   136.9600     0.1845     0.0631
  430    8.580   2394.76     0.2871     0.0050     0.1085     0.0858     0.3324     1.7347   137.2800     0.1951     0.1126
  431    8.600   2395.73     0.2625     0.0056     0.1089     0.0860     0.3087     1.9845   137.6000     0.1711     0.1407
  432    8.620   2396.73     0.2567     0.0061     0.1123     0.0862     0.3032     2.2342   137.9200     0.1653     0.1488
  433    8.640   2397.71     0.2938     0.0065     0.1180     0.0864     0.3429     2.3069   138.2400     0.2047     0.1491
  434    8.660   2398.64     0.3203     0.0063     0.1199     0.0866     0.3705     2.0127   138.5600     0.2320     0.1418
  435    8.680   2399.58     0.3311     0.0062     0.1231     0.0868     0.3825     1.8637   138.8800     0.2436     0.1465
  436    8.700   2416.90     0.3267     0.0064     0.1165     0.0870     0.3766     1.9478   139.2000     0.2374     0.1333
  437    8.720   2438.66     0.3265     0.0064     0.1099     0.0872     0.3736     1.9570   139.5200     0.2341     0.1060
  438    8.740   2460.42     0.3264     0.0063     0.1072     0.0874     0.3707     1.9223   139.8400     0.2309     0.0786
  439    8.760   2462.31     0.3400     0.0063     0.1110     0.0876     0.3867     1.8631   140.1600     0.2465     0.0958
  440    8.780   2462.93     0.3356     0.0059     0.1168     0.0878     0.3833     1.7296   140.4800     0.2428     0.1069
  441    8.800   2463.56     0.3142     0.0060     0.1246     0.0880     0.3656     1.8961   140.8000     0.2248     0.1533
  442    8.820   2464.16     0.3130     0.0058     0.1262     0.0882     0.3656     1.8488   141.1200     0.2245     0.1647
  443    8.840   2464.81     0.3326     0.0060     0.1306     0.0884     0.3871     1.8225   141.4400     0.2457     0.1683
  444    8.860   2465.44     0.3574     0.0063     0.1334     0.0886     0.4130     1.7890   141.7600     0.2712     0.1614
  445    8.880   2466.08     0.3782     0.0063     0.1281     0.0888     0.4329     1.6853   142.0800     0.2908     0.1426
  446    8.900   2466.69     0.3704     0.0066     0.1290     0.0890     0.4243     1.7235   142.4000     0.2819     0.1398
  447    8.920   2467.34     0.3673     0.0068     0.1306     0.0892     0.4221     1.7413   142.7200     0.2794     0.1478
  448    8.940   2467.94     0.4102     0.0069     0.1339     0.0894     0.4657     1.7592   143.0400     0.3227     0.1331
  449    8.960   2468.56     0.4414     0.0069     0.1348     0.0896     0.4980     1.5993   143.3600     0.3546     0.1272
  450    8.980   2469.19     0.4488     0.0063     0.1320     0.0898     0.5051     1.4067   143.6800     0.3615     0.1225
  451    9.000   2472.30     0.3753     0.0065     0.1323     0.0900     0.4298     1.6131   144.0000     0.2858     0.1400
  452    9.020   2488.73     0.3539     0.0065     0.1399     0.0902     0.4115     1.7248   144.3200     0.2672     0.1811
  453    9.040   2505.16     0.3324     0.0051     0.1474     0.0904     0.3932     1.3344   144.6400     0.2486     0.2221
  454    9.060   2513.76     0.3180     0.0050     0.1564     0.0906     0.3824     1.5628   144.9600     0.2375     0.2647
  455    9.080   2514.70     0.3009     0.0052     0.1582     0.0908     0.3672     1.7448   145.2800     0.2219     0.3025
  456    9.100   2515.67     0.3163     0.0048     0.1643     0.0910     0.3842     1.5365   145.6000     0.2386     0.2960
  457    9.120   2516.65     0.3630     0.0053     0.1715     0.0912     0.4340     1.5065   145.9200     0.2881     0.2702
  458    9.140   2517.66     0.4045     0.0064     0.1753     0.0914     0.4775     1.6226   146.2400     0.3313     0.2493
  459    9.160   2518.66     0.4837     0.0074     0.1701     0.0916     0.5563     1.6260   146.5600     0.4097     0.1990
  460    9.180   2519.61     0.5763     0.0077     0.1683     0.0918     0.6474     1.4061   146.8800     0.5005     0.1552
  461    9.200   2520.61     0.6443     0.0080     0.1497     0.0920     0.7092     1.2537   147.2000     0.5620     0.1110
  462    9.220   2521.56     0.6299     0.0076     0.1495     0.0922     0.6928     1.2095   147.5200     0.5453     0.1056
  463    9.240   2522.53     0.6261     0.0070     0.1429     0.0924     0.6869     1.1081   147.8400     0.5391     0.0970
  464    9.260   2523.53     0.6431     0.0064     0.1402     0.0926     0.7024     1.0204   148.1600     0.5543     0.0880
  465    9.280   2524.50     0.7392     0.0077     0.1402     0.0928     0.7986     1.0910   148.4800     0.6501     0.0750
  466    9.300   2525.45     0.8067     0.0079     0.1318     0.0930     0.8638     0.9878   148.8000     0.7150     0.0600
  467    9.320   2526.45     0.7883     0.0082     0.1316     0.0932     0.8422     1.0263   149.1200     0.6931     0.0510
  468    9.340   2527.44     0.7590     0.0087     0.1329     0.0934     0.8150     1.1403   149.4400     0.6656     0.0600
  469    9.360   2528.37     0.8223     0.0084     0.1198     0.0936     0.8749     1.0593   149.7600     0.7251     0.0436
  470    9.380   2530.94     0.9078     0.0078     0.1161     0.0938     0.9559     0.8841   150.0800     0.8059     0.0257
  471    9.400   2532.85     1.0260     0.0066     0.1044     0.0940     1.0713     0.6798   150.4000     0.9209     0.0150
  472    9.420   2533.78     1.1935     0.0066     0.0979     0.0942     1.2364     0.5697   150.7200     1.0857     0.0073
  473    9.440   2534.76     1.2384     0.0071     0.0913     0.0944     1.2774     0.5714   151.0400     1.1264    -0.0012
  474    9.460   2535.76     1.1865     0.0069     0.0923     0.0946     1.2239     0.5738   151.3600     1.0725    -0.0053
  475    9.480   2536.69     1.1626     0.0067     0.0996     0.0948     1.2038     0.5737   151.6800     1.0522     0.0033
  476    9.500   2537.67     1.1079     0.0071     0.1045     0.0950     1.1509     0.6351   152.0000     0.9989     0.0075
  477    9.520   2538.64     1.0645     0.0077     0.1119     0.0952     1.1106     0.7288   152.3200     0.9583     0.0154
  478    9.540   2539.62     1.1352     0.0078     0.1040     0.0954     1.1806     0.6988   152.6400     1.0280     0.0123
  479    9.560   2540.60     1.0475     0.0064     0.0988     0.0956     1.0895     0.5874   152.9600     0.9365     0.0047
  480    9.580   2541.57     0.8977     0.0062     0.1027     0.0958     0.9397     0.6634   153.2800     0.7864     0.0053
  481    9.600   2542.51     0.8068     0.0066     0.1105     0.0960     0.8522     0.8058   153.6000     0.6986     0.0172
  482    9.620   2543.51     0.8223     0.0079     0.1132     0.0962     0.8693     0.9760   153.9200     0.7154     0.0221
  483    9.640   2544.45     0.8649     0.0085     0.1213     0.0964     0.9147     0.9999   154.2400     0.7604     0.0289
  484    9.660   2545.46     0.9989     0.0087     0.1108     0.0966     1.0467     0.9059   154.5600     0.8921     0.0195
  485    9.680   2546.43     1.0722     0.0094     0.1062     0.0968     1.1175     0.8847   154.8800     0.9626     0.0113
  486    9.700   2547.38     1.1823     0.0094     0.1048     0.0970     1.2267     0.8222   155.2000     1.0715     0.0081
  487    9.720   2548.35     1.3941     0.0095     0.0964     0.0972     1.4345     0.7038   155.5200     1.2790    -0.0009
  488    9.740   2549.33     1.4732     0.0088     0.1022     0.0974     1.5158     0.6002   155.8400     1.3600     0.0030
  489    9.760   2550.33     1.4714     0.0071     0.1063     0.0976     1.5160     0.4849   156.1600     1.3598     0.0064
  490    9.780   2551.30     1.5144     0.0076     0.0738     0.0978     1.5505     0.5057   156.4800     1.3940    -0.0086
  491    9.800   2552.25     1.4713     0.0079     0.0569     0.0980     1.4967     0.5308   156.8000     1.3399    -0.0280
  492    9.820   2553.25     1.4519     0.0079     0.0529     0.0982     1.4741     0.5424   157.1200     1.3170    -0.0345
  493    9.840   2554.25     1.4307     0.0077     0.0496     0.0984     1.4532     0.5294   157.4400     1.2957    -0.0347
  494    9.860   2555.19     1.3973     0.0066     0.0483     0.0986     1.4171     0.4733   157.7600     1.2594    -0.0408
  495    9.880   2556.14     1.4365     0.0068     0.0481     0.0988     1.4571     0.4786   158.0800     1.2991    -0.0382
  496    9.900   2557.16     1.4312     0.0062     0.0473     0.0990     1.4513     0.4237   158.4000     1.2929    -0.0396
  497    9.920   2558.11     1.3593     0.0060     0.0496     0.0992     1.3798     0.4366   158.7200     1.2211    -0.0413
  498    9.940   2559.09     1.2538     0.0077     0.0469     0.0994     1.2740     0.5966   159.0400     1.1149    -0.0462
  499    9.960   2560.05     1.1257     0.0092     0.0487     0.0996     1.1458     0.8073   159.3600     0.9865    -0.0525
  500    9.980   2561.02     1.0671     0.0089     0.0486     0.0998     1.0875     0.8244   159.6800     0.9278    -0.0553
  501   10.000   2561.96     0.9328     0.0077     0.0469     0.1000     0.9535     0.7951   160.0000     0.7935    -0.0641
  502   10.020   2562.98     0.8015     0.0052     0.0318     0.1002     0.8158     0.6262   160.3200     0.6555    -0.1012
  503   10.040   2563.96     0.7025     0.0023     0.0333     0.1004     0.7157     0.3177   160.6400     0.5551    -0.1243
  504   10.060   2564.90     0.6293     0.0012     0.0369     0.1006     0.6443     0.1904   160.9600     0.4834    -0.1338
  505   10.080   2565.89     0.5783     0.0008     0.0394     0.1008     0.5947     0.1308   161.2800     0.4334    -0.1429
  506   10.100   2566.86     0.5384     0.0005     0.0435     0.1010     0.5562     0.0905   161.6000     0.3946    -0.1491
  507   10.120   2567.85     0.5036     0.0010     0.0476     0.1012     0.5230     0.2042   161.9200     0.3611    -0.1521
  508   10.140   2568.80     0.4848     0.0021     0.0516     0.1014     0.5057     0.4225   162.2400     0.3435    -0.1500
  509   10.160   2569.77     0.4930     0.0041     0.0561     0.1016     0.5159     0.8332   162.5600     0.3533    -0.1333
  510   10.180   2570.76     0.5742     0.0055     0.0621     0.1018     0.5992     0.9981   162.8800     0.4363    -0.0969
  511   10.200   2571.73     0.7788     0.0079     0.0679     0.1020     0.8066     1.0920   163.2000     0.6434    -0.0559
  512   10.220   2572.66     1.1125     0.0097     0.0728     0.1022     1.1423     0.9389   163.5200     0.9787    -0.0325
  513   10.240   2573.68     1.4776     0.0126     0.0780     0.1024     1.5096     0.9021   163.8400     1.3458    -0.0194
  514   10.260   2574.71     1.7879     0.0141     0.0821     0.1026     1.8220     0.8232   164.1600     1.6578    -0.0129
  515   10.280   2575.67     1.9826     0.0137     0.0864     0.1028     2.0180     0.7057   164.4800     1.8535    -0.0100
  516   10.300   2576.63     2.1163     0.0128     0.0886     0.1030     2.1533     0.6125   164.8000     1.9885    -0.0075
  517   10.320   2577.59     2.2338     0.0120     0.0895     0.1032     2.2723     0.5359   165.1200     2.1071    -0.0055
  518   10.340   2578.55     2.0425     0.0107     0.0692     0.1034     2.0744     0.5105   165.4400     1.9090    -0.0146
  519   10.360   2579.55     1.9714     0.0114     0.0516     0.1036     1.9959     0.5760   165.7600     1.8302    -0.0246
  520   10.380   2580.56     2.0102     0.0126     0.0421     0.1038     2.0294     0.6323   166.0800     1.8634    -0.0311
  521   10.400   2581.51     2.0139     0.0138     0.0392     0.1040     2.0299     0.6849   166.4000     1.8635    -0.0354
  522   10.420   2582.49     2.0430     0.0144     0.0524     0.1042     2.0622     0.7034   166.7200     1.8955    -0.0308
  523   10.440   2583.45     1.9720     0.0163     0.0587     0.1044     1.9963     0.8230   167.0400     1.8292    -0.0255
  524   10.460   2585.26     1.9053     0.0176     0.0666     0.1046     1.9323     0.9133   167.3600     1.7649    -0.0228
  525   10.480   2588.19     1.8420     0.0239     0.0738     0.1048     1.8719     1.2412   167.6800     1.7043    -0.0195
  526   10.500   2590.54     1.7424     0.0279     0.0838     0.1050     1.7762     1.5318   168.0000     1.6082    -0.0153
  527   10.520   2591.54     1.7119     0.0238     0.0802     0.1052     1.7468     1.4070   168.3200     1.5785    -0.0140
  528   10.540   2592.52     1.8446     0.0209     0.0630     0.1054     1.8741     1.1736   168.6400     1.7055    -0.0207
  529   10.560   2593.53     2.0215     0.0154     0.0321     0.1056     2.0365     0.7931   168.9600     1.8675    -0.0374
  530   10.580   2614.85     2.1331     0.0107     0.0346     0.1058     2.1473     0.5175   169.2800     1.9780    -0.0365
  531   10.600   2639.80     2.2083     0.0107     0.0374     0.1060     2.2235     0.5000   169.6000     2.0539    -0.0339
  532   10.620   2640.79     2.0203     0.0101     0.0329     0.1062     2.0346     0.4866   169.9200     1.8646    -0.0387
  533   10.640   2641.76     1.8418     0.0104     0.0263     0.1064     1.8532     0.5506   170.2400     1.6830    -0.0470
  534   10.660   2642.70     1.6796     0.0127     0.0292     0.1066     1.6903     0.7414   170.5600     1.5198    -0.0533
  535   10.680   2643.67     1.5172     0.0152     0.0375     0.1068     1.5325     0.9684   170.8800     1.3616    -0.0517
  536   10.700   2644.66     1.3654     0.0149     0.0445     0.1070     1.3832     1.0687   171.2000     1.2120    -0.0532
  537   10.720   2645.64     1.2820     0.0157     0.0445     0.1072     1.3005     1.2094   171.5200     1.1290    -0.0559
  538   10.740   2646.59     1.2341     0.0138     0.0497     0.1074     1.2540     1.1160   171.8400     1.0821    -0.0555
  539   10.760   2647.58     1.2907     0.0122     0.0571     0.1076     1.3138     0.9696   172.1600     1.1417    -0.0460
  540   10.780   2648.52     1.4032     0.0121     0.0599     0.1078     1.4281     0.8892   172.4800     1.2556    -0.0386
  541   10.800   2649.51     1.5829     0.0127     0.0585     0.1080     1.6076     0.8345   172.8000     1.4348    -0.0343
  542   10.820   2650.46     1.7852     0.0151     0.0606     0.1082     1.8099     0.8703   173.1200     1.6368    -0.0302
  543   10.840   2651.44     1.8915     0.0167     0.0719     0.1084     1.9209     0.8952   173.4400     1.7474    -0.0220
  544   10.860   2652.44     1.8610     0.0198     0.0675     0.1086     1.8907     1.0501   173.7600     1.7169    -0.0222
  545   10.880   2653.37     1.7281     0.0234     0.0631     0.1088     1.7549     1.3193   174.0800     1.5808    -0.0285
  546   10.900   2654.36     1.6522     0.0234     0.0676     0.1090     1.6798     1.3973   174.4000     1.5054    -0.0287
  547   10.920   2655.31     1.5972     0.0219     0.0787     0.1092     1.6270     1.3563   174.7200     1.4523    -0.0263
  548   10.940   2656.23     1.4067     0.0201     0.0882     0.1094     1.4428     1.3821   175.0400     1.2678    -0.0185
  549   10.960   2657.23     1.3690     0.0200     0.1039     0.1096     1.4097     1.4638   175.3600     1.2344    -0.0102
  550   10.980   2658.21     1.3534     0.0182     0.1260     0.1098     1.4041     1.3357   175.6800     1.2284     0.0088
  551   11.000   2659.21     1.3590     0.0174     0.1366     0.1100     1.4152     1.2839   176.0000     1.2392     0.0191
  552   11.020   2660.13     1.3521     0.0171     0.1442     0.1102     1.4118     1.2475   176.3200     1.2355     0.0260
  553   11.040   2661.10     1.3269     0.0154     0.1480     0.1104     1.3881     1.1579   176.6400     1.2115     0.0292
  554   11.060   2662.11     1.2738     0.0142     0.1664     0.1106     1.3410     1.0976   176.9600     1.1640     0.0423
  555   11.080   2663.06     1.1884     0.0122     0.1811     0.1108     1.2615     1.0067   177.2800     1.0842     0.0583
  556   11.100   2664.05     1.1337     0.0184     0.1909     0.1110     1.2135     1.6331   177.6000     1.0359     0.0762
  557   11.120   2664.99     1.4293     0.0219     0.2074     0.1112     1.5144     1.6926   177.9200     1.3365     0.0688
  558   11.140   2665.96     1.9474     0.0215     0.2083     0.1114     2.0347     1.1684   178.2400     1.8564     0.0521
  559   11.160   2666.93     2.3050     0.0285     0.1779     0.1116     2.3879     1.2602   178.5600     2.2094     0.0391
  560   11.180   2667.92     2.4153     0.0280     0.1442     0.1118     2.4758     1.1684   178.8800     2.2969     0.0140
  561   11.200   2668.89     2.7311     0.0305     0.1540     0.1120     2.7980     1.1631   179.2000     2.6188     0.0181
  562   11.220   2669.89     3.3031     0.0274     0.1721     0.1122     3.3783     0.8659   179.5200     3.1988     0.0210
  563   11.240   2670.87     3.8409     0.0214     0.0510     0.1124     3.8708     0.5785   179.8400     3.6909    -0.0111
  564   11.260   2671.86     4.3702     0.0146     0.0467     0.1126     4.3888     0.3444   180.1600     4.2086    -0.0163
  565   11.280   2672.84     4.7910     0.0152     0.0287     0.1128     4.8061     0.3254   180.4800     4.6257    -0.0166
  566   11.300   2673.83     5.1313     0.0249     0.0189     0.1130     5.1412     0.4897   180.8000     4.9604    -0.0180
  567   11.320   2674.80     5.0700     0.0402    -0.0055     0.1132     5.0729     0.7819   181.1200     4.8918    -0.0218
  568   11.340   2675.74     4.2551     0.0533    -0.0220     0.1134     4.2469     1.1909   181.4400     4.0654    -0.0328
  569   11.360   2676.74     3.2921     0.0515    -0.0095     0.1136     3.2854     1.4550   181.7600     3.1037    -0.0417
  570   11.380   2677.74     2.4793     0.0469    -0.0125     0.1138     2.4753     1.7067   182.0800     2.2932    -0.0539
  571   11.400   2678.71     2.0072     0.0469     0.0008     0.1140     2.0042     2.2265   182.4000     1.8218    -0.0665
  572   11.420   2679.66     1.7201     0.0405     0.0285     0.1142     1.7288     2.2380   182.7200     1.5460    -0.0605
  573   11.440   2680.61     1.4580     0.0335     0.0481     0.1144     1.4755     2.2202   183.0400     1.2925    -0.0562
  574   11.460   2681.55     1.3591     0.0245     0.0773     0.1146     1.3861     1.7858   183.3600     1.2027    -0.0419
  575   11.480   2682.55     1.3534     0.0189     0.1051     0.1148     1.3950     1.3983   183.6800     1.2113    -0.0130
  576   11.500   2683.51     1.3211     0.0166     0.1205     0.1150     1.3692     1.2343   184.0000     1.1852    -0.0004
  577   11.520   2684.50     1.2800     0.0141     0.1319     0.1152     1.3333     1.0955   184.3200     1.1490     0.0103
  578   11.540   2685.49     1.2636     0.0160     0.1313     0.1154     1.3196     1.2541   184.6400     1.1350     0.0159
  579   11.560   2686.44     1.2351     0.0153     0.1355     0.1156     1.2918     1.2328   184.9600     1.1068     0.0175
  580   11.580   2687.42     1.1477     0.0163     0.1439     0.1158     1.2079     1.3892   185.2800     1.0226     0.0269
  581   11.600   2688.39     1.0849     0.0143     0.1651     0.1160     1.1516     1.3286   185.6000     0.9660     0.0445
  582   11.620   2689.36     1.1872     0.0147     0.1733     0.1162     1.2600     1.2581   185.9200     1.0741     0.0533
  583   11.640   2690.31     1.1505     0.0153     0.1755     0.1164     1.2245     1.3115   186.2400     1.0383     0.0575
  584   11.660   2691.31     1.1346     0.0163     0.1961     0.1166     1.2124     1.4575   186.5600     1.0258     0.0667
  585   11.680   2692.28     1.2552     0.0161     0.2065     0.1168     1.3422     1.3147   186.8800     1.1553     0.0783
  586   11.700   2693.32     1.7239     0.0198     0.2004     0.1170     1.8085     1.2413   187.2000     1.6213     0.0524
  587   11.720   2694.31     2.4442     0.0233     0.1822     0.1172     2.5249     1.0179   187.5200     2.3373     0.0321
  588   11.740   2695.28     3.6165     0.0241     0.0899     0.1174     3.6630     0.7403   187.8400     3.4751    -0.0018
  589   11.760   2696.22     4.7979     0.0248     0.0145     0.1176     4.8140     0.5372   188.1600     4.6258    -0.0170
  590   11.780   2697.23     5.0488     0.0278    -0.0195     0.1178     5.0462     0.5503   188.4800     4.8578    -0.0255
  591   11.800   2698.27     5.0426     0.0351    -0.0339     0.1180     5.0297     0.6860   188.8000     4.8409    -0.0307
  592   11.820   2699.24     5.2074     0.0440    -0.0265     0.1182     5.1961     0.8478   189.1200     5.0070    -0.0290
  593   11.840   2700.17     4.9312     0.0540    -0.0353     0.1184     4.9181     1.0349   189.4400     4.7286    -0.0317
  594   11.860   2701.14     3.9706     0.0607    -0.0431     0.1186     3.9548     1.3747   189.7600     3.7651    -0.0416
  595   11.880   2702.15     3.1901     0.0531    -0.0494     0.1188     3.1686     1.5189   190.0800     2.9785    -0.0572
  596   11.900   2703.95     2.8535     0.0481    -0.0236     0.1190     2.8391     1.6541   190.4000     2.6487    -0.0578
  597   11.920   2706.99     2.7995     0.0545     0.0079     0.1192     2.7982     1.8959   190.7200     2.6075    -0.0466
  598   11.940   2709.85     2.7313     0.0567     0.0246     0.1194     2.7419     2.0345   191.0400     2.5509    -0.0369
  599   11.960   2710.83     2.4673     0.0522     0.0368     0.1196     2.4804     2.0479   191.3600     2.2891    -0.0386
  600   11.980   2711.78     2.1232     0.0436     0.0021     0.1198     2.1281     1.9889   191.6800     1.9364    -0.0558
  601   12.000   2712.78     1.8550     0.0334     0.0125     0.1200     1.8584     1.7288   192.0000     1.6664    -0.0671
  602   12.020   2713.77     1.5320     0.0251     0.0208     0.1202     1.5381     1.5614   192.3200     1.3458    -0.0786
  603   12.040   2714.75     1.1890     0.0227     0.0472     0.1204     1.2035     1.7853   192.6400     1.0109    -0.0848
  604   12.060   2715.73     1.0720     0.0178     0.0671     0.1206     1.0989     1.6126   192.9600     0.9059    -0.0624
  605   12.080   2716.66     1.0421     0.0153     0.0824     0.1208     1.0747     1.4676   193.2800     0.8814    -0.0491
  606   12.100   2717.64     1.1442     0.0162     0.0926     0.1210     1.1822     1.4536   193.6000     0.9886    -0.0312
  607   12.120   2718.62     1.3729     0.0178     0.1030     0.1212     1.4144     1.3570   193.9200     1.2205    -0.0186
  608   12.140   2719.62     1.5391     0.0185     0.1131     0.1214     1.5849     1.2251   194.2400     1.3907    -0.0089
  609   12.160   2720.58     1.5281     0.0222     0.1025     0.1216     1.5739     1.4185   194.5600     1.3794    -0.0092
  610   12.180   2721.55     1.3833     0.0240     0.1058     0.1218     1.4263     1.6992   194.8800     1.2314    -0.0157
  611   12.200   2722.53     1.2295     0.0204     0.1197     0.1220     1.2770     1.6011   195.2000     1.0818    -0.0080
  612   12.220   2723.50     1.1031     0.0170     0.1436     0.1222     1.1604     1.5217   195.5200     0.9649     0.0148
  613   12.240   2724.50     1.0626     0.0155     0.1633     0.1224     1.1285     1.4584   195.8400     0.9327     0.0371
  614   12.260   2725.48     1.1686     0.0193     0.1806     0.1226     1.2425     1.7574   196.1600     1.0463     0.0510
  615   12.280   2726.46     1.7429     0.0229     0.1980     0.1228     1.8244     1.4998   196.4800     1.6279     0.0441
  616   12.300   2727.44     2.2898     0.0267     0.2045     0.1230     2.3723     1.1949   196.8000     2.1755     0.0337
  617   12.320   2728.44     2.1390     0.0257     0.1118     0.1232     2.1971     1.1747   197.1200     2.0000     0.0073
  618   12.340   2729.40     1.8793     0.0294     0.1257     0.1234     1.9233     1.5003   197.4400     1.7258    -0.0104
  619   12.360   2730.37     1.4597     0.0291     0.1257     0.1236     1.5130     1.8494   197.7600     1.3152     0.0025
  620   12.380   2731.33     1.2312     0.0293     0.1831     0.1238     1.2995     2.2907   198.0800     1.1014     0.0352
  621   12.400   2732.31     1.1997     0.0196     0.2241     0.1240     1.2878     1.6337   198.4000     1.0894     0.0788
  622   12.420   2733.28     1.2365     0.0200     0.2294     0.1242     1.3311     1.6428   198.7200     1.1324     0.0892
  623   12.440   2734.28     1.2576     0.0282     0.2439     0.1244     1.3619     2.1983   199.0400     1.1628     0.1066
  624   12.460   2735.21     1.4883     0.0342     0.2496     0.1246     1.5911     2.3774   199.3600     1.3917     0.0865
  625   12.480   2736.18     1.7630     0.0406     0.2439     0.1248     1.8684     2.4027   199.6800     1.6687     0.0757
  626   12.500   2737.18     1.7231     0.0397     0.1792     0.1250     1.8019     2.2550   200.0000     1.6019     0.0388
  627   12.520   2738.16     1.5325     0.0353     0.1921     0.1252     1.6146     2.2133   200.3200     1.4142     0.0500
  628   12.540   2739.13     1.2519     0.0344     0.2044     0.1254     1.3304     2.5616   200.6400     1.1297     0.0547
  629   12.560   2747.81     1.1065     0.0286     0.2768     0.1256     1.2121     2.5292   200.9600     1.0112     0.1263
  630   12.580   2771.90     1.0367     0.0194     0.3503     0.1258     1.1732     1.7154   201.2800     0.9719     0.2083
  631   12.600   2790.52     0.9748     0.0148     0.4093     0.1260     1.1400     1.4973   201.6000     0.9384     0.2849
  632   12.620   2791.53     0.9684     0.0135     0.4350     0.1262     1.1477     1.4043   201.9200     0.9458     0.3179
  633   12.640   2792.48     0.9826     0.0123     0.4596     0.1264     1.1719     1.2566   202.2400     0.9697     0.3346
  634   12.660   2793.45     1.0491     0.0190     0.4784     0.1266     1.2467     1.8555   202.5600     1.0442     0.3295
  635   12.680   2794.42     1.2402     0.0229     0.5021     0.1268     1.4481     1.9423   202.8800     1.2452     0.2961
  636   12.700   2795.35     1.4500     0.0267     0.4710     0.1270     1.6540     1.9020   203.2000     1.4508     0.2476
  637   12.720   2796.36     1.5659     0.0263     0.3538     0.1272     1.7384     1.6898   203.5200     1.5349     0.1845
  638   12.740   2797.33     1.4497     0.0276     0.3109     0.1274     1.5774     1.8451   203.8400     1.3736     0.1286
  639   12.760   2798.31     1.2675     0.0283     0.3321     0.1276     1.4054     2.1419   204.1600     1.2013     0.1672
  640   12.780   2799.28     1.0924     0.0277     0.3660     0.1278     1.2385     2.4735   204.4800     1.0340     0.2129
  641   12.800   2800.28     1.0021     0.0215     0.3872     0.1280     1.1659     2.0656   204.8000     0.9611     0.2726
  642   12.820   2801.23     0.9484     0.0143     0.3737     0.1282     1.1038     1.5007   205.1200     0.8987     0.2690
  643   12.840   2802.17     0.9235     0.0124     0.3962     0.1284     1.0870     1.3356   205.4400     0.8815     0.2958
  644   12.860   2803.18     0.9334     0.0110     0.4136     0.1286     1.1058     1.1815   205.7600     0.9000     0.3131
  645   12.880   2804.14     0.9221     0.0118     0.4316     0.1288     1.1001     1.2754   206.0800     0.8940     0.3300
  646   12.900   2805.11     0.9205     0.0129     0.4444     0.1290     1.1056     1.3961   206.4000     0.8992     0.3467
  647   12.920   2806.05     0.9264     0.0140     0.4563     0.1292     1.1163     1.5145   206.7200     0.9096     0.3551
  648   12.940   2807.01     0.9261     0.0147     0.4692     0.1294     1.1216     1.5798   207.0400     0.9146     0.3675
  649   12.960   2807.98     0.9294     0.0146     0.4777     0.1296     1.1284     1.5703   207.3600     0.9210     0.3737
  650   12.980   2808.95     0.9252     0.0147     0.4909     0.1298     1.1298     1.5907   207.6800     0.9221     0.3874
  651   13.000   2809.95     0.9330     0.0174     0.5145     0.1300     1.1455     1.8686   208.0000     0.9375     0.4009
  652   13.020   2810.91     0.9619     0.0209     0.5358     0.1302     1.1839     2.2025   208.3200     0.9755     0.4084
  653   13.040   2811.87     1.1770     0.0170     0.5670     0.1304     1.4104     1.4939   208.6400     1.2017     0.3551
  654   13.060   2812.84     1.6534     0.0216     0.5661     0.1306     1.8956     1.5633   208.9600     1.6866     0.2661
  655   13.080   2813.85     2.8626     0.0286     0.4541     0.1308     3.0705     1.0753   209.2800     2.8612     0.1318
  656   13.100   2814.87     7.0397     0.0324     0.4220     0.1310     7.2186     0.5010   209.6000     7.0090     0.0426
  657   13.120   2815.88    11.6800     0.0406     0.3039     0.1312    11.8519     0.3678   209.9200    11.6420     0.0241
  658   13.140   2816.90    13.5471     0.0517    -0.0036     0.1314    13.5653     0.3854   210.2400    13.3551    -0.0066
  659   13.160   2817.93    12.8434     0.0590    -0.0670     0.1316    12.8228     0.4479   210.5600    12.6122    -0.0144
  660   13.180   2818.89    10.9528     0.0741    -0.0862     0.1318    10.9185     0.6426   210.8800    10.7076    -0.0200
  661   13.200   2819.85     8.8213     0.0977    -0.0835     0.1320     8.7853     1.0571   211.2000     8.5741    -0.0255
  662   13.220   2820.77     6.6985     0.1100    -0.0785     0.1322     6.6648     1.5413   211.5200     6.4533    -0.0329
  663   13.240   2821.79     4.9136     0.1085    -0.0632     0.1324     4.8849     2.0456   211.8400     4.6731    -0.0430
  664   13.260   2822.75     3.5999     0.0972    -0.0423     0.1326     3.5783     2.4894   212.1600     3.3661    -0.0547
  665   13.280   2823.74     2.7827     0.0856     0.0032     0.1328     2.7754     2.9050   212.4800     2.5629    -0.0587
  666   13.300   2824.72     2.2313     0.0772     0.0574     0.1330     2.2521     3.2490   212.8000     2.0393    -0.0408
  667   13.320   2825.71     1.8304     0.0607     0.0832     0.1332     1.8635     3.1476   213.1200     1.6504    -0.0328
  668   13.340   2826.66     1.5525     0.0413     0.1168     0.1334     1.5956     2.5710   213.4400     1.3822    -0.0221
  669   13.360   2827.62     1.4112     0.0263     0.1748     0.1336     1.4749     1.8390   213.7600     1.2611     0.0143
  670   13.380   2828.59     1.3531     0.0178     0.2394     0.1338     1.4444     1.3006   214.0800     1.2303     0.0680
  671   13.400   2829.60     1.2842     0.0163     0.2969     0.1340     1.4018     1.2492   214.4000     1.1874     0.1232
  672   13.420   2830.59     1.1647     0.0156     0.3342     0.1342     1.2996     1.3032   214.7200     1.0849     0.1728
  673   13.440   2831.52     1.0939     0.0146     0.3697     0.1344     1.2434     1.3250   215.0400     1.0284     0.2156
  674   13.460   2832.50     1.0753     0.0130     0.4046     0.1346     1.2406     1.2018   215.3600     1.0252     0.2526
  675   13.480   2833.46     1.0604     0.0140     0.4413     0.1348     1.2401     1.3144   215.6800     1.0245     0.2861
  676   13.500   2834.39     1.0394     0.0141     0.4788     0.1350     1.2353     1.3541   216.0000     1.0193     0.3251
  677   13.520   2835.38     1.0492     0.0146     0.5177     0.1352     1.2604     1.3927   216.3200     1.0441     0.3521
  678   13.540   2836.40     1.0748     0.0135     0.5495     0.1354     1.3002     1.2660   216.6400     1.0836     0.3703
  679   13.560   2837.34     1.1169     0.0074     0.5789     0.1356     1.3557     0.6725   216.9600     1.1387     0.3802
  680   13.580   2838.35     1.1945     0.0095     0.6099     0.1358     1.4457     0.8056   217.2800     1.2285     0.3764
  681   13.600   2839.30     1.3709     0.0225     0.6413     0.1360     1.6341     1.6788   217.6000     1.4165     0.3464
  682   13.620   2840.32     2.7152     0.0378     0.6984     0.1362     3.0061     1.6162   217.9200     2.7881     0.2009
  683   13.640   2841.32     4.9590     0.0537     0.5828     0.1364     5.2283     1.1995   218.2400     5.0100     0.1010
  684   13.660   2842.29     5.4202     0.0754     0.1278     0.1366     5.4843     1.3767   218.5600     5.2657     0.0030
  685   13.680   2843.23     4.9597     0.0953     0.1296     0.1368     5.0093     1.8829   218.8800     4.7904    -0.0039
  686   13.700   2844.19     4.3903     0.0964     0.1570     0.1370     4.4558     2.1265   219.2000     4.2366     0.0045
  687   13.720   2845.21     3.8411     0.0956     0.1464     0.1372     3.9045     2.3979   219.5200     3.6849     0.0037
  688   13.740   2846.22     3.0557     0.0866     0.1490     0.1374     3.1113     2.6777   219.8400     2.8915    -0.0018
  689   13.760   2847.20     2.4750     0.0794     0.1692     0.1376     2.5439     3.0058   220.1600     2.3237     0.0114
  690   13.780   2848.14     2.0321     0.0696     0.2106     0.1378     2.1147     3.2420   220.4800     1.8942     0.0316
  691   13.800   2849.10     1.6248     0.0510     0.2842     0.1380     1.7291     3.0323   220.8000     1.5083     0.0737
  692   13.820   2850.08     1.4972     0.0365     0.3632     0.1382     1.6424     2.4205   221.1200     1.4213     0.1460
  693   13.840   2851.05     1.5102     0.0204     0.3931     0.1384     1.6694     1.3607   221.4400     1.4479     0.1661
  694   13.860   2852.06     1.5379     0.0200     0.4460     0.1386     1.7189     1.3039   221.7600     1.4972     0.1952
  695   13.880   2853.03     1.5158     0.0219     0.4691     0.1388     1.7100     1.4268   222.0800     1.4879     0.2174
  696   13.900   2853.99     1.5223     0.0238     0.5176     0.1390     1.7316     1.5768   222.4000     1.5092     0.2381
  697   13.920   2854.97     1.5677     0.0249     0.5553     0.1392     1.7949     1.5924   222.7200     1.5721     0.2554
  698   13.940   2855.92     1.5858     0.0256     0.5658     0.1394     1.8180     1.6250   223.0400     1.5950     0.2592
  699   13.960   2856.93     1.6242     0.0270     0.5857     0.1396     1.8674     1.6666   223.3600     1.6440     0.2674
  700   13.980   2857.88     1.5658     0.0266     0.5805     0.1398     1.8087     1.6702   223.6800     1.5850     0.2768
  701   14.000   2858.84     1.4512     0.0263     0.6396     0.1400     1.7100     1.7969   224.0000     1.4860     0.3205
  702   14.020   2859.85     1.4399     0.0288     0.6795     0.1402     1.7212     2.0084   224.3200     1.4969     0.3537
  703   14.040   2860.80     1.4904     0.0302     0.7213     0.1404     1.7879     2.0549   224.6400     1.5632     0.3632
  704   14.060   2861.79     1.5654     0.0303     0.7528     0.1406     1.8787     1.9526   224.9600     1.6538     0.3660
  705   14.080   2862.74     1.6067     0.0319     0.7531     0.1408     1.9264     2.0065   225.2800     1.7011     0.3646
  706   14.100   2863.76     1.6594     0.0338     0.7361     0.1410     1.9686     2.0384   225.6000     1.7430     0.3414
  707   14.120   2864.72     1.6252     0.0350     0.7446     0.1412     1.9319     2.1459   225.9200     1.7059     0.3452
  708   14.140   2865.69     1.6114     0.0354     0.7775     0.1414     1.9341     2.1876   226.2400     1.7078     0.3671
  709   14.160   2866.67     1.5942     0.0336     0.8142     0.1416     1.9324     2.0935   226.5600     1.7059     0.3891
  710   14.180   2867.66     1.6229     0.0301     0.8432     0.1418     1.9712     1.8680   226.8800     1.7444     0.3941
  711   14.200   2868.61     1.6424     0.0291     0.8672     0.1420     2.0048     1.7768   227.2000     1.7776     0.4055
  712   14.220   2869.64     1.6814     0.0293     0.8802     0.1422     2.0491     1.7463   227.5200     1.8216     0.4027
  713   14.240   2870.63     1.6666     0.0295     0.8910     0.1424     2.0399     1.7585   227.8400     1.8120     0.4118
  714   14.260   2871.58     1.6535     0.0302     0.8919     0.1426     2.0285     1.8184   228.1600     1.8004     0.4168
  715   14.280   2872.54     1.6677     0.0296     0.8926     0.1428     2.0414     1.7768   228.4800     1.8129     0.4119
  716   14.300   2873.51     1.6906     0.0298     0.9075     0.1430     2.0676     1.7728   228.8000     1.8388     0.4103
  717   14.320   2874.48     1.6963     0.0315     0.9089     0.1432     2.0814     1.8514   229.1200     1.8523     0.4177
  718   14.340   2875.45     1.6658     0.0296     0.8571     0.1434     2.0323     1.7792   229.4400     1.8028     0.4045
  719   14.360   2876.44     1.6860     0.0287     0.8892     0.1436     2.0569     1.7086   229.7600     1.8272     0.4047
  720   14.380   2877.41     1.7147     0.0269     0.8995     0.1438     2.0890     1.5753   230.0800     1.8590     0.4021
  721   14.400   2878.41     1.7509     0.0166     0.8704     0.1440     2.1261     0.9562   230.4000     1.8957     0.3954
  722   14.420   2879.38     1.7437     0.0318     0.8845     0.1442     2.1105     1.8120   230.7200     1.8798     0.3879
  723   14.440   2880.31     2.1116     0.0632     0.9157     0.1444     2.4808     3.2246   231.0400     2.2498     0.3276
  724   14.460   2881.32     3.4857     0.0810     0.9352     0.1446     3.8870     2.8222   231.3600     3.6557     0.2227
  725   14.480   2882.28     4.2655     0.0856     0.4823     0.1448     4.5995     2.6851   231.6800     4.3678     0.1483
  726   14.500   2883.28     3.5666     0.0901     0.2550     0.1450     3.6649     2.5479   232.0000     3.4329     0.0260
  727   14.520   2884.22     2.9580     0.0908     0.3888     0.1452     3.0911     3.0345   232.3200     2.8587     0.0603
  728   14.540   2885.22     2.3830     0.0845     0.4625     0.1454     2.5728     3.4933   232.6400     2.3401     0.1312
  729   14.560   2886.19     2.0131     0.0714     0.5478     0.1456     2.2352     3.4843   232.9600     2.0023     0.1916
  730   14.580   2903.75     2.0200     0.0515     0.5825     0.1458     2.2596     2.5837   233.2800     2.0264     0.2093
  731   14.600   2922.55     2.0467     0.0383     0.6173     0.1460     2.3009     1.9208   233.6000     2.0673     0.2219
  732   14.620   2932.79     1.9898     0.0358     0.6790     0.1462     2.2687     1.7674   233.9200     2.0348     0.2545
  733   14.640   2933.72     1.8782     0.0347     0.7108     0.1464     2.1717     1.8257   234.2400     1.9375     0.2852
  734   14.660   2934.72     1.8121     0.0353     0.7654     0.1466     2.1253     1.9326   234.5600     1.8908     0.3169
  735   14.680   2935.67     1.7764     0.0329     0.8158     0.1468     2.1134     1.8459   234.8800     1.8785     0.3490
  736   14.700   2936.65     1.8051     0.0314     0.8264     0.1470     2.1516     1.7672   235.2000     1.9164     0.3538
  737   14.720   2937.66     1.8390     0.0304     0.8358     0.1472     2.1870     1.6375   235.5200     1.9514     0.3491
  738   14.740   2938.62     1.7461     0.0301     0.8924     0.1474     2.1119     1.7183   235.8400     1.8761     0.3857
  739   14.760   2939.56     1.7281     0.0312     0.8947     0.1476     2.1073     1.7954   236.1600     1.8711     0.4037
  740   14.780   2940.55     1.7574     0.0309     0.9202     0.1478     2.1373     1.7805   236.4800     1.9008     0.3981
  741   14.800   2941.51     1.8130     0.0291     0.9524     0.1480     2.2100     1.6110   236.8000     1.9732     0.4040
  742   14.820   2942.48     1.8173     0.0308     0.9652     0.1482     2.2223     1.6928   237.1200     1.9852     0.4112
  743   14.840   2943.44     1.8409     0.0327     0.9426     0.1484     2.2361     1.7805   237.4400     1.9987     0.3966
  744   14.860   2944.42     1.8149     0.0348     0.9581     0.1486     2.2049     1.9046   237.7600     1.9671     0.3965
  745   14.880   2945.40     1.8092     0.0350     0.9792     0.1488     2.2206     1.9375   238.0800     1.9825     0.4190
  746   14.900   2946.38     1.7788     0.0362     0.9634     0.1490     2.1879     2.0320   238.4000     1.9495     0.4232
  747   14.920   2947.37     1.8209     0.0372     0.9434     0.1492     2.2235     2.0488   238.7200     1.9848     0.4079
  748   14.940   2948.30     1.7286     0.0382     0.9380     0.1494     2.1245     2.1685   239.0400     1.8854     0.4208
  749   14.960   2949.23     1.6423     0.0374     0.9754     0.1496     2.0452     2.2566   239.3600     1.8058     0.4484
  750   14.980   2950.26     1.6298     0.0372     1.0109     0.1498     2.0516     2.2701   239.6800     1.8119     0.4716
  751   15.000   2951.21     1.6387     0.0337     1.0372     0.1500     2.0713     2.0560   240.0000     1.8313     0.4805
  752   15.020   2952.21     1.6864     0.0341     1.0666     0.1502     2.1299     2.0349   240.3200     1.8896     0.4794
  753   15.040   2953.16     1.7075     0.0347     1.0683     0.1504     2.1572     2.0539   240.6400     1.9166     0.4803
  754   15.060   2954.12     1.8045     0.0374     1.0567     0.1506     2.2495     2.0981   240.9600     2.0085     0.4526
  755   15.080   2955.07     1.8005     0.0378     1.0318     0.1508     2.2406     2.0988   241.2800     1.9993     0.4487
  756   15.100   2956.03     1.8196     0.0403     1.0118     0.1510     2.2438     2.2117   241.6000     2.0022     0.4291
  757   15.120   2957.04     1.7300     0.0400     0.9785     0.1512     2.1475     2.3023   241.9200     1.9056     0.4423
  758   15.140   2958.00     1.7603     0.0387     1.0401     0.1514     2.1917     2.2149   242.2400     1.9495     0.4492
  759   15.160   2958.98     1.8131     0.0357     1.0481     0.1516     2.2541     1.9831   242.5600     2.0115     0.4467
  760   15.180   2959.97     1.8906     0.0392     1.0402     0.1518     2.3283     2.0897   242.8800     2.0854     0.4269
  761   15.200   2960.94     2.0452     0.0430     1.0452     0.1520     2.4862     2.1569   243.2000     2.2430     0.4007
  762   15.220   2961.92     2.3649     0.0487     1.0188     0.1522     2.8075     2.1495   243.5200     2.5640     0.3522
  763   15.240   2962.91     2.5383     0.0515     0.6885     0.1524     2.8741     2.0450   243.8400     2.6302     0.2460
  764   15.260   2963.87     2.6515     0.0538     0.5919     0.1526     2.9156     2.0430   244.1600     2.6714     0.1782
  765   15.280   2964.81     2.4021     0.0551     0.6058     0.1528     2.6515     2.2110   244.4800     2.4070     0.1835
  766   15.300   2965.82     2.1840     0.0571     0.6862     0.1530     2.4556     2.5945   244.8000     2.2108     0.2233
  767   15.320   2966.84     2.1384     0.0523     0.7625     0.1532     2.4560     2.4280   245.1200     2.2109     0.2728
  768   15.340   2967.79     2.1324     0.0397     0.7680     0.1534     2.4567     1.8749   245.4400     2.2112     0.2798
  769   15.360   2968.72     2.0807     0.0344     0.7432     0.1536     2.3996     1.6355   245.7600     2.1538     0.2812
  770   15.380   2969.73     2.0269     0.0339     0.7734     0.1538     2.3415     1.6546   246.0800     2.0954     0.2841
  771   15.400   2970.70     1.9082     0.0349     0.8362     0.1540     2.2516     1.8164   246.4000     2.0052     0.3310
  772   15.420   2971.67     1.8644     0.0352     0.8529     0.1542     2.2221     1.8812   246.7200     1.9753     0.3530
  773   15.440   2972.67     1.8313     0.0343     0.8705     0.1544     2.1925     1.8678   247.0400     1.9455     0.3627
  774   15.460   2973.61     1.7887     0.0338     0.9043     0.1546     2.1638     1.8818   247.3600     1.9165     0.3854
  775   15.480   2974.57     1.7538     0.0334     0.9158     0.1548     2.1372     1.8946   247.6800     1.8895     0.4012
  776   15.500   2975.55     1.7222     0.0330     0.9601     0.1550     2.1205     1.9055   248.0000     1.8725     0.4237
  777   15.520   2976.52     1.7141     0.0334     0.9888     0.1552     2.1233     1.9513   248.3200     1.8750     0.4368
  778   15.540   2977.54     1.7106     0.0336     1.0093     0.1554     2.1333     1.9654   248.6400     1.8847     0.4516
  779   15.560   2978.48     1.7638     0.0332     1.0340     0.1556     2.1931     1.9028   248.9600     1.9442     0.4458
  780   15.580   2979.42     1.8408     0.0340     1.0347     0.1558     2.2755     1.8626   249.2800     2.0262     0.4339
  781   15.600   2980.42     1.9094     0.0360     1.0057     0.1560     2.3349     1.8926   249.6000     2.0853     0.4110
  782   15.620   2981.42     1.9034     0.0374     0.9338     0.1562     2.3048     1.9524   249.9200     2.0549     0.3890
  783   15.640   2982.39     1.8465     0.0385     0.9409     0.1564     2.2363     2.0765   250.2400     1.9861     0.3886
  784   15.660   2983.37     1.8683     0.0406     0.9675     0.1566     2.2678     2.1811   250.5600     2.0173     0.3939
  785   15.680   2984.32     1.8547     0.0387     0.9694     0.1568     2.2666     2.0835   250.8800     2.0157     0.4087
  786   15.700   2985.34     1.8678     0.0356     0.9852     0.1570     2.2767     1.9069   251.2000     2.0255     0.4031
  787   15.720   2986.31     1.8362     0.0377     0.9955     0.1572     2.2581     2.0480   251.5200     2.0066     0.4223
  788   15.740   2987.29     1.8516     0.0375     0.9801     0.1574     2.2683     2.0319   251.8400     2.0165     0.4140
  789   15.760   2988.25     1.9066     0.0399     0.9778     0.1576     2.3225     2.1003   252.1600     2.0704     0.4022
  790   15.780   2989.23     1.9845     0.0429     0.9850     0.1578     2.3996     2.1847   252.4800     2.1472     0.3869
  791   15.800   2990.21     2.0312     0.0478     0.9683     0.1580     2.4424     2.3625   252.8000     2.1896     0.3750
  792   15.820   2991.20     2.0353     0.0466     0.8707     0.1582     2.4238     2.2866   253.1200     2.1707     0.3532
  793   15.840   2992.16     2.0330     0.0494     0.8514     0.1584     2.3846     2.4249   253.4400     2.1311     0.3185
  794   15.860   2993.12     1.9583     0.0510     0.9089     0.1586     2.3319     2.6109   253.7600     2.0781     0.3517
  795   15.880   2994.11     1.9533     0.0506     0.9276     0.1588     2.3419     2.5851   254.0800     2.0878     0.3670
  796   15.900   2995.08     1.8602     0.0441     0.9103     0.1590     2.2466     2.3205   254.4000     1.9922     0.3819
  797   15.920   2996.08     1.8432     0.0390     0.9576     0.1592     2.2336     2.1201   254.7200     1.9789     0.3892
  798   15.940   2997.07     1.8304     0.0409     1.0064     0.1594     2.2476     2.2265   255.0400     1.9926     0.4185
  799   15.960   2997.99     1.8313     0.0387     1.0121     0.1596     2.2584     2.1213   255.3600     2.0031     0.4280
  800   15.980   2998.95     1.8591     0.0367     1.0313     0.1598     2.2942     1.9766   255.6800     2.0385     0.4298
  801   16.000   2999.96     1.8236     0.0382     1.0663     0.1600     2.2694     2.0848   256.0000     2.0134     0.4478
  802   16.020   3000.95     1.8040     0.0387     1.0576     0.1602     2.2455     2.1445   256.3200     1.9892     0.4480
  803   16.040   3001.93     1.8078     0.0385     1.0489     0.1604     2.2413     2.1294   256.6400     1.9847     0.4392
  804   16.060   3002.85     1.7798     0.0390     1.0706     0.1606     2.2258     2.1770   256.9600     1.9688     0.4578
  805   16.080   3003.85     1.7365     0.0346     1.0818     0.1608     2.1862     1.9857   257.2800     1.9289     0.4718
  806   16.100   3004.85     1.7234     0.0340     1.1004     0.1610     2.1862     1.9683   257.6000     1.9286     0.4879
  807   16.120   3005.82     1.7282     0.0347     1.1223     0.1612     2.1974     2.0111   257.9200     1.9394     0.4928
  808   16.140   3006.76     1.7428     0.0343     1.1448     0.1614     2.2220     1.9747   258.2400     1.9637     0.4988
  809   16.160   3007.77     1.8030     0.0356     1.1323     0.1616     2.2793     1.9843   258.5600     2.0207     0.4812
  810   16.180   3008.73     1.8971     0.0384     1.0790     0.1618     2.3554     2.0511   258.8800     2.0965     0.4434
  811   16.200   3009.75     1.9054     0.0408     0.9917     0.1620     2.3324     2.1354   259.2000     2.0732     0.4123
  812   16.220   3010.70     1.9351     0.0436     0.9938     0.1622     2.3471     2.2523   259.5200     2.0876     0.3922
  813   16.240   3011.65     1.8974     0.0470     1.0257     0.1624     2.3250     2.4666   259.8400     2.0652     0.4144
  814   16.260   3012.67     1.9008     0.0458     1.0532     0.1626     2.3379     2.4145   260.1600     2.0777     0.4226
  815   16.280   3013.64     1.8857     0.0420     1.0592     0.1628     2.3311     2.2270   260.4800     2.0706     0.4336
  816   16.300   3014.62     1.8604     0.0413     1.0835     0.1630     2.3109     2.2064   260.8000     2.0501     0.4436
  817   16.320   3015.62     1.8632     0.0410     1.0993     0.1632     2.3195     2.2099   261.1200     2.0584     0.4485
  818   16.340   3016.57     1.9144     0.0453     1.1311     0.1634     2.3884     2.3859   261.4400     2.1269     0.4538
  819   16.360   3017.54     1.9673     0.0555     1.1100     0.1636     2.4391     2.8032   261.7600     2.1774     0.4409
  820   16.380   3018.51     2.0351     0.0656     1.0742     0.1638     2.4926     3.2205   262.0800     2.2306     0.4150
  821   16.400   3019.51     2.0159     0.0705     0.9884     0.1640     2.4419     3.4892   262.4000     2.1795     0.3900
  822   16.420   3020.49     1.9841     0.0709     1.0122     0.1642     2.4011     3.5646   262.7200     2.1384     0.3875
  823   16.440   3021.46     1.9120     0.0705     1.0475     0.1644     2.3512     3.6568   263.0400     2.0881     0.4220
  824   16.460   3032.84     1.9476     0.0665     0.9356     0.1646     2.3568     3.5420   263.3600     2.0935     0.3888
  825   16.480   3049.74     2.0556     0.0565     0.8237     0.1648     2.4178     3.0087   263.6800     2.1541     0.3260
  826   16.500   3062.55     2.1373     0.0536     0.8368     0.1650     2.4758     2.5102   264.0000     2.2118     0.2897
  827   16.520   3063.51     2.0927     0.0484     0.8850     0.1652     2.4596     2.3028   264.3200     2.1953     0.3227
  828   16.540   3064.50     2.0842     0.0495     0.8765     0.1654     2.4441     2.3635   264.6400     2.1795     0.3173
  829   16.560   3065.50     1.9253     0.0474     0.8625     0.1656     2.2899     2.4243   264.9600     2.0249     0.3469
  830   16.580   3066.47     1.9014     0.0477     0.9038     0.1658     2.2706     2.5038   265.2800     2.0053     0.3557
  831   16.600   3067.44     1.8320     0.0479     0.9261     0.1660     2.2157     2.5879   265.6000     1.9501     0.3834
  832   16.620   3068.39     1.7906     0.0420     0.9509     0.1662     2.1826     2.3311   265.9200     1.9167     0.4002
  833   16.640   3069.35     1.7692     0.0409     0.9955     0.1664     2.1814     2.3090   266.2400     1.9152     0.4256
  834   16.660   3070.36     1.8524     0.0422     1.0449     0.1666     2.2894     2.3096   266.5600     2.0229     0.4321
  835   16.680   3071.28     1.9383     0.0426     1.0705     0.1668     2.3825     2.2177   266.8800     2.1156     0.4211
  836   16.700   3072.26     1.9850     0.0433     1.0492     0.1670     2.4293     2.1914   267.2000     2.1621     0.4120
  837   16.720   3073.30     2.0776     0.0450     1.0010     0.1672     2.5132     2.1915   267.5200     2.2457     0.3873
  838   16.740   3074.28     2.0200     0.0495     0.9316     0.1674     2.4098     2.4013   267.8400     2.1420     0.3551
  839   16.760   3075.22     1.9415     0.0515     0.9280     0.1676     2.3195     2.6370   268.1600     2.0513     0.3570
  840   16.780   3076.18     1.8750     0.0514     0.9614     0.1678     2.2711     2.7530   268.4800     2.0026     0.3871
  841   16.800   3077.16     1.9063     0.0490     1.0247     0.1680     2.3331     2.5612   268.8000     2.0643     0.4109
  842   16.820   3078.13     1.9109     0.0441     1.0561     0.1682     2.3506     2.3200   269.1200     2.0815     0.4221
  843   16.840   3079.14     1.9310     0.0385     1.0418     0.1684     2.3710     1.9821   269.4400     2.1015     0.4183
  844   16.860   3080.14     1.9012     0.0414     1.0153     0.1686     2.3297     2.1819   269.7600     2.0599     0.4134
  845   16.880   3081.09     1.9066     0.0423     0.9960     0.1688     2.3285     2.2263   270.0800     2.0584     0.4060
  846   16.900   3082.05     1.9119     0.0485     1.0232     0.1690     2.3343     2.5366   270.4000     2.0639     0.4054
  847   16.920   3083.03     2.0338     0.0469     1.0658     0.1692     2.4805     2.3620   270.7200     2.2098     0.4049
  848   16.940   3084.02     2.3025     0.0475     0.9578     0.1694     2.7239     2.1232   271.0400     2.4528     0.3403
  849   16.960   3084.99     2.3326     0.0497     0.7434     0.1696     2.6764     2.1038   271.3600     2.4050     0.2694
  850   16.980   3085.95     2.2687     0.0577     0.7638     0.1698     2.5761     2.5574   271.6800     2.3044     0.2439
  851   17.000   3086.91     2.4410     0.0605     0.8203     0.1700     2.7844     2.5282   272.0000     2.5124     0.2579
  852   17.020   3087.87     2.6907     0.0660     0.7573     0.1702     3.0253     2.5014   272.3200     2.7530     0.2277
  853   17.040   3088.89     2.8449     0.0679     0.6574     0.1704     3.1347     2.3938   272.6400     2.8620     0.1815
  854   17.060   3089.90     2.8566     0.0820     0.5790     0.1706     3.1024     2.8939   272.9600     2.8295     0.1466
  855   17.080   3090.84     2.9467     0.0855     0.6417     0.1708     3.2123     2.9180   273.2800     2.9391     0.1571
  856   17.100   3091.81     3.1993     0.0891     0.7007     0.1710     3.4908     2.8410   273.6000     3.2172     0.1625
  857   17.120   3092.84     2.9650     0.0846     0.4111     0.1712     3.1683     2.7626   273.9200     2.8944     0.1080
  858   17.140   3093.81     2.4277     0.0722     0.4569     0.1714     2.6071     2.8629   274.2400     2.3329     0.1097
  859   17.160   3094.76     2.2328     0.0639     0.5868     0.1716     2.4662     2.8218   274.5600     2.1916     0.1753
  860   17.180   3095.74     2.2205     0.0586     0.6687     0.1718     2.4934     2.6445   274.8800     2.2185     0.2155
  861   17.200   3096.72     2.1739     0.0472     0.6816     0.1720     2.4650     2.1565   275.2000     2.1898     0.2379
  862   17.220   3097.72     2.1273     0.0422     0.6751     0.1722     2.4086     1.9737   275.5200     2.1331     0.2332
  863   17.240   3098.69     2.0351     0.0408     0.7214     0.1724     2.3350     1.9841   275.8400     2.0592     0.2631
  864   17.260   3099.67     1.9890     0.0396     0.7554     0.1726     2.3029     1.9783   276.1600     2.0268     0.2837
  865   17.280   3100.65     1.9391     0.0362     0.7801     0.1728     2.2625     1.8510   276.4800     1.9860     0.3008
  866   17.300   3101.63     1.8839     0.0351     0.8214     0.1730     2.2217     1.8499   276.8000     1.9449     0.3246
  867   17.320   3102.61     1.8787     0.0350     0.8718     0.1732     2.2377     1.8642   277.1200     1.9606     0.3476
  868   17.340   3103.56     1.8985     0.0341     0.9083     0.1734     2.2747     1.8033   277.4400     1.9973     0.3617
  869   17.360   3104.54     1.9326     0.0368     0.9390     0.1736     2.3249     1.9147   277.7600     2.0472     0.3715
  870   17.380   3105.51     1.9887     0.0397     0.9756     0.1738     2.3915     2.0196   278.0800     2.1134     0.3715
  871   17.400   3106.49     2.0464     0.0412     0.9979     0.1740     2.4616     2.0089   278.4000     2.1832     0.3731
  872   17.420   3107.48     2.0679     0.0402     0.9532     0.1742     2.4684     1.9631   278.7200     2.1897     0.3559
  873   17.440   3108.42     2.0882     0.0424     1.0018     0.1744     2.4984     2.0233   279.0400     2.2193     0.3615
  874   17.460   3109.39     2.0120     0.0455     1.0108     0.1746     2.4305     2.2398   279.3600     2.1511     0.3821
  875   17.480   3110.41     1.9635     0.0440     1.0481     0.1748     2.3988     2.2451   279.6800     2.1191     0.4066
  876   17.500   3111.35     2.0596     0.0435     1.0654     0.1750     2.5069     2.1343   280.0000     2.2269     0.3997
  877   17.520   3112.36     2.0579     0.0428     1.0266     0.1752     2.4909     2.0773   280.3200     2.2106     0.3871
  878   17.540   3113.31     2.1169     0.0437     0.9690     0.1754     2.5331     2.0829   280.6400     2.2525     0.3621
  879   17.560   3114.33     2.0017     0.0469     0.9656     0.1756     2.4010     2.3196   280.9600     2.1200     0.3656
  880   17.580   3115.33     2.0929     0.0514     1.0149     0.1758     2.5171     2.4868   281.2800     2.2358     0.3732
  881   17.600   3116.31     2.2398     0.0520     0.9721     0.1760     2.6673     2.3493   281.6000     2.3857     0.3529
  882   17.620   3117.28     2.3385     0.0487     0.8957     0.1762     2.7235     2.1085   281.9200     2.4416     0.3033
  883   17.640   3118.20     2.3282     0.0536     0.9244     0.1764     2.7036     2.3188   282.2400     2.4214     0.2963
  884   17.660   3119.21     2.5142     0.0633     0.9441     0.1766     2.9191     2.5533   282.5600     2.6365     0.2987
  885   17.680   3120.18     2.7228     0.0694     0.7989     0.1768     3.0784     2.5832   282.8800     2.7956     0.2398
  886   17.700   3121.18     2.9605     0.0666     0.7225     0.1770     3.2678     2.3023   283.2000     2.9846     0.1860
  887   17.720   3122.15     3.1216     0.0699     0.6250     0.1772     3.3992     2.2538   283.5200     3.1156     0.1553
  888   17.740   3123.14     3.0068     0.0781     0.5592     0.1774     3.2500     2.4957   283.8400     2.9662     0.1355
  889   17.760   3124.17     2.4404     0.0720     0.4935     0.1776     2.6520     2.8392   284.1600     2.3679     0.1377
  890   17.780   3125.15     2.1260     0.0702     0.4960     0.1778     2.3281     3.2069   284.4800     2.0437     0.1485
  891   17.800   3126.10     1.9377     0.0640     0.5820     0.1780     2.1720     3.2525   284.8000     1.8872     0.2015
  892   17.820   3127.05     1.9430     0.0513     0.6439     0.1782     2.2030     2.6587   285.1200     1.9179     0.2297
  893   17.840   3128.03     2.0687     0.0292     0.6900     0.1784     2.3544     1.4326   285.4400     2.0689     0.2426
  894   17.860   3129.04     2.3047     0.0439     0.7144     0.1786     2.6006     1.9294   285.7600     2.3149     0.2273
  895   17.880   3130.08     2.9657     0.0754     0.7389     0.1788     3.2735     2.7612   286.0800     2.9874     0.1871
  896   17.900   3131.03     4.0380     0.0882     0.7115     0.1790     4.3388     2.2900   286.4000     4.0524     0.1331
  897   17.920   3131.99     4.5186     0.0899     0.7930     0.1792     4.8416     1.9559   286.7200     4.5549     0.1299
  898   17.940   3132.97     3.9375     0.0900     0.2236     0.1794     4.0480     2.2514   287.0400     3.7610     0.0221
  899   17.960   3133.95     3.1974     0.0848     0.3583     0.1796     3.3388     2.5824   287.3600     3.0515     0.0517
  900   17.980   3134.98     2.7229     0.0807     0.4858     0.1798     2.9022     2.8812   287.6800     2.6145     0.0950
  901   18.000   3135.97     2.4565     0.0696     0.6102     0.1800     2.6917     2.7643   288.0000     2.4037     0.1584
  902   18.020   3136.89     2.2663     0.0495     0.6865     0.1802     2.5416     2.1496   288.3200     2.2533     0.2110
  903   18.040   3137.90     2.2636     0.0429     0.7031     0.1804     2.5593     1.9087   288.6400     2.2707     0.2306
  904   18.060   3138.88     2.3072     0.0405     0.7668     0.1806     2.6063     1.7555   288.9600     2.3174     0.2294
  905   18.080   3139.89     2.2091     0.0386     0.7762     0.1808     2.5312     1.7303   289.2800     2.2419     0.2615
  906   18.100   3140.87     2.0936     0.0367     0.8191     0.1810     2.4237     1.7251   289.6000     2.1341     0.2836
  907   18.120   3141.83     1.9273     0.0321     0.8844     0.1812     2.2955     1.6408   289.9200     2.0056     0.3467
  908   18.140   3142.80     1.8918     0.0297     0.9378     0.1814     2.2789     1.5640   290.2400     1.9887     0.3722
  909   18.160   3143.75     1.8913     0.0297     0.9709     0.1816     2.2946     1.5724   290.5600     2.0041     0.3885
  910   18.180   3144.75     1.8871     0.0312     1.0007     0.1818     2.3048     1.6571   290.8800     2.0140     0.4036
  911   18.200   3145.74     1.9241     0.0317     1.0218     0.1820     2.3472     1.6523   291.2000     2.0560     0.4015
  912   18.220   3146.70     1.9783     0.0308     1.0322     0.1822     2.4094     1.5719   291.5200     2.1179     0.3987
  913   18.240   3147.68     1.9738     0.0309     1.0394     0.1824     2.4113     1.5573   291.8400     2.1195     0.4055
  914   18.260   3148.72     1.9698     0.0327     1.0450     0.1826     2.4068     1.6594   292.1600     2.1147     0.4057
  915   18.280   3149.71     1.9237     0.0352     1.0471     0.1828     2.3626     1.8239   292.4800     2.0701     0.4165
  916   18.300   3150.66     1.9187     0.0367     1.0835     0.1830     2.3680     1.9147   292.8000     2.0752     0.4272
  917   18.320   3151.59     1.9320     0.0362     1.0924     0.1832     2.3917     1.8783   293.1200     2.0986     0.4342
  918   18.340   3152.55     1.9480     0.0326     1.0952     0.1834     2.4070     1.6723   293.4400     2.1135     0.4302
  919   18.360   3153.56     1.9378     0.0327     1.0989     0.1836     2.3991     1.6772   293.7600     2.1054     0.4345
  920   18.380   3154.57     1.9025     0.0341     1.1393     0.1838     2.3783     1.7813   294.0800     2.0842     0.4553
  921   18.400   3155.55     1.8990     0.0349     1.1247     0.1840     2.3732     1.8405   294.4000     2.0788     0.4547
  922   18.420   3156.53     1.9267     0.0438     1.1277     0.1842     2.3996     2.2415   294.7200     2.1049     0.4474
  923   18.440   3157.47     1.9954     0.0530     1.1331     0.1844     2.4688     2.6507   295.0400     2.1738     0.4338
  924   18.460   3158.44     1.9926     0.0587     1.1166     0.1846     2.4662     2.9346   295.3600     2.1708     0.4344
  925   18.480   3159.41     1.9966     0.0595     1.0720     0.1848     2.4626     2.9672   295.6800     2.1669     0.4267
  926   18.500   3160.41     1.9445     0.0599     1.0723     0.1850     2.3930     3.0650   296.0000     2.0970     0.4211
  927   18.520   3169.87     1.9387     0.0600     1.1212     0.1852     2.4021     3.1133   296.3200     2.1058     0.4357
  928   18.540   3185.35     1.9565     0.0553     1.1729     0.1854     2.4416     2.8653   296.6400     2.1450     0.4516
  929   18.560   3200.84     1.9743     0.0498     1.2276     0.1856     2.4812     2.5531   296.9600     2.1842     0.4675
  930   18.580   3202.72     2.0467     0.0435     1.2419     0.1858     2.5679     2.1444   297.2800     2.2706     0.4647
  931   18.600   3203.80     2.0424     0.0418     1.1784     0.1860     2.5522     2.0444   297.6000     2.2546     0.4558
  932   18.620   3204.71     1.9834     0.0404     1.1317     0.1862     2.4521     2.0259   297.9200     2.1542     0.4316
  933   18.640   3205.68     1.9263     0.0430     1.1581     0.1864     2.4119     2.2536   298.2400     2.1137     0.4589
  934   18.660   3206.66     1.9204     0.0457     1.1224     0.1866     2.3966     2.3571   298.5600     2.0980     0.4514
  935   18.680   3207.66     1.9338     0.0448     1.1281     0.1868     2.4076     2.3267   298.8800     2.1087     0.4464
  936   18.700   3208.67     1.9187     0.0428     1.0804     0.1870     2.3806     2.2183   299.2000     2.0814     0.4385
  937   18.720   3209.64     1.9384     0.0414     1.0958     0.1872     2.3898     2.1482   299.5200     2.0903     0.4247
  938   18.740   3210.59     1.9531     0.0434     1.1085     0.1874     2.4215     2.2445   299.8400     2.1217     0.4374
  939   18.760   3211.53     1.9582     0.0420     1.1281     0.1876     2.4279     2.1374   300.1600     2.1278     0.4375
  940   18.780   3212.53     1.9586     0.0424     1.1698     0.1878     2.4450     2.1569   300.4800     2.1445     0.4524
  941   18.800   3213.50     1.9665     0.0425     1.1019     0.1880     2.4388     2.1753   300.8000     2.1380     0.4381
  942   18.820   3214.50     1.9925     0.0438     1.0830     0.1882     2.4474     2.1930   301.1200     2.1463     0.4169
  943   18.840   3215.41     1.9793     0.0465     1.0679     0.1884     2.4296     2.3325   301.4400     2.1281     0.4153
  944   18.860   3216.36     1.8617     0.0465     1.1389     0.1886     2.3316     2.4768   301.7600     2.0298     0.4582
  945   18.880   3217.37     1.8382     0.0298     1.1833     0.1888     2.3310     1.6236   302.0800     2.0290     0.4853
  946   18.900   3218.37     1.8666     0.0217     1.2396     0.1890     2.3783     1.1697   302.4000     2.0759     0.4959
  947   18.920   3219.29     1.9450     0.0318     1.3203     0.1892     2.4865     1.6478   302.7200     2.1838     0.5038
  948   18.940   3220.32     3.1893     0.0631     1.4055     0.1894     3.7633     2.1611   303.0400     3.4603     0.3404
  949   18.960   3221.32     5.5351     0.1012     1.2494     0.1896     6.1300     2.0239   303.3600     5.8267     0.2106
  950   18.980   3222.29     6.3989     0.1224     0.2924     0.1898     6.5846     1.9176   303.6800     6.2809     0.0402
  951   19.000   3223.27     5.7294     0.1283     0.1683     0.1900     5.8055     2.1504   304.0000     5.5015    -0.0017
  952   19.020   3224.29     4.4643     0.1341     0.1860     0.1902     4.5337     2.8033   304.3200     4.2294    -0.0059
  953   19.040   3225.24     3.5717     0.1299     0.3533     0.1904     3.6888     3.4668   304.6400     3.3842     0.0264
  954   19.060   3226.23     2.7563     0.1118     0.4802     0.1906     2.9396     3.8036   304.9600     2.6346     0.0939
  955   19.080   3227.18     2.2759     0.0845     0.6204     0.1908     2.5194     3.6368   305.2800     2.2141     0.1761
  956   19.100   3228.15     2.1109     0.0561     0.7026     0.1910     2.3955     2.6300   305.6000     2.0899     0.2329
  957   19.120   3229.14     2.0762     0.0397     0.7600     0.1912     2.3869     1.8984   305.9200     2.0810     0.2637
  958   19.140   3230.14     1.9925     0.0368     0.8409     0.1914     2.3336     1.8350   306.2400     2.0273     0.3062
  959   19.160   3231.12     1.9428     0.0357     0.8842     0.1916     2.3093     1.8330   306.5600     2.0027     0.3400
  960   19.180   3232.11     1.9907     0.0324     0.9424     0.1918     2.3776     1.6398   306.8800     2.0707     0.3521
  961   19.200   3233.11     1.9951     0.0329     0.9565     0.1920     2.3966     1.6547   307.2000     2.0894     0.3656
  962   19.220   3234.06     2.0169     0.0329     0.9943     0.1922     2.4281     1.6304   307.5200     2.1206     0.3711
  963   19.240   3235.06     1.9885     0.0312     1.0412     0.1924     2.4200     1.5658   307.8400     2.1122     0.3953
  964   19.260   3236.04     1.9717     0.0317     1.0584     0.1926     2.4158     1.6046   308.1600     2.1077     0.4103
  965   19.280   3237.00     1.9811     0.0318     1.0709     0.1928     2.4298     1.6151   308.4800     2.1213     0.4127
  966   19.300   3237.95     1.9994     0.0321     1.0678     0.1930     2.4483     1.6065   308.8000     2.1395     0.4094
  967   19.320   3238.95     1.9700     0.0330     1.0922     0.1932     2.4273     1.6677   309.1200     2.1182     0.4229
  968   19.340   3239.96     1.9609     0.0321     1.0340     0.1934     2.4031     1.6370   309.4400     2.0937     0.4105
  969   19.360   3240.90     1.9197     0.0314     1.0527     0.1936     2.3598     1.6255   309.7600     2.0500     0.4167
  970   19.380   3241.85     1.8834     0.0349     1.0961     0.1938     2.3382     1.8440   310.0800     2.0281     0.4383
  971   19.400   3242.86     1.8863     0.0345     1.1278     0.1940     2.3546     1.8321   310.4000     2.0442     0.4506
  972   19.420   3243.84     1.9118     0.0319     1.1739     0.1942     2.3998     1.6787   310.7200     2.0891     0.4633
  973   19.440   3244.84     2.0124     0.0329     1.1731     0.1944     2.5058     1.6571   311.0400     2.1947     0.4468
  974   19.460   3245.81     2.1330     0.0337     1.1272     0.1946     2.6118     1.5875   311.3600     2.3004     0.4110
  975   19.480   3246.75     2.0543     0.0392     1.0441     0.1948     2.4948     1.8999   311.6800     2.1831     0.3912
  976   19.500   3247.76     2.1549     0.0459     1.1097     0.1950     2.6134     2.1692   312.0000     2.3014     0.3896
  977   19.520   3248.73     2.3780     0.0483     1.0659     0.1952     2.8350     2.0797   312.3200     2.5227     0.3543
  978   19.540   3249.72     2.4786     0.0452     0.8858     0.1954     2.8847     1.8189   312.6400     2.5721     0.2999
  979   19.560   3250.67     2.3440     0.0470     0.7956     0.1956     2.6794     1.9808   312.9600     2.3664     0.2548
  980   19.580   3251.63     2.1703     0.0494     0.8687     0.1958     2.5239     2.2424   313.2800     2.2106     0.2924
  981   19.600   3252.65     2.0287     0.0486     0.9739     0.1960     2.4234     2.3622   313.6000     2.1098     0.3527
  982   19.620   3253.62     1.9818     0.0427     1.0129     0.1962     2.4037     2.1557   313.9200     2.0897     0.3868
  983   19.640   3254.61     2.0524     0.0366     1.0253     0.1964     2.4804     1.8081   314.2400     2.1661     0.3798
  984   19.660   3255.57     2.1732     0.0446     1.0514     0.1966     2.6109     2.0760   314.5600     2.2963     0.3683
  985   19.680   3256.55     2.2721     0.0491     1.0722     0.1968     2.7224     2.1700   314.8800     2.4075     0.3636
  986   19.700   3257.56     2.4666     0.0570     1.0337     0.1970     2.9143     2.3512   315.2000     2.5991     0.3345
  987   19.720   3258.55     2.6982     0.0711     0.8673     0.1972     3.0822     2.6847   315.5200     2.7666     0.2594
  988   19.740   3259.54     2.9559     0.0794     0.8574     0.1974     3.3137     2.7446   315.8400     2.9978     0.2184
  989   19.760   3260.51     3.0079     0.0960     0.7398     0.1976     3.3451     3.1512   316.1600     3.0290     0.1996
  990   19.780   3261.48     3.0113     0.0974     0.6891     0.1978     3.3068     3.2233   316.4800     2.9903     0.1692
  991   19.800   3262.48     2.9387     0.0891     0.5066     0.1980     3.1682     2.9677   316.8000     2.8514     0.1221
  992   19.820   3263.47     2.4712     0.0854     0.5086     0.1982     2.6761     3.2912   317.1200     2.3589     0.1235
  993   19.840   3264.43     2.1205     0.0776     0.5695     0.1984     2.3413     3.6043   317.4400     2.0238     0.1617
  994   19.860   3265.41     2.0143     0.0674     0.6738     0.1986     2.2865     3.3014   317.7600     1.9688     0.2284
  995   19.880   3266.43     1.9396     0.0473     0.7088     0.1988     2.2313     2.4384   318.0800     1.9132     0.2591
  996   19.900   3267.38     1.9844     0.0353     0.7471     0.1990     2.2912     1.7916   318.4000     1.9728     0.2694
  997   19.920   3268.39     2.0414     0.0415     0.7746     0.1992     2.3641     2.0422   318.7200     2.0454     0.2783
  998   19.940   3269.37     2.0806     0.0475     0.7890     0.1994     2.4112     2.2889   319.0400     2.0922     0.2810
  999   19.960   3270.37     2.1584     0.0423     0.8148     0.1996     2.4935     1.9814   319.3600     2.1742     0.2752
 1000   19.980   3271.34     2.2774     0.0375     0.8751     0.1998     2.6381     1.6594   319.6800     2.3184     0.2842
 1001   20.000   3272.29     2.3860     0.0366     0.8726     0.2000     2.7558     1.5445   320.0000     2.4358     0.2794
 1002   20.020   3273.32     2.4623     0.0434     0.8603     0.2002     2.8535     1.7531   320.3200     2.5332     0.2886
 1003   20.040   3274.27     2.6299     0.0584     0.9246     0.2004     2.9903     2.3046   320.6400     2.6696     0.2465
 1004   20.060   3275.32     4.6212     0.0950     0.8550     0.2006     5.0088     2.3284   320.9600     4.6878     0.1545
 1005   20.080   3276.34     7.7179     0.1302     0.3000     0.2008     7.9327     1.8376   321.2800     7.6114     0.0408
 1006   20.100   3277.32     6.9363     0.1299     0.0801     0.2010     6.9776     1.7824   321.6000     6.6560    -0.0155
 1007   20.120   3278.29     5.3037     0.1311     0.0632     0.2012     5.3277     2.3884   321.9200     5.0058    -0.0288
 1008   20.140   3279.26     4.4038     0.1260     0.1319     0.2014     4.4415     2.7832   322.2400     4.1193    -0.0271
 1009   20.160   3280.23     3.4929     0.1111     0.3126     0.2016     3.6013     3.0973   322.5600     3.2788     0.0177
 1010   20.180   3281.21     2.7901     0.0999     0.4019     0.2018     2.9401     3.4786   322.8800     2.6172     0.0597
 1011   20.200   3282.20     2.5021     0.0770     0.5155     0.2020     2.7032     3.0540   323.2000     2.3800     0.1164
 1012   20.220   3283.23     2.4078     0.0576     0.6064     0.2022     2.6450     2.3688   323.5200     2.3214     0.1562
 1013   20.240   3284.25     2.3493     0.0454     0.6470     0.2024     2.6211     1.9259   323.8400     2.2973     0.1936
 1014   20.260   3285.20     2.2569     0.0406     0.7080     0.2026     2.5438     1.7852   324.1600     2.2196     0.2164
 1015   20.280   3286.20     2.2059     0.0383     0.7645     0.2028     2.5176     1.7358   324.4800     2.1931     0.2459
 1016   20.300   3287.15     2.2203     0.0346     0.8005     0.2030     2.5525     1.5567   324.8000     2.2277     0.2640
 1017   20.320   3288.16     2.1644     0.0371     0.8597     0.2032     2.5167     1.7037   325.1200     2.1916     0.2901
 1018   20.340   3289.15     2.1264     0.0370     0.9150     0.2034     2.5028     1.7246   325.4400     2.1774     0.3182
 1019   20.360   3290.11     2.1633     0.0423     0.9605     0.2036     2.5597     1.9271   325.7600     2.2339     0.3313
 1020   20.380   3291.10     2.2057     0.0477     0.9944     0.2038     2.6212     2.1296   326.0800     2.2951     0.3422
 1021   20.400   3292.05     2.2691     0.0530     0.9739     0.2040     2.6846     2.3321   326.4000     2.3582     0.3330
 1022   20.420   3293.07     2.1023     0.0543     0.9846     0.2042     2.5071     2.5214   326.7200     2.1804     0.3487
 1023   20.440   3293.99     2.0005     0.0549     1.0561     0.2044     2.4343     2.6976   327.0400     2.1072     0.3931
 1024   20.460   3305.36     2.0315     0.0495     1.1129     0.2046     2.4907     2.4800   327.3600     2.1633     0.4101
 1025   20.480   3321.58     2.0837     0.0427     1.1696     0.2048     2.5667     2.1398   327.6800     2.2391     0.4211
 1026   20.500   3337.80     2.1360     0.0419     1.2263     0.2050     2.6428     2.0996   328.0000     2.3148     0.4321
 1027   20.520   3348.17     2.1656     0.0396     1.2032     0.2052     2.6733     1.8258   328.3200     2.3450     0.4280
 1028   20.540   3349.16     2.1481     0.0369     1.1946     0.2054     2.6487     1.7249   328.6400     2.3200     0.4252
 1029   20.560   3350.11     2.2171     0.0276     1.2031     0.2056     2.7249     1.2469   328.9600     2.3959     0.4188
 1030   20.580   3351.08     2.2665     0.0354     1.2433     0.2058     2.7777     1.5702   329.2800     2.4484     0.4130
 1031   20.600   3352.06     2.7003     0.0468     1.3165     0.2060     3.2406     1.8398   329.6000     2.9110     0.3727
 1032   20.620   3353.08     3.8167     0.0614     1.2057     0.2062     4.3554     1.7160   329.9200     4.0255     0.2697
 1033   20.640   3354.06     4.7704     0.0704     0.8800     0.2064     5.1979     1.5091   330.2400     4.8676     0.1671
 1034   20.660   3355.06     5.1165     0.0843     0.5638     0.2066     5.3605     1.6563   330.5600     5.0299     0.0744
 1035   20.680   3356.04     4.8913     0.1000     0.5507     0.2068     5.1283     2.0286   330.8800     4.7974     0.0745
 1036   20.700   3357.02     4.5327     0.1030     0.5439     0.2070     4.7548     2.2296   331.2000     4.4236     0.0729
 1037   20.720   3358.02     3.9093     0.0981     0.5202     0.2072     4.1363     2.4212   331.5200     3.8048     0.0877
 1038   20.740   3359.01     3.3683     0.0900     0.4485     0.2074     3.5628     2.5875   331.8400     3.2310     0.0791
 1039   20.760   3359.94     2.9434     0.0698     0.4930     0.2076     3.1360     2.3388   332.1600     2.8038     0.0898
 1040   20.780   3360.94     2.5831     0.0574     0.5800     0.2078     2.8144     2.1735   332.4800     2.4819     0.1385
 1041   20.800   3361.94     2.3015     0.0476     0.7311     0.2080     2.5946     2.0449   332.8000     2.2618     0.2166
 1042   20.820   3362.91     2.3071     0.0402     0.8083     0.2082     2.6369     1.7539   333.1200     2.3038     0.2504
 1043   20.840   3363.91     2.4462     0.0426     0.8780     0.2084     2.8045     1.7782   333.4400     2.4711     0.2610
 1044   20.860   3364.89     3.0155     0.0511     0.9565     0.2086     3.4011     1.7987   333.7600     3.0673     0.2315
 1045   20.880   3365.92     3.7934     0.0598     0.9106     0.2088     4.1905     1.6412   334.0800     3.8564     0.1912
 1046   20.900   3366.88     3.8966     0.0634     0.6671     0.2090     4.2019     1.6156   334.4000     3.8675     0.1338
 1047   20.920   3367.86     3.5507     0.0660     0.5933     0.2092     3.8036     1.7938   334.7200     3.4689     0.1133
 1048   20.940   3368.77     3.0729     0.0655     0.6004     0.2094     3.3210     2.0675   335.0400     2.9860     0.1278
 1049   20.960   3369.79     2.5654     0.0618     0.6680     0.2096     2.8461     2.3519   335.3600     2.5107     0.1827
 1050   20.980   3370.78     2.2791     0.0540     0.7831     0.2098     2.5820     2.2470   335.6800     2.2463     0.2278
 1051   21.000   3371.78     2.1799     0.0509     0.8433     0.2100     2.5275     2.3340   336.0000     2.1915     0.2819
 1052   21.020   3372.76     2.1918     0.0345     0.8929     0.2102     2.5587     1.5732   336.3200     2.2224     0.2985
 1053   21.040   3373.73     2.3661     0.0318     0.9456     0.2104     2.7551     1.3884   336.6400     2.4184     0.2960
 1054   21.060   3374.78     3.2385     0.0362     0.9927     0.2106     3.6557     1.3710   336.9600     3.3188     0.2367
 1055   21.080   3375.83     8.0010     0.0386     0.9257     0.2108     8.4364     0.6999   337.2800     8.0992     0.1026
 1056   21.100   3378.18    14.9455     0.0399     0.6807     0.2110    15.2465     0.2660   337.6000    14.9089     0.0339
 1057   21.120   3379.32    19.2542     0.0503     0.1800     0.2112    19.3936     0.2677   337.9200    19.0556     0.0064
 1058   21.140   3381.55    23.1710     0.0627     0.0404     0.2114    23.1973     0.2737   338.2400    22.8590    -0.0065
 1059   21.160   3382.97    24.2516     0.0697     0.0328     0.2116    24.2661     0.2940   338.5600    23.9275    -0.0074
 1060   21.180   3383.96    24.5047     0.0825    -0.0022     0.2118    24.5131     0.3372   338.8800    24.1742    -0.0079
 1061   21.200   3384.94    24.5397     0.0912    -0.0175     0.2120    24.5337     0.3717   339.2000    24.1945    -0.0093
 1062   21.220   3385.86    24.0323     0.1063    -0.0101     0.2122    24.0253     0.4368   339.5200    23.6858    -0.0097
 1063   21.240   3386.79    23.0889     0.1296     0.0130     0.2124    23.0926     0.5541   339.8400    22.7528    -0.0089
 1064   21.260   3387.66    21.2738     0.1483     0.0205     0.2126    21.2821     0.6864   340.1600    20.9419    -0.0092
 1065   21.280   3388.62    18.4533     0.1588     0.0060     0.2128    18.4586     0.8514   340.4800    18.1181    -0.0111
 1066   21.300   3389.59    15.0332     0.1565     0.0044     0.2130    15.0328     1.0318   340.8000    14.6920    -0.0146
 1067   21.320   3390.61    10.9390     0.1513     0.0147     0.2132    10.9463     1.3216   341.1200    10.6052    -0.0186
 1068   21.340   3391.61     8.8525     0.1539     0.0369     0.2134     8.8602     1.7105   341.4400     8.5188    -0.0229
 1069   21.360   3392.61     7.8232     0.1650     0.2615     0.2136     7.9023     2.0757   341.7600     7.5605    -0.0030
 1070   21.380   3393.64     7.0169     0.1922     0.2859     0.2138     7.1309     2.7234   342.0800     6.7888     0.0085
 1071   21.400   3394.64     6.5225     0.2022     0.2676     0.2140     6.6467     3.0889   342.4000     6.3043     0.0130
 1072   21.420   3395.64     6.7383     0.1637     0.2108     0.2142     6.8317     2.4742   342.7200     6.4890     0.0013
 1073   21.440   3396.62     6.7062     0.1731     0.1795     0.2144     6.7923     2.5385   343.0400     6.4493    -0.0014
 1074   21.460   3397.60     6.1503     0.1859     0.0873     0.2146     6.1888     3.0196   343.3600     5.8454    -0.0211
 1075   21.480   3398.59     6.0974     0.1924     0.1763     0.2148     6.1539     3.1665   343.6800     5.8102    -0.0139
 1076   21.500   3399.63     5.8169     0.1757     0.2621     0.2150     5.9318     2.9829   344.0000     5.5878     0.0107
 1077   21.520   3400.62     5.1950     0.1643     0.1100     0.2152     5.2445     3.1507   344.3200     4.9001    -0.0200
 1078   21.540   3401.61     4.4987     0.1402     0.1463     0.2154     4.5550     3.0178   344.6400     4.2104    -0.0194
 1079   21.560   3402.59     4.3640     0.1513     0.3225     0.2156     4.4704     3.4835   344.9600     4.1255     0.0090
 1080   21.580   3403.63     4.9257     0.1637     0.4391     0.2158     5.0989     3.4776   345.2800     4.7537     0.0412
 1081   21.600   3404.64     5.4696     0.1518     0.5353     0.2160     5.6799     2.8444   345.6000     5.3343     0.0532
 1082   21.620   3405.65     5.9833     0.1427     0.5567     0.2162     6.2194     2.4371   345.9200     5.8735     0.0589
 1083   21.640   3406.70     7.1617     0.1516     0.4693     0.2164     7.3686     2.3049   346.2400     7.0224     0.0398
 1084   21.660   3407.76     9.8461     0.1510     0.6313     0.2166    10.0849     1.6648   346.5600     9.7384     0.0361
 1085   21.680   3408.82    12.3348     0.1456     0.5608     0.2168    12.5717     1.2723   346.8800    12.2248     0.0284
 1086   21.700   3409.88    14.3927     0.1320     0.2307     0.2170    14.5588     0.9784   347.2000    14.2116     0.0127
 1087   21.720   3410.94    16.5303     0.1108     0.0931     0.2172    16.5783     0.7072   347.5200    16.2308    -0.0063
 1088   21.740   3411.96    17.3735     0.0833     0.0662     0.2174    17.4043     0.4870   347.8400    17.0565    -0.0084
 1089   21.760   3413.01    17.4653     0.0863     0.0645     0.2176    17.4926     0.4943   348.1600    17.1444    -0.0089
 1090   21.780   3414.02    17.1699     0.1115     0.0703     0.2178    17.1982     0.6457   348.4800    16.8498    -0.0089
 1091   21.800   3415.04    16.4403     0.1553     0.0732     0.2180    16.4696     0.9428   348.8000    16.1208    -0.0092
 1092   21.820   3416.06    15.4139     0.2154     0.0714     0.2182    15.4437     1.3765   349.1200    15.0946    -0.0097
 1093   21.840   3417.09    13.9526     0.2526     0.0646     0.2184    13.9799     1.7634   349.4400    13.6305    -0.0113
 1094   21.860   3418.14    11.3234     0.2594     0.0718     0.2186    11.3522     2.0903   349.7600    11.0024    -0.0137
 1095   21.880   3419.10     8.3239     0.2476     0.0880     0.2188     8.3581     2.8360   350.0800     8.0080    -0.0172
 1096   21.900   3420.10     6.6719     0.2272     0.1357     0.2190     6.7164     3.3143   350.4000     6.3660    -0.0177
 1097   21.920   3421.34     5.8079     0.2200     0.2937     0.2192     5.9240     3.6366   350.7200     5.5733     0.0103
 1098   21.940   3423.45     5.4719     0.2224     0.3800     0.2194     5.6133     4.0614   351.0400     5.2623     0.0223
 1099   21.960   3424.48     5.3095     0.2093     0.5862     0.2196     5.5037     3.9458   351.3600     5.1523     0.0470
 1100   21.980   3425.50     5.4548     0.1768     0.6316     0.2198     5.7391     3.2441   351.6800     5.3874     0.0849
 1101   22.000   3426.51     4.9564     0.1377     0.4259     0.2200     5.1461     2.7557   352.0000     4.7941     0.0482
 1102   22.020   3427.50     4.1869     0.1120     0.5273     0.2202     4.3913     2.5911   352.3200     4.0389     0.0664
 1103   22.040   3428.47     3.7973     0.0926     0.6650     0.2204     4.0499     2.3639   352.6400     3.6972     0.1032
 1104   22.060   3429.47     4.8232     0.1115     0.8215     0.2206     5.1495     2.8510   352.9600     4.7965     0.1186
 1105   22.080   3430.53     9.0147     0.1320     0.7968     0.2208     9.3689     1.7462   353.2800     9.0156     0.0703
 1106   22.100   3431.59    12.2539     0.1296     0.5350     0.2210    12.5396     1.1554   353.6000    12.1860     0.0378
 1107   22.120   3432.59    10.7592     0.1353     0.1650     0.2212    10.8555     1.1534   353.9200    10.5016     0.0002
 1108   22.140   3433.60     7.8922     0.1647     0.1837     0.2214     7.9600     1.9173   354.2400     7.6058    -0.0078
 1109   22.160   3434.64     7.2566     0.2182     0.2633     0.2216     7.3612     2.9962   354.5600     7.0067     0.0039
 1110   22.180   3435.67     7.7568     0.2247     0.2975     0.2218     7.8758     3.0030   354.8800     7.5210     0.0081
 1111   22.200   3436.68     8.8372     0.2038     0.3136     0.2220     8.9786     2.4768   355.2000     8.6234     0.0132
 1112   22.220   3437.67     8.5893     0.1920     0.1226     0.2222     8.6682     2.1318   355.5200     8.3127    -0.0044
 1113   22.240   3438.76     7.8220     0.1743     0.1382     0.2224     7.8676     2.1989   355.8400     7.5118    -0.0152
 1114   22.260   3439.78     8.8756     0.1568     0.2556     0.2226     8.9666     1.8975   356.1600     8.6104    -0.0007
 1115   22.280   3440.84    10.9539     0.1362     0.2818     0.2228    11.0821     1.3461   356.4800    10.7256     0.0077
 1116   22.300   3441.82    12.2952     0.1103     0.0232     0.2230    12.3411     0.9265   356.8000    11.9843    -0.0095
 1117   22.320   3442.93    13.3246     0.0797    -0.0500     0.2232    13.3103     0.6206   357.1200    12.9532    -0.0198
 1118   22.340   3443.98    14.4673     0.0654    -0.0531     0.2234    14.4460     0.4685   357.4400    14.0885    -0.0195
 1119   22.360   3445.01    15.1703     0.0667    -0.0624     0.2236    15.1445     0.4470   357.7600    14.7867    -0.0193
 1120   22.380   3446.05    15.4345     0.0744    -0.0563     0.2238    15.4098     0.4849   358.0800    15.0517    -0.0188
 1121   22.400   3447.09    15.5963     0.0745    -0.0440     0.2240    15.5765     0.4782   358.4000    15.2181    -0.0178
 1122   22.420   3448.13    15.1651     0.0713    -0.0381     0.2242    15.1473     0.4616   358.7200    14.7886    -0.0180
 1123   22.440   3449.12    14.4732     0.0774    -0.0407     0.2244    14.4571     0.5218   359.0400    14.0981    -0.0186
 1124   22.460   3450.15    13.2642     0.0899    -0.0382     0.2246    13.2478     0.6683   359.3600    12.8885    -0.0205
 1125   22.480   3451.20    12.8888     0.1012    -0.0423     0.2248    12.8711     0.7793   359.6800    12.5114    -0.0213
 1126   22.500   3452.23    12.8082     0.1120    -0.0319     0.2250    12.7937     0.8709   360.0000    12.4337    -0.0209
 1127   22.520   3453.26    12.6703     0.1228    -0.0253     0.2252    12.6606     0.9618   360.3200    12.3003    -0.0202
 1128   22.540   3454.27    12.0563     0.1264    -0.0359     0.2254    12.0425     1.0159   360.6400    11.6819    -0.0221
 1129   22.560   3455.26    11.0462     0.1362    -0.0344     0.2256    11.0289     1.1810   360.9600    10.6680    -0.0250
 1130   22.580   3461.39    10.6843     0.1519     0.0181     0.2258    10.6830     1.4420   361.2800    10.3217    -0.0224
 1131   22.600   3474.26    11.0366     0.1803     0.0796     0.2260    11.0611     1.7117   361.6000    10.6995    -0.0161
 1132   22.620   3487.12    11.3889     0.2058     0.1411     0.2262    11.4392     1.9275   361.9200    11.0773    -0.0098
 1133   22.640   3492.45    11.2618     0.2253     0.0712     0.2264    11.2972     1.9930   362.2400    10.9349    -0.0130
 1134   22.660   3493.45     9.4491     0.2343     0.0569     0.2266     9.4901     2.4213   362.5600     9.1275    -0.0144
 1135   22.680   3494.44     7.5098     0.2028     0.0199     0.2268     7.5204     2.6634   362.8800     7.1575    -0.0283
 1136   22.700   3495.47     5.8877     0.1714     0.0364     0.2270     5.9007     2.8084   363.2000     5.5375    -0.0355
 1137   22.720   3496.48     4.9817     0.1661     0.0746     0.2272     5.0070     3.2334   363.5200     4.6435    -0.0359
 1138   22.740   3497.46     4.1239     0.1404     0.1377     0.2274     4.1695     3.3203   363.8400     3.8057    -0.0310
 1139   22.760   3498.46     3.4214     0.1141     0.2162     0.2276     3.4983     3.2634   364.1600     3.1341    -0.0140
 1140   22.780   3499.45     3.0224     0.0878     0.3305     0.2278     3.1438     2.8952   364.4800     2.7793     0.0221
 1141   22.800   3500.43     3.1175     0.0684     0.4099     0.2280     3.2793     2.2234   364.8000     2.9145     0.0539
 1142   22.820   3501.46     3.2789     0.0507     0.4659     0.2282     3.4670     1.5573   365.1200     3.1019     0.0708
 1143   22.840   3502.42     3.3249     0.0445     0.5345     0.2284     3.5399     1.3361   365.4400     3.1744     0.0893
 1144   22.860   3503.41     3.3074     0.0424     0.6101     0.2286     3.5514     1.2845   365.7600     3.1857     0.1106
 1145   22.880   3504.42     3.2364     0.0404     0.7013     0.2288     3.5177     1.2360   366.0800     3.1516     0.1400
 1146   22.900   3505.40     3.1177     0.0433     0.7639     0.2290     3.4302     1.3876   366.4000     3.0638     0.1681
 1147   22.920   3506.39     3.1014     0.0434     0.7898     0.2292     3.4309     1.3846   366.7200     3.0642     0.1813
 1148   22.940   3507.35     2.8309     0.0411     0.8549     0.2294     3.1838     1.4343   367.0400     2.8167     0.2169
 1149   22.960   3508.33     2.8045     0.0412     0.8694     0.2296     3.1693     1.4700   367.3600     2.8020     0.2281
 1150   22.980   3509.32     2.7380     0.0432     0.8927     0.2298     3.1042     1.5735   367.6800     2.7365     0.2346
 1151   23.000   3510.36     2.5961     0.0434     0.9210     0.2300     2.9779     1.6562   368.0000     2.6099     0.2601
 1152   23.020   3511.35     2.4659     0.0434     0.9609     0.2302     2.8651     1.7429   368.3200     2.4967     0.2884
 1153   23.040   3512.31     2.4800     0.0437     1.0075     0.2304     2.8980     1.7631   368.6400     2.5294     0.3024
 1154   23.060   3513.29     2.5822     0.0468     1.0560     0.2306     3.0169     1.8257   368.9600     2.6480     0.3038
 1155   23.080   3514.24     2.6555     0.0499     1.1009     0.2308     3.1103     1.8914   369.2800     2.7410     0.3108
 1156   23.100   3515.26     2.8979     0.0500     1.1539     0.2310     3.3738     1.7575   369.6000     3.0042     0.3002
 1157   23.120   3516.25     3.0600     0.0478     1.1937     0.2312     3.5603     1.5793   369.9200     3.1904     0.3009
 1158   23.140   3517.25     3.3430     0.0460     1.2044     0.2314     3.8426     1.3856   370.2400     3.4724     0.2760
 1159   23.160   3518.28     3.2653     0.0434     1.2578     0.2316     3.7869     1.3224   370.5600     3.4164     0.2957
 1160   23.180   3519.24     3.2134     0.0432     1.2811     0.2318     3.7490     1.3409   370.8800     3.3781     0.3088
 1161   23.200   3520.22     2.9868     0.0441     1.3393     0.2320     3.5390     1.4552   371.2000     3.1678     0.3418
 1162   23.220   3521.20     2.8538     0.0421     1.4133     0.2322     3.4384     1.4672   371.5200     3.0669     0.3782
 1163   23.240   3522.20     2.7687     0.0391     1.4498     0.2324     3.3736     1.4036   371.8400     3.0018     0.4024
 1164   23.260   3523.21     2.7350     0.0381     1.4196     0.2326     3.3322     1.3997   372.1600     2.9600     0.4018
 1165   23.280   3524.17     2.6274     0.0386     1.4492     0.2328     3.2315     1.4567   372.4800     2.8590     0.4217
 1166   23.300   3525.19     2.4946     0.0389     1.5204     0.2330     3.1237     1.5449   372.8000     2.7509     0.4599
 1167   23.320   3526.17     2.4702     0.0428     1.5487     0.2332     3.1189     1.7347   373.1200     2.7458     0.4776
 1168   23.340   3527.16     2.5688     0.0429     1.5346     0.2334     3.2161     1.6819   373.4400     2.8426     0.4601
 1169   23.360   3528.13     2.7232     0.0423     1.5210     0.2336     3.3634     1.5742   373.7600     2.9897     0.4319
 1170   23.380   3529.10     2.8954     0.0438     1.5033     0.2338     3.5285     1.5351   374.0800     3.1544     0.4038
 1171   23.400   3530.12     3.0688     0.0421     1.5113     0.2340     3.7023     1.3888   374.4000     3.3279     0.3831
 1172   23.420   3531.12     3.1261     0.0486     1.4985     0.2342     3.7590     1.5534   374.7200     3.3843     0.3760
 1173   23.440   3532.09     3.1364     0.0462     1.4923     0.2344     3.7660     1.4701   375.0400     3.3910     0.3730
 1174   23.460   3533.07     3.1196     0.0431     1.4646     0.2346     3.7383     1.3828   375.3600     3.3629     0.3682
 1175   23.480   3534.06     3.0340     0.0412     1.4568     0.2348     3.6460     1.3476   375.6800     3.2703     0.3738
 1176   23.500   3535.05     2.8984     0.0475     1.4341     0.2350     3.5030     1.6301   376.0000     3.1270     0.3852
 1177   23.520   3536.04     2.8139     0.0464     1.5399     0.2352     3.4399     1.6353   376.3200     3.0636     0.4098
 1178   23.540   3537.05     2.7700     0.0429     1.5166     0.2354     3.4172     1.5444   376.6400     3.0406     0.4294
 1179   23.560   3538.03     2.6501     0.0383     1.3536     0.2356     3.2410     1.4180   376.9600     2.8641     0.4089
 1180   23.580   3539.03     2.4623     0.0359     1.3523     0.2358     3.0259     1.4396   377.2800     2.6486     0.4178
 1181   23.600   3540.02     2.2980     0.0373     1.3553     0.2360     2.8606     1.5955   377.6000     2.4830     0.4447
 1182   23.620   3540.99     2.1264     0.0338     1.3888     0.2362     2.7076     1.5812   377.9200     2.3297     0.4926
 1183   23.640   3541.96     2.0671     0.0320     1.3547     0.2364     2.6420     1.5362   378.2400     2.2637     0.5002
 1184   23.660   3542.95     1.9859     0.0301     1.3142     0.2366     2.5472     1.5116   378.5600     2.1687     0.5071
 1185   23.680   3543.94     1.9909     0.0296     1.2806     0.2368     2.5306     1.4830   378.8800     2.1518     0.4872
 1186   23.700   3544.93     1.8848     0.0299     1.2807     0.2370     2.4246     1.5709   379.2000     2.0454     0.5124
 1187   23.720   3545.92     1.9008     0.0285     1.2370     0.2372     2.4283     1.5125   379.5200     2.0487     0.4972
 1188   23.740   3546.91     1.9709     0.0268     1.1830     0.2374     2.4750     1.3680   379.8400     2.0952     0.4597
 1189   23.760   3547.91     2.0314     0.0248     1.1480     0.2376     2.5178     1.2254   380.1600     2.1377     0.4307
 1190   23.780   3548.86     2.0113     0.0243     1.1364     0.2378     2.4877     1.2015   380.4800     2.1072     0.4254
 1191   23.800   3549.87     1.8787     0.0240     1.1524     0.2380     2.3609     1.2654   380.8000     1.9801     0.4597
 1192   23.820   3550.85     1.8095     0.0247     1.1724     0.2382     2.2975     1.3524   381.1200     1.9164     0.4821
 1193   23.840   3551.79     1.7055     0.0241     1.1902     0.2384     2.2040     1.4005   381.4400     1.8226     0.5204
 1194   23.860   3552.81     1.6877     0.0237     1.1955     0.2386     2.1921     1.4049   381.7600     1.8104     0.5316
 1195   23.880   3553.81     1.7532     0.0241     1.1505     0.2388     2.2442     1.3808   382.0800     1.8621     0.4995
 1196   23.900   3554.80     1.7062     0.0250     1.1772     0.2390     2.1967     1.4553   382.4000     1.8143     0.5119
 1197   23.920   3555.77     1.6261     0.0253     1.2037     0.2392     2.1274     1.5484   382.7200     1.7447     0.5470
 1198   23.940   3556.74     1.5927     0.0246     1.2293     0.2394     2.1068     1.5449   383.0400     1.7238     0.5713
 1199   23.960   3557.74     1.6425     0.0238     1.2043     0.2396     2.1553     1.4611   383.3600     1.7719     0.5539
 1200   23.980   3558.74     1.6361     0.0247     1.1979     0.2398     2.1378     1.4940   383.6800     1.7542     0.5443
 1201   24.000   3559.72     1.5725     0.0239     1.2121     0.2400     2.0791     1.5018   384.0000     1.6951     0.5699
 1202   24.020   3560.70     1.5164     0.0234     1.2332     0.2402     2.0322     1.5309   384.3200     1.6479     0.5996
 1203   24.040   3561.69     1.5118     0.0245     1.2309     0.2404     2.0308     1.6255   384.6400     1.6462     0.6047
 1204   24.060   3562.67     1.5450     0.0254     1.2088     0.2406     2.0548     1.6509   384.9600     1.6699     0.5829
 1205   24.080   3563.63     1.6093     0.0256     1.1885     0.2408     2.1131     1.6105   385.2800     1.7278     0.5550
 1206   24.100   3564.62     1.7023     0.0245     1.1516     0.2410     2.1914     1.4525   385.6000     1.8058     0.5115
 1207   24.120   3565.62     1.8273     0.0234     1.0838     0.2412     2.2940     1.2968   385.9200     1.9081     0.4562
 1208   24.140   3566.61     1.8559     0.0236     1.0508     0.2414     2.2986     1.2674   386.2400     1.9124     0.4250
 1209   24.160   3567.62     1.7910     0.0241     1.0422     0.2416     2.2302     1.3337   386.5600     1.8437     0.4362
 1210   24.180   3568.58     1.6708     0.0235     1.0551     0.2418     2.1101     1.3926   386.8800     1.7232     0.4668
 1211   24.200   3569.55     1.6136     0.0229     1.0817     0.2420     2.0655     1.4320   387.2000     1.6783     0.4970
 1212   24.220   3570.55     1.6461     0.0231     1.0788     0.2422     2.1015     1.3987   387.5200     1.7140     0.4913
 1213   24.240   3571.56     1.6503     0.0241     1.0531     0.2424     2.0959     1.4631   387.8400     1.7081     0.4793
 1214   24.260   3572.56     1.6075     0.0238     1.0473     0.2426     2.0458     1.4668   388.1600     1.6577     0.4833
 1215   24.280   3573.53     1.5446     0.0254     1.0731     0.2428     1.9945     1.6459   388.4800     1.6061     0.5159
 1216   24.300   3574.49     1.6034     0.0248     1.0677     0.2430     2.0543     1.5701   388.8000     1.6655     0.4988
 1217   24.320   3575.49     1.7086     0.0235     1.0601     0.2432     2.1546     1.3915   389.1200     1.7655     0.4638
 1218   24.340   3576.47     1.7950     0.0225     1.0039     0.2434     2.2278     1.2622   389.4400     1.8383     0.4281
 1219   24.360   3577.48     1.8023     0.0233     0.9899     0.2436     2.2168     1.2875   389.7600     1.8270     0.4069
 1220   24.380   3578.43     1.7167     0.0232     1.0080     0.2438     2.1354     1.3423   390.0800     1.7453     0.4316
 1221   24.400   3579.46     1.6355     0.0232     1.0553     0.2440     2.0691     1.4003   390.4000     1.6787     0.4698
 1222   24.420   3580.42     1.6207     0.0232     1.0618     0.2442     2.0668     1.4345   390.7200     1.6760     0.4880
 1223   24.440   3581.36     1.6257     0.0221     1.0573     0.2444     2.0678     1.3532   391.0400     1.6768     0.4821
 1224   24.460   3582.37     1.6763     0.0209     1.0541     0.2446     2.1166     1.2756   391.3600     1.7252     0.4658
 1225   24.480   3583.35     1.6523     0.0216     1.0739     0.2448     2.1022     1.2965   391.6800     1.7105     0.4831
 1226   24.500   3584.34     1.7147     0.0227     1.0742     0.2450     2.1607     1.3393   392.0000     1.7687     0.4619
 1227   24.520   3585.38     1.9353     0.0232     1.0657     0.2452     2.3814     1.2676   392.3200     1.9891     0.4110
 1228   24.540   3586.34     2.3285     0.0208     1.0023     0.2454     2.7691     0.9576   392.6400     2.3765     0.3383
 1229   24.560   3591.29     3.3216     0.0213     0.8116     0.2456     3.6878     0.7476   392.9600     3.2949     0.2001
 1230   24.580   3611.57     4.4432     0.0216     0.6366     0.2458     4.7359     0.6954   393.2800     4.3426     0.1294
 1231   24.600   3631.86     5.5648     0.0238     0.4840     0.2460     5.7840     0.7668   393.6000     5.3904     0.0586
 1232   24.620   3637.62     6.2361     0.0297     0.4807     0.2462     6.4420     0.4780   393.9200     6.0481     0.0404
 1233   24.640   3638.63     6.4014     0.0335     0.4927     0.2464     6.6040     0.5230   394.2400     6.2097     0.0380
 1234   24.660   3639.64     6.4962     0.0400     0.5433     0.2466     6.7167     0.6164   394.5600     6.3222     0.0440
 1235   24.680   3640.64     6.8083     0.0468     0.5752     0.2468     7.0495     0.7059   394.8800     6.6546     0.0492
 1236   24.700   3641.64     7.5157     0.0516     0.5021     0.2470     7.7388     0.7256   395.2000     7.3436     0.0388
 1237   24.720   3642.66     8.3653     0.0541     0.4321     0.2472     8.5561     0.6673   395.5200     8.1606     0.0254
 1238   24.740   3643.71     8.9198     0.0622     0.3954     0.2474     9.0896     0.7172   395.8400     8.6938     0.0181
 1239   24.760   3644.71     9.3889     0.0683     0.3821     0.2476     9.5505     0.7431   396.1600     9.1543     0.0150
 1240   24.780   3645.74     9.5636     0.0685     0.3761     0.2478     9.7255     0.7178   396.4800     9.3290     0.0147
 1241   24.800   3646.74     9.5965     0.0754     0.3431     0.2480     9.7436     0.7865   396.8000     9.3468     0.0109
 1242   24.820   3647.73     9.5656     0.0776     0.3393     0.2482     9.7098     0.8123   397.1200     9.3127     0.0102
 1243   24.840   3648.80     9.7162     0.0741     0.2716     0.2484     9.8417     0.7651   397.4400     9.4443     0.0053
 1244   24.860   3649.80     9.5237     0.0720     0.2210     0.2486     9.6201     0.7549   397.7600     9.2223    -0.0021
 1245   24.880   3650.83     9.3947     0.0672     0.1951     0.2488     9.4786     0.7104   398.0800     9.0805    -0.0054
 1246   24.900   3651.81     9.3652     0.0625     0.1940     0.2490     9.4448     0.6674   398.4000     9.0464    -0.0066
 1247   24.920   3652.83     9.2356     0.0593     0.2083     0.2492     9.3213     0.6408   398.7200     8.9225    -0.0051
 1248   24.940   3653.86     9.0278     0.0643     0.1907     0.2494     9.1132     0.7109   399.0400     8.7142    -0.0053
 1249   24.960   3654.89     8.9356     0.0640     0.1439     0.2496     9.0040     0.7134   399.3600     8.6046    -0.0101
 1250   24.980   3655.90     8.7842     0.0597     0.1444     0.2498     8.8452     0.6791   399.6800     8.4456    -0.0124
 1251   25.000   3656.89     8.5833     0.0554     0.1654     0.2500     8.6474     0.6449   400.0000     8.2474    -0.0118
 1252   25.020   3657.87     8.6308     0.0515     0.1916     0.2502     8.7082     0.5969   400.3200     8.3079    -0.0079
 1253   25.040   3658.92     8.8258     0.0517     0.1897     0.2504     8.9094     0.5868   400.6400     8.5088    -0.0060
 1254   25.060   3659.97     8.7551     0.0500     0.1598     0.2506     8.8210     0.5672   400.9600     8.4200    -0.0111
 1255   25.080   3660.96     8.5276     0.0521     0.1784     0.2508     8.5995     0.6033   401.2800     8.1983    -0.0097
 1256   25.100   3661.98     8.2647     0.0538     0.1979     0.2510     8.3461     0.6431   401.6000     7.9445    -0.0072
 1257   25.120   3662.95     8.0416     0.0538     0.2059     0.2512     8.1259     0.6573   401.9200     7.7240    -0.0065
 1258   25.140   3663.98     7.7142     0.0582     0.2439     0.2514     7.8095     0.7409   402.2400     7.4072    -0.0033
 1259   25.160   3665.03     7.4537     0.0644     0.2701     0.2516     7.5623     0.8473   402.5600     7.1597     0.0010
 1260   25.180   3666.04     7.2288     0.0631     0.2937     0.2518     7.3503     0.8655   402.8800     6.9474     0.0054
 1261   25.200   3667.06     7.2084     0.0612     0.3187     0.2520     7.3387     0.8510   403.2000     6.9355     0.0084
 1262   25.220   3668.04     7.1116     0.0617     0.3478     0.2522     7.2525     0.8622   403.5200     6.8490     0.0122
 1263   25.240   3669.04     7.0395     0.0670     0.3805     0.2524     7.1945     0.9476   403.8400     6.7907     0.0172
 1264   25.260   3670.13     7.0091     0.0637     0.4039     0.2526     7.1763     0.9096   404.1600     6.7722     0.0215
 1265   25.280   3671.16     7.1797     0.0541     0.4057     0.2528     7.3519     0.7634   404.4800     6.9474     0.0226
 1266   25.300   3672.16     7.3439     0.0422     0.3803     0.2530     7.5061     0.5782   404.8000     7.1013     0.0188
 1267   25.320   3673.15     7.5231     0.0364     0.3676     0.2532     7.6792     0.4907   405.1200     7.2740     0.0163
 1268   25.340   3674.17     7.6268     0.0376     0.3194     0.2534     7.7761     0.4947   405.4400     7.3707     0.0139
 1269   25.360   3675.18     7.6254     0.0377     0.2586     0.2536     7.7369     0.4943   405.7600     7.3311     0.0016
 1270   25.380   3676.25     7.6871     0.0396     0.2541     0.2538     7.7940     0.5170   406.0800     7.3879     0.0001
 1271   25.400   3677.26     7.6589     0.0458     0.2294     0.2540     7.7584     0.5961   406.4000     7.3520    -0.0023
 1272   25.420   3678.28     7.6076     0.0508     0.2393     0.2542     7.7053     0.6645   406.7200     7.2985    -0.0030
 1273   25.440   3679.28     7.5783     0.0612     0.2581     0.2544     7.6833     0.8101   407.0400     7.2762    -0.0006
 1274   25.460   3680.32     7.7648     0.0596     0.2825     0.2546     7.8784     0.7763   407.3600     7.4710     0.0021
 1275   25.480   3681.37     7.9712     0.0514     0.3210     0.2548     8.0999     0.6447   407.6800     7.6922     0.0067
 1276   25.500   3682.33     8.0169     0.0534     0.3381     0.2550     8.1595     0.6667   408.0000     7.7515     0.0109
 1277   25.520   3683.35     7.8601     0.0531     0.3207     0.2552     7.9936     0.6749   408.3200     7.5852     0.0082
 1278   25.540   3684.38     7.6036     0.0466     0.2808     0.2554     7.7303     0.6113   408.6400     7.3217     0.0063
 1279   25.560   3685.42     7.2148     0.0493     0.2535     0.2556     7.3223     0.6809   408.9600     6.9134     0.0001
 1280   25.580   3686.44     6.7862     0.0639     0.2602     0.2558     6.8959     0.9357   409.2800     6.4867     0.0008
 1281   25.600   3687.41     6.3064     0.0732     0.2806     0.2560     6.4193     1.1514   409.6000     6.0097     0.0021
 1282   25.620   3688.41     5.8962     0.0744     0.2978     0.2562     6.0191     1.2509   409.9200     5.6092     0.0065
 1283   25.640   3689.44     5.2991     0.0792     0.3199     0.2564     5.4280     1.4887   410.2400     5.0178     0.0101
 1284   25.660   3690.46     4.7446     0.0929     0.3859     0.2566     4.8946     1.9498   410.5600     4.4840     0.0225
 1285   25.680   3691.47     4.3736     0.1010     0.4284     0.2568     4.5487     2.3049   410.8800     4.1378     0.0387
 1286   25.700   3692.45     4.3151     0.0964     0.4711     0.2570     4.5035     2.2260   411.2000     4.0923     0.0468
 1287   25.720   3693.46     4.0080     0.0772     0.4000     0.2572     4.1888     1.8510   411.5200     3.7773     0.0458
 1288   25.740   3694.52     3.5421     0.0609     0.4627     0.2574     3.7281     1.6715   411.8400     3.3163     0.0562
 1289   25.760   3695.50     3.2116     0.0575     0.5455     0.2576     3.4312     1.7873   412.1600     3.0191     0.0879
 1290   25.780   3696.50     3.2505     0.0612     0.5837     0.2578     3.4883     1.8936   412.4800     3.0758     0.1002
 1291   25.800   3697.48     3.8008     0.0503     0.6481     0.2580     4.0619     1.4630   412.8000     3.6491     0.0998
 1292   25.820   3698.53     4.6297     0.0428     0.4789     0.2582     4.8594     0.9866   413.1200     4.4463     0.0654
 1293   25.840   3699.55     5.2439     0.0436     0.5099     0.2584     5.4550     0.8647   413.4400     5.0416     0.0484
 1294   25.860   3700.59     5.5223     0.0434     0.4784     0.2586     5.7287     0.7872   413.7600     5.3150     0.0438
 1295   25.880   3701.61     5.4462     0.0501     0.4424     0.2588     5.6361     0.9181   414.0800     5.2220     0.0370
 1296   25.900   3702.60     5.1771     0.0532     0.4407     0.2590     5.3611     1.0203   414.4000     4.9467     0.0362
 1297   25.920   3703.59     4.9067     0.0512     0.4587     0.2592     5.0969     1.0401   414.7200     4.6822     0.0414
 1298   25.940   3704.60     4.6790     0.0634     0.4861     0.2594     4.8769     1.3536   415.0400     4.4619     0.0475
 1299   25.960   3705.63     4.4571     0.0756     0.5143     0.2596     4.6694     1.6804   415.3600     4.2541     0.0578
 1300   25.980   3706.61     4.2627     0.0800     0.5520     0.2598     4.4888     1.8451   415.6800     4.0732     0.0684
 1301   26.000   3707.61     4.5333     0.0721     0.5733     0.2600     4.7760     1.5986   416.0000     4.3600     0.0729
 1302   26.020   3708.64     4.8731     0.0630     0.5177     0.2602     5.0947     1.2938   416.3200     4.6784     0.0572
 1303   26.040   3709.66     4.6714     0.0670     0.4874     0.2604     4.8792     1.4244   416.6400     4.4625     0.0525
 1304   26.060   3710.69     4.1894     0.0790     0.4910     0.2606     4.3932     1.8660   416.9600     3.9763     0.0565
 1305   26.080   3711.68     4.2940     0.0957     0.5348     0.2608     4.5143     2.2484   417.2800     4.0970     0.0643
 1306   26.100   3712.68     4.4755     0.1024     0.4474     0.2610     4.6856     2.2820   417.6000     4.2680     0.0560
 1307   26.120   3713.67     4.5593     0.0849     0.4184     0.2612     4.7286     1.8611   417.9200     4.3106     0.0329
 1308   26.140   3714.68     4.2204     0.0776     0.4318     0.2614     4.4006     1.8056   418.2400     3.9824     0.0422
 1309   26.160   3715.68     3.5066     0.0816     0.4630     0.2616     3.6951     2.2831   418.5600     3.2765     0.0574
 1310   26.180   3716.68     2.8955     0.0687     0.5402     0.2618     3.1125     2.2783   418.8800     2.6936     0.0952
 1311   26.200   3717.67     2.3009     0.0496     0.6304     0.2620     2.5464     2.0762   419.2000     2.1272     0.1523
 1312   26.220   3718.68     1.9487     0.0422     0.7390     0.2622     2.2487     2.1275   419.5200     1.8292     0.2476
 1313   26.240   3719.66     1.8927     0.0270     0.7647     0.2624     2.2106     1.4232   419.8400     1.7908     0.2762
 1314   26.260   3720.65     1.7894     0.0199     0.8136     0.2626     2.1215     1.0912   420.1600     1.7014     0.3106
 1315   26.280   3721.59     1.6935     0.0181     0.8545     0.2628     2.0488     1.0652   420.4800     1.6283     0.3581
 1316   26.300   3722.64     1.6754     0.0225     0.8726     0.2630     2.0386     1.3455   420.8000     1.6178     0.3719
 1317   26.320   3723.64     1.7275     0.0235     0.8947     0.2632     2.1021     1.3699   421.1200     1.6810     0.3741
 1318   26.340   3724.64     1.9497     0.0235     0.8933     0.2634     2.3260     1.2520   421.4400     1.9045     0.3327
 1319   26.360   3725.62     2.4317     0.0220     0.8440     0.2636     2.7954     0.9575   421.7600     2.3737     0.2551
 1320   26.380   3726.60     2.9698     0.0194     0.7954     0.2638     3.3089     0.6708   422.0800     2.8869     0.1888
 1321   26.400   3727.60     3.3320     0.0211     0.7853     0.2640     3.6626     0.6385   422.4000     3.2402     0.1616
 1322   26.420   3728.57     3.4640     0.0262     0.7888     0.2642     3.7955     0.7584   422.7200     3.3728     0.1556
 1323   26.440   3729.58     3.4404     0.0274     0.7916     0.2644     3.7710     0.7905   423.0400     3.3479     0.1561
 1324   26.460   3730.53     3.2404     0.0296     0.8112     0.2646     3.5784     0.8968   423.3600     3.1550     0.1713
 1325   26.480   3731.56     2.8526     0.0337     0.8446     0.2648     3.2013     1.1473   423.6800     2.7776     0.2040
 1326   26.500   3732.56     2.4221     0.0365     0.8995     0.2650     2.7915     1.4793   424.0000     2.3675     0.2603
 1327   26.520   3733.54     2.0816     0.0347     0.9578     0.2652     2.4761     1.6284   424.3200     2.0518     0.3290
 1328   26.540   3734.50     1.9880     0.0357     0.9913     0.2654     2.4018     1.8137   424.6400     1.9772     0.3641
 1329   26.560   3735.49     1.8728     0.0407     1.0116     0.2656     2.2925     2.1547   424.9600     1.8676     0.3929
 1330   26.580   3736.50     1.8300     0.0457     1.0682     0.2658     2.2674     2.4957   425.2800     1.8421     0.4211
 1331   26.600   3737.52     1.9443     0.0414     1.0701     0.2660     2.3921     2.1788   425.6000     1.9665     0.4069
 1332   26.620   3738.48     1.9956     0.0408     1.0535     0.2662     2.4471     2.0717   425.9200     2.0212     0.4004
 1333   26.640   3741.13     2.0808     0.0378     1.0151     0.2664     2.5135     1.8173   426.2400     2.0873     0.3659
 1334   26.660   3757.92     2.0030     0.0358     0.9709     0.2666     2.4172     1.7135   426.5600     1.9906     0.3611
 1335   26.680   3774.70     1.9252     0.0386     0.9268     0.2668     2.3209     1.8454   426.8800     1.8940     0.3563
 1336   26.700   3783.31     1.8101     0.0357     0.9680     0.2670     2.1940     1.9438   427.2000     1.7668     0.3662
 1337   26.720   3784.32     1.7219     0.0298     1.0441     0.2672     2.1551     1.7171   427.5200     1.7276     0.4424
 1338   26.740   3785.32     1.6206     0.0276     1.0726     0.2674     2.0624     1.6920   427.8400     1.6345     0.4799
 1339   26.760   3786.27     1.5786     0.0266     1.1104     0.2676     2.0393     1.6806   428.1600     1.6111     0.5146
 1340   26.780   3787.23     1.5857     0.0272     1.1498     0.2678     2.0618     1.7213   428.4800     1.6333     0.5300
 1341   26.800   3788.23     1.5972     0.0290     1.1831     0.2680     2.0918     1.8157   428.8000     1.6630     0.5469
 1342   26.820   3789.25     1.6149     0.0287     1.2195     0.2682     2.1205     1.7858   429.1200     1.6914     0.5532
 1343   26.840   3790.25     1.6723     0.0292     1.2503     0.2684     2.1934     1.7594   429.4400     1.7640     0.5512
 1344   26.860   3791.21     1.7179     0.0290     1.2713     0.2686     2.2494     1.7014   429.7600     1.8196     0.5479
 1345   26.880   3792.22     1.7058     0.0296     1.2833     0.2688     2.2399     1.7256   430.0800     1.8098     0.5541
 1346   26.900   3793.20     1.6669     0.0299     1.3135     0.2690     2.2159     1.7885   430.4000     1.7855     0.5814
 1347   26.920   3794.16     1.6355     0.0292     1.3339     0.2692     2.1927     1.7828   430.7200     1.7620     0.6002
 1348   26.940   3795.16     1.6094     0.0297     1.3484     0.2694     2.1739     1.8374   431.0400     1.7428     0.6166
 1349   26.960   3796.14     1.6081     0.0299     1.3533     0.2696     2.1758     1.8622   431.3600     1.7445     0.6204
 1350   26.980   3797.14     1.6196     0.0287     1.3645     0.2698     2.1908     1.7683   431.6800     1.7591     0.6198
 1351   27.000   3798.14     1.6129     0.0270     1.3705     0.2700     2.1889     1.6727   432.0000     1.7569     0.6268
 1352   27.020   3799.13     1.6515     0.0282     1.3574     0.2702     2.2243     1.7167   432.3200     1.7920     0.6103
 1353   27.040   3800.13     1.6826     0.0270     1.3469     0.2704     2.2475     1.6004   432.6400     1.8149     0.5922
 1354   27.060   3801.13     1.7567     0.0221     1.3885     0.2706     2.3326     1.2703   432.9600     1.8996     0.5796
 1355   27.080   3802.11     2.0166     0.0242     1.3442     0.2708     2.5982     1.2466   433.2800     2.1649     0.5154
 1356   27.100   3803.12     2.3713     0.0313     1.1778     0.2710     2.8853     1.3792   433.6000     2.4517     0.3895
 1357   27.120   3804.09     2.8712     0.0416     1.1502     0.2712     3.3545     1.5917   433.9200     2.9206     0.3022
 1358   27.140   3805.12     4.0499     0.0478     1.0339     0.2714     4.5164     1.4257   434.2400     4.0821     0.2090
 1359   27.160   3806.13     6.0796     0.0543     0.7341     0.2716     6.4324     1.0383   434.5600     5.9978     0.0965
 1360   27.180   3807.18     8.1435     0.0636     0.4340     0.2718     8.3624     0.8670   434.8800     7.9275     0.0318
 1361   27.200   3808.19     9.2737     0.0658     0.2659     0.2720     9.4066     0.7411   435.2000     8.9714     0.0050
 1362   27.220   3809.24    10.1777     0.0596     0.1999     0.2722    10.2657     0.6043   435.5200     9.8302    -0.0064
 1363   27.240   3810.25    10.9174     0.0702     0.1668     0.2724    10.9950     0.6573   435.8400    10.5592    -0.0083
 1364   27.260   3811.32    11.6214     0.0780     0.1281     0.2726    11.6804     0.6863   436.1600    11.2443    -0.0117
 1365   27.280   3812.37    12.4753     0.0765     0.0721     0.2728    12.5112     0.6288   436.4800    12.0747    -0.0155
 1366   27.300   3813.38    13.2323     0.0724     0.0458     0.2730    13.2540     0.5599   436.8000    12.8172    -0.0173
 1367   27.320   3814.44    14.1338     0.0682     0.0405     0.2732    14.1502     0.4967   437.1200    13.7130    -0.0171
 1368   27.340   3815.50    15.1114     0.0693     0.0161     0.2734    15.1210     0.4614   437.4400    14.6836    -0.0171
 1369   27.360   3816.56    16.1783     0.0750    -0.0291     0.2736    16.1736     0.4681   437.7600    15.7359    -0.0181
 1370   27.380   3817.61    17.2190     0.0869    -0.0643     0.2738    17.1963     0.5132   438.0800    16.7582    -0.0196
 1371   27.400   3818.64    18.2759     0.1053    -0.0671     0.2740    18.2469     0.5868   438.4000    17.8085    -0.0193
 1372   27.420   3819.59    19.5352     0.1224    -0.0578     0.2742    19.5097     0.6417   438.7200    19.0710    -0.0176
 1373   27.440   3820.57    21.0907     0.1403    -0.0473     0.2744    21.0697     0.6812   439.0400    20.6307    -0.0157
 1374   27.460   3821.50    22.7773     0.1600    -0.0338     0.2746    22.7615     0.7213   439.3600    22.3222    -0.0140
 1375   27.480   3822.45    24.4848     0.1774    -0.0163     0.2748    24.4757     0.7407   439.6800    24.0361    -0.0123
 1376   27.500   3823.44    25.9792     0.1936    -0.0008     0.2750    25.9769     0.7580   440.0000    25.5369    -0.0110
 1377   27.520   3824.39    27.2726     0.2088     0.0169     0.2752    27.2774     0.7743   440.3200    26.8371    -0.0098
 1378   27.540   3825.40    28.2729     0.2212     0.0413     0.2754    28.2856     0.7889   440.6400    27.8450    -0.0088
 1379   27.560   3826.31    28.9260     0.2332     0.0590     0.2756    28.9482     0.8099   440.9600    28.5072    -0.0078
 1380   27.580   3827.28    29.6431     0.2417     0.0821     0.2758    29.6750     0.8193   441.2800    29.2337    -0.0068
 1381   27.600   3828.28    30.4203     0.2484     0.1133     0.2760    30.4620     0.8205   441.6000    30.0204    -0.0059
 1382   27.620   3829.23    31.2307     0.2568     0.1553     0.2762    31.2899     0.8254   441.9200    30.8480    -0.0044
 1383   27.640   3830.24    32.0247     0.2732     0.1918     0.2764    32.0996     0.8558   442.2400    31.6573    -0.0031
 1384   27.660   3831.20    32.7106     0.2847     0.2153     0.2766    32.7987     0.8723   442.5600    32.3561    -0.0021
 1385   27.680   3832.22    33.3910     0.2942     0.2374     0.2768    33.4886     0.8822   442.8800    33.0457    -0.0014
 1386   27.700   3833.22    33.7922     0.3033     0.2474     0.2770    33.8942     0.8983   443.2000    33.4510    -0.0010
 1387   27.720   3834.18    34.1962     0.3102     0.2732     0.2772    34.3060     0.9121   443.5200    33.8625    -0.0005
 1388   27.740   3835.22    34.8626     0.3142     0.2693     0.2774    34.9782     0.9022   443.8400    34.5343    -0.0001
 1389   27.760   3836.21    35.6665     0.3213     0.2622     0.2776    35.7757     0.9096   444.1600    35.3315    -0.0005
 1390   27.780   3837.20    36.5208     0.3242     0.2711     0.2778    36.6329     0.8976   444.4800    36.1885    -0.0003
 1391   27.800   3838.26    37.3396     0.3303     0.2872     0.2780    37.4608     0.8919   444.8000    37.0160     0.0003
 1392   27.820   3839.24    38.0573     0.3433     0.2740     0.2782    38.1754     0.9077   445.1200    37.7303     0.0001
 1393   27.840   3840.29    38.6125     0.3560     0.2740     0.2784    38.7338     0.9247   445.4400    38.2884     0.0003
 1394   27.860   3841.32    39.2911     0.3708     0.2773     0.2786    39.4075     0.9497   445.7600    38.9617     0.0000
 1395   27.880   3842.32    39.8646     0.3834     0.2794     0.2788    39.9833     0.9654   446.0800    39.5372     0.0001
 1396   27.900   3843.41    40.7268     0.3885     0.2714     0.2790    40.8448     0.9554   446.4000    40.3984     0.0000
 1397   27.920   3844.46    41.6965     0.3931     0.2560     0.2792    41.8047     0.9445   446.7200    41.3580    -0.0005
 1398   27.940   3845.47    42.3130     0.3753     0.2709     0.2794    42.4206     0.8910   447.0400    41.9736    -0.0006
 1399   27.960   3846.53    42.6588     0.2856     0.2587     0.2796    42.7701     0.6697   447.3600    42.3227    -0.0003
 1400   27.980   3847.60    42.6717     0.3677     0.2788     0.2798    42.7828     0.8614   447.6800    42.3351    -0.0004
 1401   28.000   3855.41    40.4813                0.2966     0.2800    40.6033              448.0000    40.1553     0.0003
 1402   28.020   3865.20    37.6708                0.3144     0.2802    37.8003              448.3200    37.3520     0.0008
 1403   28.040   3934.28    40.2696                0.2391     0.2804    40.3812              448.6400    39.9326    -0.0002
 1404   28.060   4003.96    35.9024                0.2911     0.2806    36.0084              448.9600    35.5595    -0.0005
 1405   28.080   4005.94    40.1072                0.2226     0.2808    40.2292              449.2800    39.7799     0.0003
 1406   28.096   4006.81    45.3264                           0.2810    45.4227              449.5338    44.9732    -0.0011
 
 
