

 Program UNIPLOT                         version 05.36.02
 _______________
 (c) Fugro Netherlands Marine, Nootdorp, The Netherlands


 ASCII representation of data plotted on a graph.

 This ASCII file presents data interpolated to values per fixed depth interval.
 The data are corrected for the depth-offset differences between the various 
 transducers in the penetrometer.

 The records at the start of penetration may include no values or anomalous
 values where a depth offset implies incomplete penetration of a particular
 sensor into the ground.

 The records at the end of penetration may include no values for data channels
 where the transducer did not reach this depth.

 The reference level for test values is (1) the ground surface for onshore tests and (2) the seafloor for nearshore and offshore tests.

 UNICAS data file          : CPT-2018.000                            
 Output using command file : PlotASCII.cmd

 ASCII file created at : date          :21-Apr-2022
                         time          :15:40:03
 Project number                        :20024805                                                                                            
 Date of testing                       :14-Apr-2022                                                                                         
 Location                              :Hong Kong Offshore Wind Farm Project                                                                
 Test name                             :CPT-2018
 Penetrometer                          :F7.5CKE2HAW2/B/3342
 Serial no                             :1701-3342

 Table description:
 Column ID                             :Parameter name
 ___________________________________________________________________________________
 Rec                                   :Record ID, Record ID [-]
 Depth                                 :Depth, Depth [m]
 Time                                  :Time, Time [s]
 Cone                                  :Cone Resistance, Cone Resistance [MPa]
 Friction                              :Sleeve Friction, Sleeve Friction [MPa]
 Pore 2                                :Porewater Pressure, Porewater Pressure at Shoulder [MPa]
 HydroPress                            :Hydrostatic Pressure, Hydrostatic Pressure [MPa]
 qt                                    :Total Cone Resistance, Total Cone Resistance [MPa]
 Fric_ratio                            :Friction Ratio, Friction Ratio [%]
 SigmaVert                             :Vertical stress, Vertical stress [kPa] as specified in ground model
 Qnet                                  :Net Cone Resistance, Net Cone Resistance [MPa], unit weight as specified in ground model
 Bq                                    :Porewater Pressure Ratio, Porewater Pressure Ratio [-], unit weight as specified in ground model


 Data table:
  Rec    Depth      Time       Cone   Friction     Pore 2 HydroPress         qt Fric_ratio  SigmaVert       Qnet         Bq
   No        m         s        MPa        MPa        MPa        MPa        MPa          %        kPa        MPa          -
    1    0.000   2633.13     0.0000                           0.0000    -0.0009                0.0000    -0.0009     2.3810
    2    0.020   2634.08     0.0029               -0.0023     0.0002     0.0020                0.3200     0.0017    -1.5301
    3    0.040   2635.08     0.0046               -0.0020     0.0004     0.0037                0.6400     0.0030    -0.8648
    4    0.060   2636.04     0.0007     0.0004    -0.0016     0.0006     0.0000    35.3456     0.9600    -0.0009     0.9199
    5    0.080   2636.99     0.0012     0.0004    -0.0013     0.0008     0.0006   206.1401     1.2800    -0.0007     3.4209
    6    0.100   2637.94     0.0052     0.0002    -0.0005     0.0010     0.0049     5.0586     1.6000     0.0033    -0.6776
    7    0.120   2638.90     0.0027     0.0001     0.0001     0.0012     0.0027     3.4285     1.9200     0.0008    -1.9599
    8    0.140   2639.90     0.0043     0.0002     0.0008     0.0014     0.0045     6.3099     2.2400     0.0023    -0.3403
    9    0.160   2640.85     0.0047     0.0000     0.0008     0.0016     0.0050     0.5677     2.5600     0.0024    -0.4292
   10    0.180   2641.78     0.0049     0.0001     0.0008     0.0018     0.0053     2.1418     2.8800     0.0024    -0.5192
   11    0.200   2642.74     0.0034     0.0005     0.0006     0.0020     0.0036    16.3881     3.2000     0.0004     7.2107
   12    0.220   2643.71     0.0064     0.0005     0.0004     0.0022     0.0066     9.2269     3.5200     0.0030    -0.5845
   13    0.240   2644.67     0.0030     0.0003     0.0000     0.0024     0.0029     7.1980     3.8400    -0.0009     2.3031
   14    0.260   2645.67     0.0077     0.0003     0.0002     0.0026     0.0077     4.7055     4.1600     0.0035    -0.7355
   15    0.280   2646.64     0.0070     0.0003     0.0008     0.0028     0.0073     5.4225     4.4800     0.0028    -0.7886
   16    0.300   2647.61     0.0052     0.0002     0.0016     0.0030     0.0058     6.1396     4.8000     0.0010     0.3089
   17    0.320   2648.55     0.0050     0.0002     0.0020     0.0032     0.0058     5.3226     5.1200     0.0007    -0.8523
   18    0.340   2649.50     0.0040     0.0003     0.0025     0.0034     0.0050     8.8946     5.4400    -0.0004           
   19    0.360   2650.44     0.0058     0.0001     0.0024     0.0036     0.0068     1.3838     5.7600     0.0011    -1.5978
   20    0.380   2671.84     0.0052     0.0002     0.0022     0.0038     0.0061     4.1593     6.0800     0.0001    -1.2034
   21    0.400   2699.12     0.0050     0.0005     0.0020     0.0040     0.0059     8.5316     6.4000    -0.0005     0.3409
   22    0.420   2726.40     0.0049     0.0003     0.0018     0.0042     0.0057     4.7798     6.7200    -0.0011     1.8853
   23    0.440   2730.49     0.0062     0.0005     0.0019     0.0044     0.0070     7.8035     7.0400    -0.0001    -1.9259
   24    0.460   2731.44     0.0055     0.0002     0.0024     0.0046     0.0064     4.6943     7.3600    -0.0009     2.9891
   25    0.480   2732.42     0.0060     0.0002     0.0033     0.0048     0.0072     3.9995     7.6800    -0.0004     4.4151
   26    0.500   2733.38     0.0057     0.0003     0.0043     0.0050     0.0074     6.2356     8.0000    -0.0006           
   27    0.520   2734.83     0.0054     0.0007     0.0038     0.0052     0.0071    12.1702     8.3200    -0.0012     0.7955
   28    0.540   2738.40     0.0043     0.0006     0.0024     0.0054     0.0055    10.2404     8.6400    -0.0031     0.8030
   29    0.560   2741.75     0.0036     0.0005     0.0017     0.0056     0.0043    13.3948     8.9600    -0.0046     0.8644
   30    0.580   2742.74     0.0057     0.0007     0.0030     0.0058     0.0068    15.3629     9.2800    -0.0025     1.4233
   31    0.600   2743.67     0.0060     0.0005     0.0045     0.0060     0.0075     7.5463     9.6000    -0.0021     1.1728
   32    0.620   2744.63     0.0045     0.0005     0.0064     0.0062     0.0070     7.5344     9.9200    -0.0029     0.0658
   33    0.640   2745.57     0.0073     0.0003     0.0075     0.0064     0.0102    10.8379    10.2400     0.0000     0.9389
   34    0.660   2746.52     0.0081     0.0002     0.0082     0.0066     0.0115     2.6783    10.5600     0.0009           
   35    0.680   2747.48     0.0051     0.0004     0.0077     0.0068     0.0085     6.1295    10.8800    -0.0024    -0.7463
   36    0.700   2748.46     0.0090     0.0004     0.0066     0.0070     0.0119     5.3502    11.2000     0.0007    -0.1493
   37    0.720   2749.41     0.0045     0.0003     0.0053     0.0072     0.0069     5.7665    11.5200    -0.0046     0.2849
   38    0.740   2750.33     0.0066     0.0004     0.0044     0.0074     0.0085     6.8801    11.8400    -0.0033     0.9895
   39    0.760   2751.32     0.0057     0.0006     0.0037     0.0076     0.0072    10.8171    12.1600    -0.0049     0.7959
   40    0.780   2752.26     0.0071     0.0006     0.0039     0.0078     0.0086     8.5765    12.4800    -0.0038     1.0970
   41    0.800   2753.21     0.0067     0.0007     0.0042     0.0080     0.0083    10.4665    12.8000    -0.0045     0.9123
   42    0.820   2754.18     0.0052     0.0006     0.0054     0.0082     0.0074     9.4947    13.1200    -0.0058    -1.4330
   43    0.840   2755.14     0.0150     0.0006     0.0068     0.0084     0.0177     5.2419    13.4400     0.0043    -0.4818
   44    0.860   2756.09     0.0177     0.0008     0.0076     0.0086     0.0209     4.8034    13.7600     0.0071    -0.1646
   45    0.880   2757.04     0.0182     0.0009     0.0082     0.0088     0.0216     4.7367    14.0800     0.0075    -0.0897
   46    0.900   2758.01     0.0218     0.0012     0.0079     0.0090     0.0251     5.7105    14.4000     0.0107    -0.1097
   47    0.920   2758.92     0.0226     0.0009     0.0076     0.0092     0.0259     4.3661    14.7200     0.0111    -0.1196
   48    0.940   2759.91     0.0218     0.0012     0.0066     0.0094     0.0247     5.3809    15.0400     0.0096    -0.2575
   49    0.960   2760.86     0.0199     0.0011     0.0051     0.0096     0.0224     5.1624    15.3600     0.0071    -0.5264
   50    0.980   2761.82     0.0182     0.0013     0.0039     0.0098     0.0200     6.8151    15.6800     0.0044    -1.4339
   51    1.000   2762.76     0.0170     0.0010     0.0063     0.0100     0.0196     6.0260    16.0000     0.0036    -1.5279
   52    1.020   2763.70     0.0185     0.0014     0.0071     0.0102     0.0210     8.9601    16.3200     0.0047    -0.8812
   53    1.040   2764.65     0.0171     0.0012     0.0089     0.0104     0.0206     6.7250    16.6400     0.0039    -0.5361
   54    1.060   2765.60     0.0215     0.0013     0.0096     0.0106     0.0254     6.0255    16.9600     0.0084    -0.1518
   55    1.080   2766.58     0.0224     0.0012     0.0096     0.0108     0.0265     5.1428    17.2800     0.0092    -0.1057
   56    1.100   2767.51     0.0269     0.0011     0.0104     0.0110     0.0311     4.6980    17.6000     0.0135    -0.0886
   57    1.120   2768.46     0.0305     0.0015     0.0111     0.0112     0.0350     5.3599    17.9200     0.0171    -0.0259
   58    1.140   2769.40     0.0366     0.0020     0.0139     0.0114     0.0421     5.8677    18.2400     0.0239     0.0701
   59    1.160   2770.33     0.0440     0.0020     0.0113     0.0116     0.0489     4.7679    18.5600     0.0304     0.0017
   60    1.180   2771.30     0.0481     0.0025     0.0105     0.0118     0.0523     5.4178    18.8800     0.0335    -0.0481
   61    1.200   2772.26     0.0544     0.0026     0.0036     0.0120     0.0569     5.0764    19.2000     0.0377    -0.1548
   62    1.220   2773.20     0.0550     0.0030     0.0034     0.0122     0.0563     5.2249    19.5200     0.0368    -0.2488
   63    1.240   2774.12     0.0621     0.0029     0.0095     0.0124     0.0650     4.8182    19.8400     0.0452    -0.1222
   64    1.260   2775.10     0.0652     0.0030     0.0055     0.0126     0.0678     4.8443    20.1600     0.0476    -0.1344
   65    1.280   2776.05     0.0678     0.0027     0.0070     0.0128     0.0706     3.8638    20.4800     0.0501    -0.1257
   66    1.300   2777.01     0.0632     0.0026     0.0043     0.0130     0.0655     4.0390    20.8000     0.0447    -0.1671
   67    1.320   2777.96     0.0584     0.0029     0.0041     0.0132     0.0597     4.7717    21.1200     0.0386    -0.2641
   68    1.340   2778.94     0.0565     0.0027     0.0104     0.0134     0.0603     4.9159    21.4400     0.0389    -0.1125
   69    1.360   2779.89     0.0590     0.0026     0.0138     0.0136     0.0640     4.3176    21.7600     0.0423    -0.0370
   70    1.380   2780.84     0.0586     0.0027     0.0191     0.0138     0.0663     4.6348    22.0800     0.0442     0.0982
   71    1.400   2781.79     0.0582     0.0026     0.0141     0.0140     0.0642     4.4940    22.4000     0.0418     0.0081
   72    1.420   2782.77     0.0531     0.0028     0.0197     0.0142     0.0607     5.0027    22.7200     0.0380     0.1017
   73    1.440   2783.72     0.0565     0.0027     0.0218     0.0144     0.0655     5.1897    23.0400     0.0425     0.1661
   74    1.460   2784.66     0.0616     0.0026     0.0248     0.0146     0.0717     4.2698    23.3600     0.0484     0.1963
   75    1.480   2785.62     0.0650     0.0037     0.0242     0.0148     0.0760     5.6151    23.6800     0.0523     0.2140
   76    1.500   2786.54     0.0743     0.0042     0.0201     0.0150     0.0835     6.0043    24.0000     0.0595     0.1165
   77    1.520   2787.54     0.0912     0.0045     0.0164     0.0152     0.0975     5.5123    24.3200     0.0732    -0.0020
   78    1.540   2788.45     0.0961     0.0049     0.0104     0.0154     0.1024     5.2833    24.6400     0.0778    -0.0021
   79    1.560   2789.40     0.0989     0.0052     0.0045     0.0156     0.1010     5.1734    24.9600     0.0760    -0.1417
   80    1.580   2790.39     0.0967     0.0054     0.0085     0.0158     0.0991     5.4982    25.2800     0.0738    -0.1352
   81    1.600   2791.33     0.0926     0.0057     0.0187     0.0160     0.0994     6.1347    25.6000     0.0738     0.0001
   82    1.620   2793.02     0.0900     0.0057     0.0200     0.0162     0.0984     6.2468    25.9200     0.0725     0.0520
   83    1.640   2798.32     0.0827     0.0057     0.0202     0.0164     0.0912     6.2547    26.2400     0.0649     0.0583
   84    1.660   2803.62     0.0754     0.0051     0.0204     0.0166     0.0839     5.5500    26.5600     0.0574     0.0646
   85    1.680   2805.81     0.0739     0.0052     0.0197     0.0168     0.0825     6.8944    26.8800     0.0556     0.0635
   86    1.700   2806.79     0.0723     0.0053     0.0208     0.0170     0.0809     7.3881    27.2000     0.0537     0.0645
   87    1.720   2807.75     0.0647     0.0055     0.0218     0.0172     0.0737     8.2089    27.5200     0.0461     0.0909
   88    1.740   2808.70     0.0623     0.0048     0.0247     0.0174     0.0724     7.4455    27.8400     0.0445     0.1474
   89    1.760   2809.65     0.0618     0.0049     0.0254     0.0176     0.0730     7.6834    28.1600     0.0448     0.2007
   90    1.780   2810.61     0.0621     0.0045     0.0310     0.0178     0.0743     7.0004    28.4800     0.0459     0.2457
   91    1.800   2811.53     0.0645     0.0044     0.0356     0.0180     0.0789     7.0718    28.8000     0.0501     0.3260
   92    1.820   2812.54     0.0587     0.0038     0.0381     0.0182     0.0746     6.5136    29.1200     0.0455     0.4331
   93    1.840   2813.50     0.0613     0.0043     0.0378     0.0184     0.0772     7.4014    29.4400     0.0477     0.4076
   94    1.860   2814.45     0.0605     0.0042     0.0361     0.0186     0.0764     6.5447    29.7600     0.0466     0.4125
   95    1.880   2815.38     0.0627     0.0041     0.0280     0.0188     0.0752     6.4651    30.0800     0.0451     0.2388
   96    1.900   2816.27     0.0587     0.0042     0.0308     0.0190     0.0712     7.1316    30.4000     0.0408     0.2640
   97    1.920   2817.11     0.0643     0.0043     0.0356     0.0192     0.0785     6.7382    30.7200     0.0478     0.3066
   98    1.940   2817.86     0.0646     0.0045     0.0403     0.0194     0.0809     6.9333    31.0400     0.0498     0.3881
   99    1.960   2818.67     0.0688     0.0045     0.0419     0.0196     0.0865     6.7604    31.3600     0.0551     0.4091
  100    1.980   2819.67     0.0765     0.0046     0.0372     0.0198     0.0927     6.1215    31.6800     0.0611     0.3094
  101    2.000   2820.60     0.0769     0.0045     0.0293     0.0200     0.0903     5.9209    32.0000     0.0583     0.2050
  102    2.020   2821.56     0.0754     0.0053     0.0327     0.0202     0.0882     6.9543    32.3200     0.0558     0.1816
  103    2.040   2822.51     0.0760     0.0048     0.0391     0.0204     0.0918     6.4198    32.6400     0.0591     0.2886
  104    2.060   2823.45     0.0790     0.0049     0.0405     0.0206     0.0960     6.3202    32.9600     0.0630     0.3143
  105    2.080   2824.44     0.0817     0.0053     0.0381     0.0208     0.0982     6.7977    33.2800     0.0649     0.2848
  106    2.100   2825.39     0.0891     0.0059     0.0390     0.0210     0.1050     6.7905    33.6000     0.0714     0.2374
  107    2.120   2826.32     0.0913     0.0051     0.0434     0.0212     0.1090     5.5612    33.9200     0.0750     0.2784
  108    2.140   2827.28     0.0990     0.0052     0.0254     0.0214     0.1122     5.4586    34.2400     0.0779     0.1270
  109    2.160   2828.23     0.1023     0.0050     0.0210     0.0216     0.1117     4.9427    34.5600     0.0771     0.0078
  110    2.180   2829.18     0.1072     0.0052     0.0290     0.0218     0.1182     4.9315    34.8800     0.0833     0.0522
  111    2.200   2830.14     0.1037     0.0052     0.0376     0.0220     0.1187     5.1537    35.2000     0.0835     0.1643
  112    2.220   2831.07     0.0878     0.0051     0.0187     0.0222     0.0980     5.5851    35.5200     0.0625     0.0268
  113    2.240   2832.02     0.0787     0.0051     0.0182     0.0224     0.0859     6.1971    35.8400     0.0501    -0.1011
  114    2.260   2832.98     0.0799     0.0056     0.0192     0.0226     0.0879     7.2735    36.1600     0.0517    -0.0707
  115    2.280   2833.94     0.0879     0.0055     0.0252     0.0228     0.0971     6.4289    36.4800     0.0606    -0.0152
  116    2.300   2837.47     0.0938     0.0053     0.0335     0.0230     0.1069     5.8257    36.8000     0.0701     0.1168
  117    2.320   2848.10     0.0921     0.0049     0.0399     0.0232     0.1080     5.2366    37.1200     0.0709     0.2032
  118    2.340   2858.72     0.0905     0.0046     0.0459     0.0234     0.1090     4.9551    37.4400     0.0716     0.2895
  119    2.360   2862.43     0.0907     0.0045     0.0523     0.0236     0.1120     5.5362    37.7600     0.0742     0.3637
  120    2.380   2878.44     0.0958     0.0045     0.0548     0.0238     0.1184     7.0817    38.0800     0.0804     0.3750
  121    2.400   2889.53     0.0973     0.0044     0.0563     0.0240     0.1211     4.4217    38.4000     0.0827     0.3947
  122    2.420   2890.47     0.1054     0.0041     0.0531     0.0242     0.1280     4.0628    38.7200     0.0892     0.3320
  123    2.440   2891.45     0.1133     0.0041     0.0515     0.0244     0.1353     3.6785    39.0400     0.0962     0.2888
  124    2.460   2892.40     0.1069     0.0040     0.0553     0.0246     0.1293     3.6435    39.3600     0.0899     0.3180
  125    2.480   2893.33     0.0999     0.0039     0.0605     0.0248     0.1245     3.8054    39.6800     0.0848     0.3981
  126    2.500   2894.30     0.0947     0.0032     0.0669     0.0250     0.1219     3.2941    40.0000     0.0819     0.4852
  127    2.520   2895.24     0.0951     0.0033     0.0676     0.0252     0.1241     3.5418    40.3200     0.0838     0.5242
  128    2.540   2896.16     0.1034     0.0031     0.0685     0.0254     0.1324     3.0568    40.6400     0.0918     0.4764
  129    2.560   2897.14     0.1140     0.0031     0.0691     0.0256     0.1430     2.8563    40.9600     0.1021     0.4261
  130    2.580   2898.10     0.1173     0.0032     0.0696     0.0258     0.1465     2.8568    41.2800     0.1052     0.4163
  131    2.600   2899.05     0.1175     0.0035     0.0661     0.0260     0.1460     2.9755    41.6000     0.1044     0.4016
  132    2.620   2899.97     0.1208     0.0041     0.0590     0.0262     0.1465     3.3512    41.9200     0.1046     0.3344
  133    2.640   2900.91     0.1197     0.0044     0.0595     0.0264     0.1443     3.6387    42.2400     0.1021     0.3169
  134    2.660   2901.85     0.1200     0.0045     0.0534     0.0266     0.1436     3.7812    42.5600     0.1011     0.2943
  135    2.680   2902.78     0.1169     0.0044     0.0465     0.0268     0.1370     3.7076    42.8800     0.0942     0.2236
  136    2.700   2903.72     0.1063     0.0049     0.0481     0.0270     0.1260     4.3276    43.2000     0.0828     0.2414
  137    2.720   2904.67     0.0968     0.0050     0.0556     0.0272     0.1186     4.5204    43.5200     0.0751     0.3284
  138    2.740   2905.62     0.1081     0.0051     0.0641     0.0274     0.1339     4.7132    43.8400     0.0900     0.3777
  139    2.760   2906.57     0.1124     0.0066     0.0704     0.0276     0.1412     6.0136    44.1600     0.0970     0.4221
  140    2.780   2907.50     0.1244     0.0056     0.0706     0.0278     0.1547     4.5874    44.4800     0.1102     0.4030
  141    2.800   2908.47     0.1257     0.0035     0.0706     0.0280     0.1549     2.7791    44.8000     0.1101     0.3786
  142    2.820   2923.67     0.1495     0.0022     0.0715     0.0282     0.1794     1.7346    45.1200     0.1343     0.3382
  143    2.840   2941.30     0.1789     0.0037     0.0724     0.0284     0.2092     2.9041    45.4400     0.1638     0.2794
  144    2.860   2952.88     0.2378     0.0053     0.0823     0.0286     0.2704     2.4449    45.7600     0.2246     0.2225
  145    2.880   2953.48     0.4019     0.0062     0.0664     0.0288     0.4332     1.6967    46.0800     0.3871     0.1273
  146    2.900   2954.13     0.6426     0.0083     0.0235     0.0290     0.6586     1.3623    46.4000     0.6122     0.0153
  147    2.920   2954.79     1.0364     0.0124     0.0092     0.0292     1.0397     1.2358    46.7200     0.9930    -0.0219
  148    2.940   2955.41     1.1391     0.0166     0.0132     0.0294     1.1442     1.4515    47.0400     1.0972    -0.0157
  149    2.960   2956.04     0.9686     0.0194    -0.0738     0.0296     0.9514     1.9861    47.3600     0.9040    -0.0815
  150    2.980   2956.67     0.8033     0.0231    -0.1488     0.0298     0.7445     2.8337    47.6800     0.6968    -0.2453
  151    3.000   2957.30     0.6653     0.0221    -0.1650     0.0300     0.5973     2.7497    48.0000     0.5493    -0.3496
  152    3.020   2957.97     0.6490     0.0199    -0.1719     0.0302     0.5776     2.6373    48.3200     0.5293    -0.3779
  153    3.040   2958.61     0.6553     0.0176    -0.1712     0.0304     0.5830     2.5250    48.6400     0.5344    -0.3791
  154    3.060   2959.24     0.6232     0.0154    -0.1650     0.0306     0.5525     2.4127    48.9600     0.5036    -0.3950
  155    3.080   2959.89     0.5505     0.0144    -0.1684     0.0308     0.4811     2.3846    49.2800     0.4318    -0.4626
  156    3.100   2960.54     0.4474     0.0132    -0.1735     0.0310     0.3730     2.8164    49.6000     0.3234    -0.6488
  157    3.120   2970.70     0.3859     0.0115    -0.1381     0.0312     0.3228     2.6581    49.9200     0.2728    -0.6530
  158    3.140   2982.91     0.3285     0.0090    -0.1027     0.0314     0.2803     2.0828    50.2400     0.2300    -0.6164
  159    3.160   2995.12     0.2711     0.0074    -0.0672     0.0316     0.2378     1.7143    50.5600     0.1872    -0.5797
  160    3.180   3002.54     0.2290     0.0044    -0.0563     0.0318     0.2048     1.8118    50.8800     0.1540    -0.5805
  161    3.200   3003.49     0.2160     0.0035    -0.0523     0.0320     0.1934     1.5521    51.2000     0.1422    -0.6038
  162    3.220   3004.45     0.2211     0.0039    -0.0460     0.0322     0.2008     1.8027    51.5200     0.1492    -0.5420
  163    3.240   3005.40     0.2363     0.0041    -0.0422     0.0324     0.2182     1.7601    51.8400     0.1664    -0.4534
  164    3.260   3006.37     0.2290     0.0032    -0.0388     0.0326     0.2122     1.3677    52.1600     0.1601    -0.4536
  165    3.280   3007.29     0.2285     0.0029    -0.0340     0.0328     0.2134     1.3114    52.4800     0.1609    -0.4272
  166    3.300   3008.22     0.2763     0.0029    -0.0273     0.0330     0.2640     1.1427    52.8000     0.2112    -0.2963
  167    3.320   3009.24     0.3248     0.0030    -0.0206     0.0332     0.3152     0.9789    53.1200     0.2620    -0.2147
  168    3.340   3010.19     0.3777     0.0032    -0.0161     0.0334     0.3703     0.8848    53.4400     0.3169    -0.1615
  169    3.360   3011.16     0.3570     0.0036    -0.0122     0.0336     0.3516     0.9515    53.7600     0.2979    -0.1559
  170    3.380   3012.10     0.3638     0.0035    -0.0069     0.0338     0.3598     1.0038    54.0800     0.3057    -0.1419
  171    3.400   3013.04     0.3887     0.0034    -0.0036     0.0340     0.3869     0.9140    54.4000     0.3325    -0.1150
  172    3.420   3014.01     0.3674     0.0032     0.0023     0.0342     0.3672     0.8466    54.7200     0.3125    -0.1109
  173    3.440   3014.97     0.3446     0.0023     0.0103     0.0344     0.3479     0.6569    55.0400     0.2928    -0.0910
  174    3.460   3015.92     0.3086     0.0032     0.0159     0.0346     0.3147     0.9833    55.3600     0.2594    -0.0768
  175    3.480   3016.85     0.2758     0.0032     0.0197     0.0348     0.2831     1.1723    55.6800     0.2274    -0.0760
  176    3.500   3017.83     0.2979     0.0038     0.0269     0.0350     0.3085     1.3025    56.0000     0.2525    -0.0393
  177    3.520   3018.76     0.3324     0.0042     0.0348     0.0352     0.3458     1.2919    56.3200     0.2895    -0.0112
  178    3.540   3019.75     0.3360     0.0045     0.0401     0.0354     0.3519     1.3269    56.6400     0.2952     0.0085
  179    3.560   3020.70     0.3245     0.0037     0.0393     0.0356     0.3416     1.1066    56.9600     0.2846     0.0175
  180    3.580   3021.70     0.3183     0.0034     0.0397     0.0358     0.3345     1.0865    57.2800     0.2772     0.0101
  181    3.600   3022.61     0.3249     0.0033     0.0445     0.0360     0.3426     1.0262    57.6000     0.2850     0.0211
  182    3.620   3023.54     0.3278     0.0041     0.0512     0.0362     0.3485     1.2706    57.9200     0.2905     0.0449
  183    3.640   3024.53     0.3276     0.0043     0.0572     0.0364     0.3510     1.2974    58.2400     0.2927     0.0656
  184    3.660   3025.45     0.3276     0.0048     0.0628     0.0366     0.3530     1.4939    58.5600     0.2945     0.0811
  185    3.680   3026.40     0.3537     0.0051     0.0714     0.0368     0.3823     1.4979    58.8800     0.3234     0.0970
  186    3.700   3027.37     0.3691     0.0059     0.0765     0.0370     0.4008     1.6151    59.2000     0.3416     0.1129
  187    3.720   3028.28     0.3483     0.0068     0.0794     0.0372     0.3810     1.9006    59.5200     0.3215     0.1267
  188    3.740   3029.27     0.3448     0.0066     0.0842     0.0374     0.3796     1.8955    59.8400     0.3198     0.1423
  189    3.760   3030.27     0.3327     0.0065     0.0877     0.0376     0.3693     1.9493    60.1600     0.3091     0.1605
  190    3.780   3031.19     0.3066     0.0060     0.0806     0.0378     0.3426     1.8550    60.4800     0.2821     0.1696
  191    3.800   3032.17     0.2707     0.0062     0.0764     0.0380     0.3034     2.2885    60.8000     0.2426     0.1641
  192    3.820   3033.15     0.2649     0.0063     0.0819     0.0382     0.2982     2.5013    61.1200     0.2371     0.1738
  193    3.840   3034.09     0.3424     0.0037     0.0924     0.0384     0.3793     1.2055    61.4400     0.3179     0.1554
  194    3.860   3035.04     0.4515     0.0031     0.1028     0.0386     0.4944     0.7358    61.7600     0.4327     0.1471
  195    3.880   3036.00     0.4959     0.0035     0.0855     0.0388     0.5353     0.7023    62.0800     0.4732     0.1161
  196    3.900   3036.95     0.4488     0.0048     0.0769     0.0390     0.4815     1.0206    62.4000     0.4191     0.0926
  197    3.920   3037.89     0.3927     0.0051     0.0758     0.0392     0.4242     1.2328    62.7200     0.3614     0.0989
  198    3.940   3038.87     0.3452     0.0055     0.0678     0.0394     0.3763     1.5541    63.0400     0.3132     0.1099
  199    3.960   3039.84     0.3431     0.0051     0.0487     0.0396     0.3661     1.5011    63.3600     0.3028     0.0501
  200    3.980   3040.78     0.3206     0.0048     0.0423     0.0398     0.3393     1.4294    63.6800     0.2756     0.0168
  201    4.000   3041.73     0.2815     0.0044     0.0395     0.0400     0.2973     1.4867    64.0000     0.2333    -0.0103
  202    4.020   3042.74     0.2692     0.0037     0.0495     0.0402     0.2886     1.3969    64.3200     0.2243     0.0270
  203    4.040   3043.64     0.2784     0.0024     0.0529     0.0404     0.3005     0.8626    64.6400     0.2359     0.0522
  204    4.060   3044.61     0.2643     0.0025     0.0466     0.0406     0.2854     0.9316    64.9600     0.2204     0.0439
  205    4.080   3045.59     0.2369     0.0020     0.0430     0.0408     0.2542     0.8357    65.2800     0.1890     0.0022
  206    4.100   3046.49     0.2845     0.0025     0.0627     0.0410     0.3070     0.9984    65.6000     0.2414     0.0501
  207    4.120   3047.48     0.3869     0.0033     0.0825     0.0412     0.4199     0.9365    65.9200     0.3540     0.1052
  208    4.140   3048.44     0.4034     0.0047     0.0771     0.0414     0.4373     1.1495    66.2400     0.3711     0.1057
  209    4.160   3049.38     0.3841     0.0061     0.0745     0.0416     0.4151     1.5616    66.5600     0.3486     0.0925
  210    4.180   3050.33     0.4326     0.0054     0.0687     0.0418     0.4628     1.3565    66.8800     0.3959     0.0769
  211    4.200   3051.26     0.5310     0.0042     0.0655     0.0420     0.5583     0.8398    67.2000     0.4911     0.0469
  212    4.220   3052.24     0.5320     0.0031     0.0526     0.0422     0.5563     0.5808    67.5200     0.4888     0.0320
  213    4.240   3053.21     0.4487     0.0025     0.0293     0.0424     0.4643     0.5247    67.8400     0.3965    -0.0141
  214    4.260   3054.16     0.3476     0.0035    -0.0025     0.0426     0.3509     1.2251    68.1600     0.2827    -0.1239
  215    4.280   3055.12     0.2617     0.0048    -0.0203     0.0428     0.2545     2.1164    68.4800     0.1860    -0.3228
  216    4.300   3056.06     0.1994     0.0060    -0.0273     0.0430     0.1885     3.0076    68.8000     0.1197    -0.5794
  217    4.320   3057.01     0.2139     0.0076    -0.0060     0.0432     0.2065     3.9111    69.1200     0.1374    -0.4708
  218    4.340   3057.98     0.3963     0.0094     0.0207     0.0434     0.4021     2.6499    69.4400     0.3326    -0.0931
  219    4.360   3063.01     0.4995     0.0123     0.0294     0.0436     0.5112     2.5319    69.7600     0.4414    -0.0362
  220    4.380   3075.69     0.5366     0.0147     0.0334     0.0438     0.5501     3.0185    70.0800     0.4800    -0.0263
  221    4.400   3088.37     0.5738     0.0162     0.0375     0.0440     0.5889     3.3310    70.4000     0.5185    -0.0164
  222    4.420   3096.96     0.6184     0.0154     0.0278     0.0442     0.6319     2.6369    70.7200     0.5612    -0.0214
  223    4.440   3097.88     0.6955     0.0138     0.0271     0.0444     0.7068     2.0916    71.0400     0.6357    -0.0277
  224    4.460   3098.87     0.7743     0.0113     0.0270     0.0446     0.7857     1.5012    71.3600     0.7143    -0.0245
  225    4.480   3099.82     0.7501     0.0098     0.0383     0.0448     0.7640     1.2713    71.6800     0.6924    -0.0166
  226    4.500   3100.75     0.6496     0.0097     0.0465     0.0450     0.6671     1.4055    72.0000     0.5951    -0.0055
  227    4.520   3101.71     0.5691     0.0104     0.0644     0.0452     0.5937     1.7656    72.3200     0.5214     0.0260
  228    4.540   3102.63     0.5469     0.0092     0.0844     0.0454     0.5789     1.6761    72.6400     0.5063     0.0609
  229    4.560   3103.63     0.5683     0.0079     0.1031     0.0456     0.6089     1.4249    72.9600     0.5359     0.0950
  230    4.580   3104.57     0.5483     0.0072     0.1135     0.0458     0.5946     1.2630    73.2800     0.5214     0.1240
  231    4.600   3105.53     0.4695     0.0071     0.1125     0.0460     0.5178     1.4188    73.6000     0.4442     0.1557
  232    4.620   3106.47     0.5020     0.0080     0.1092     0.0462     0.5474     1.6739    73.9200     0.4735     0.1309
  233    4.640   3107.43     0.6839     0.0111     0.1127     0.0464     0.7317     1.8547    74.2400     0.6575     0.1036
  234    4.660   3108.36     0.9191     0.0131     0.0950     0.0466     0.9617     1.5546    74.5600     0.8872     0.0623
  235    4.680   3109.32     0.9749     0.0150     0.0770     0.0468     1.0098     1.5237    74.8800     0.9350     0.0388
  236    4.700   3110.30     0.8614     0.0159     0.0641     0.0470     0.8898     1.7468    75.2000     0.8146     0.0250
  237    4.720   3111.25     0.7036     0.0162     0.0593     0.0472     0.7275     2.1790    75.5200     0.6520     0.0150
  238    4.740   3112.20     0.6546     0.0157     0.0731     0.0474     0.6834     2.3292    75.8400     0.6076     0.0350
  239    4.760   3113.19     0.6177     0.0123     0.0778     0.0476     0.6510     1.9814    76.1600     0.5749     0.0555
  240    4.780   3114.13     0.6038     0.0117     0.0433     0.0478     0.6276     1.9040    76.4800     0.5511     0.0159
  241    4.800   3115.09     0.6095     0.0132     0.0289     0.0480     0.6222     2.2013    76.8000     0.5454    -0.0327
  242    4.820   3116.03     0.7735     0.0130     0.0368     0.0482     0.7872     1.8450    77.1200     0.7101    -0.0224
  243    4.840   3116.99     0.9362     0.0111     0.0462     0.0484     0.9545     1.2416    77.4400     0.8770    -0.0058
  244    4.860   3117.96     0.9634     0.0110     0.0563     0.0486     0.9856     1.1188    77.7600     0.9078     0.0047
  245    4.880   3118.93     0.8338     0.0130     0.0662     0.0488     0.8602     1.4905    78.0800     0.7821     0.0180
  246    4.900   3119.90     0.7198     0.0151     0.0795     0.0490     0.7507     2.0135    78.4000     0.6723     0.0366
  247    4.920   3120.85     0.7653     0.0138     0.0992     0.0492     0.8047     1.9216    78.7200     0.7260     0.0614
  248    4.940   3121.81     0.9359     0.0122     0.0975     0.0494     0.9790     1.3985    79.0400     0.9000     0.0593
  249    4.960   3122.75     1.0295     0.0116     0.0942     0.0496     1.0695     1.1432    79.3600     0.9902     0.0461
  250    4.980   3123.74     0.9731     0.0118     0.1044     0.0498     1.0152     1.1753    79.6800     0.9355     0.0542
  251    5.000   3124.68     0.8791     0.0143     0.1107     0.0500     0.9241     1.5640    80.0000     0.8441     0.0676
  252    5.020   3125.63     0.9415     0.0162     0.1250     0.0502     0.9935     1.8160    80.3200     0.9132     0.0807
  253    5.040   3126.59     1.2859     0.0174     0.1075     0.0504     1.3343     1.5462    80.6400     1.2536     0.0521
  254    5.060   3127.59     1.7471     0.0150     0.0702     0.0506     1.7836     0.9253    80.9600     1.7026     0.0214
  255    5.080   3128.51     1.8849     0.0174     0.0295     0.0508     1.9018     0.9285    81.2800     1.8205    -0.0058
  256    5.100   3129.44     1.7044     0.0184     0.0187     0.0510     1.7126     1.0287    81.6000     1.6310    -0.0194
  257    5.120   3130.41     1.4522     0.0196     0.0226     0.0512     1.4610     1.2835    81.9200     1.3790    -0.0219
  258    5.140   3131.38     1.2575     0.0203     0.0309     0.0514     1.2689     1.5603    82.2400     1.1866    -0.0205
  259    5.160   3132.33     1.2790     0.0207     0.0420     0.0516     1.2947     1.6625    82.5600     1.2122    -0.0118
  260    5.180   3133.31     1.4980     0.0192     0.0420     0.0518     1.5168     1.3838    82.8800     1.4339    -0.0049
  261    5.200   3134.27     1.7202     0.0180     0.0348     0.0520     1.7362     1.0883    83.2000     1.6530    -0.0084
  262    5.220   3135.24     1.7293     0.0176     0.0212     0.0522     1.7388     1.0106    83.5200     1.6553    -0.0179
  263    5.240   3136.21     1.5382     0.0152     0.0138     0.0524     1.5440     0.9235    83.8400     1.4602    -0.0265
  264    5.260   3137.15     1.2107     0.0141     0.0149     0.0526     1.2167     1.0734    84.1600     1.1325    -0.0339
  265    5.280   3138.07     0.9638     0.0155     0.0230     0.0528     0.9717     1.5154    84.4800     0.8872    -0.0385
  266    5.300   3139.03     0.8334     0.0166     0.0456     0.0530     0.8494     1.9783    84.8000     0.7646    -0.0196
  267    5.320   3140.00     1.0301     0.0173     0.0631     0.0532     1.0541     1.8110    85.1200     0.9690     0.0038
  268    5.340   3140.97     1.2297     0.0168     0.0701     0.0534     1.2588     1.4338    85.4400     1.1734     0.0136
  269    5.360   3141.96     1.3196     0.0208     0.0629     0.0536     1.3476     1.5664    85.7600     1.2618     0.0102
  270    5.380   3142.93     1.4095     0.0218     0.0686     0.0538     1.4370     1.6404    86.0800     1.3509     0.0085
  271    5.400   3143.88     1.9668     0.0198     0.0660     0.0540     1.9956     1.2096    86.4000     1.9092     0.0079
  272    5.420   3144.85     2.8896     0.0213     0.0383     0.0542     2.9124     0.8319    86.7200     2.8257     0.0003
  273    5.440   3145.81     3.4303     0.0319    -0.0040     0.0544     3.4341     0.9612    87.0400     3.3471    -0.0135
  274    5.460   3146.78     3.3888     0.0351    -0.0332     0.0546     3.3779     1.0174    87.3600     3.2906    -0.0245
  275    5.480   3147.72     2.8285     0.0329    -0.0413     0.0548     2.8109     1.0681    87.6800     2.7232    -0.0357
  276    5.500   3148.63     2.0945     0.0337    -0.0339     0.0550     2.0785     1.4631    88.0000     1.9905    -0.0468
  277    5.520   3149.63     1.6198     0.0346    -0.0118     0.0552     1.6114     1.9711    88.3200     1.5231    -0.0493
  278    5.540   3150.59     1.5468     0.0338     0.0103     0.0554     1.5490     2.1907    88.6400     1.4604    -0.0343
  279    5.560   3151.58     1.7928     0.0262     0.0354     0.0556     1.8040     1.5824    88.9600     1.7151    -0.0169
  280    5.580   3152.54     2.0548     0.0221     0.0430     0.0558     2.0732     1.0980    89.2800     1.9839    -0.0061
  281    5.600   3153.45     1.9616     0.0253     0.0419     0.0560     1.9789     1.2509    89.6000     1.8893    -0.0079
  282    5.620   3154.43     1.7098     0.0249     0.0425     0.0562     1.7277     1.3657    89.9200     1.6378    -0.0083
  283    5.640   3155.37     1.4246     0.0212     0.0492     0.0564     1.4442     1.4834    90.2400     1.3539    -0.0072
  284    5.660   3156.36     1.9145     0.0232     0.0692     0.0566     1.9413     1.4190    90.5600     1.8507     0.0036
  285    5.680   3157.34     3.1592     0.0346     0.0620     0.0568     3.1888     1.2398    90.8800     3.0979     0.0045
  286    5.700   3158.29     3.7096     0.0517    -0.0029     0.0570     3.7189     1.4202    91.2000     3.6277    -0.0096
  287    5.720   3159.24     3.3752     0.0516    -0.0402     0.0572     3.3605     1.4494    91.5200     3.2689    -0.0284
  288    5.740   3160.22     2.7290     0.0485    -0.0433     0.0574     2.7099     1.6780    91.8400     2.6180    -0.0393
  289    5.760   3161.15     2.2653     0.0441    -0.0259     0.0576     2.2510     1.8293    92.1600     2.1588    -0.0425
  290    5.780   3162.13     1.8944     0.0428    -0.0087     0.0578     1.8863     2.1495    92.4800     1.7938    -0.0430
  291    5.800   3163.08     1.7638     0.0397     0.0088     0.0580     1.7665     2.2410    92.8000     1.6737    -0.0309
  292    5.820   3164.05     2.3438     0.0360     0.0318     0.0582     2.3528     1.7320    93.1200     2.2597    -0.0165
  293    5.840   3165.05     3.2634     0.0321     0.0406     0.0584     3.2831     1.0739    93.4400     3.1897    -0.0037
  294    5.860   3166.02     3.7130     0.0312    -0.0212     0.0586     3.7145     0.8545    93.7600     3.6208    -0.0151
  295    5.880   3166.96     3.6940     0.0356    -0.0616     0.0588     3.6713     0.9487    94.0800     3.5772    -0.0316
  296    5.900   3167.92     3.5327     0.0351    -0.0625     0.0590     3.5053     0.9842    94.4000     3.4109    -0.0365
  297    5.920   3168.91     3.5831     0.0375    -0.0499     0.0592     3.5613     1.0618    94.7200     3.4666    -0.0321
  298    5.940   3169.86     3.8026     0.0419    -0.0498     0.0594     3.7820     1.1201    95.0400     3.6869    -0.0294
  299    5.960   3170.85     4.0084     0.0373    -0.0595     0.0596     3.9851     0.9373    95.3600     3.8897    -0.0296
  300    5.980   3171.80     3.9085     0.0322    -0.0679     0.0598     3.8815     0.8131    95.6800     3.7858    -0.0328
  301    6.000   3172.76     3.9011     0.0316    -0.0480     0.0600     3.8779     0.8232    96.0000     3.7819    -0.0305
  302    6.020   3173.74     4.5238     0.0321    -0.0589     0.0602     4.5039     0.7409    96.3200     4.4075    -0.0244
  303    6.040   3174.70     5.4092     0.0369    -0.0729     0.0604     5.3810     0.7183    96.6400     5.2844    -0.0241
  304    6.060   3175.72     5.6733     0.0438    -0.1225     0.0606     5.6276     0.7682    96.9600     5.5306    -0.0307
  305    6.080   3176.69     5.0075     0.0521    -0.1382     0.0608     4.9514     0.9793    97.2800     4.8541    -0.0401
  306    6.100   3177.65     4.1023     0.0610    -0.1386     0.0610     4.0433     1.3924    97.6000     3.9457    -0.0511
  307    6.120   3178.60     3.3388     0.0609    -0.1328     0.0612     3.2817     1.7044    97.9200     3.1838    -0.0620
  308    6.140   3179.55     2.7081     0.0553    -0.1174     0.0614     2.6560     1.9009    98.2400     2.5578    -0.0726
  309    6.160   3180.48     2.2515     0.0489    -0.0872     0.0616     2.2100     2.0656    98.5600     2.1115    -0.0759
  310    6.180   3181.45     1.8842     0.0455    -0.0684     0.0618     1.8544     2.2617    98.8800     1.7555    -0.0758
  311    6.200   3182.44     1.5860     0.0368    -0.0606     0.0620     1.5583     2.2249    99.2000     1.4591    -0.0877
  312    6.220   3183.42     1.5017     0.0277    -0.0458     0.0622     1.4804     1.8248    99.5200     1.3809    -0.0818
  313    6.240   3184.37     1.4600     0.0216    -0.0397     0.0624     1.4432     1.4687    99.8400     1.3433    -0.0763
  314    6.260   3185.27     1.4081     0.0198    -0.0251     0.0626     1.3942     1.3881   100.1600     1.2941    -0.0739
  315    6.280   3186.26     1.3198     0.0165    -0.0217     0.0628     1.3108     1.2252   100.4800     1.2103    -0.0697
  316    6.300   3187.25     1.2108     0.0159    -0.0152     0.0630     1.2029     1.2838   100.8000     1.1021    -0.0743
  317    6.320   3188.21     1.0845     0.0137    -0.0168     0.0632     1.0789     1.2385   101.1200     0.9778    -0.0784
  318    6.340   3189.16     0.9866     0.0140    -0.0099     0.0634     0.9801     1.4348   101.4400     0.8787    -0.0896
  319    6.360   3190.11     0.8578     0.0143     0.0023     0.0636     0.8566     1.6311   101.7600     0.7548    -0.0882
  320    6.380   3191.11     0.7684     0.0146     0.0172     0.0638     0.7735     1.8275   102.0800     0.6714    -0.0770
  321    6.400   3192.07     0.8016     0.0157     0.0299     0.0640     0.8123     2.0248   102.4000     0.7099    -0.0542
  322    6.420   3193.09     0.8101     0.0159     0.0587     0.0642     0.8264     1.9701   102.7200     0.7236    -0.0352
  323    6.440   3202.13     0.7902     0.0160     0.1322     0.0644     0.8351     1.9819   103.0400     0.7320     0.0550
  324    6.460   3211.97     0.7697     0.0155     0.2058     0.0646     0.8455     1.9189   103.3600     0.7421     0.1525
  325    6.480   3221.82     0.7491     0.0153     0.2794     0.0648     0.8558     1.8905   103.6800     0.7522     0.2499
  326    6.500   3226.67     0.7257     0.0154     0.3066     0.0650     0.8511     2.0917   104.0000     0.7471     0.3127
  327    6.520   3227.64     0.7129     0.0158     0.3304     0.0652     0.8478     2.2176   104.3200     0.7435     0.3443
  328    6.540   3228.59     0.7186     0.0158     0.3513     0.0654     0.8635     2.2117   104.6400     0.7589     0.3684
  329    6.560   3229.55     0.7385     0.0162     0.3646     0.0656     0.8902     2.2182   104.9600     0.7853     0.3764
  330    6.580   3230.53     0.7398     0.0159     0.3747     0.0658     0.8956     2.1317   105.2800     0.7904     0.3861
  331    6.600   3231.50     0.7440     0.0153     0.3866     0.0660     0.9046     2.0490   105.6000     0.7990     0.3961
  332    6.620   3232.40     0.7429     0.0154     0.3960     0.0662     0.9079     2.0762   105.9200     0.8020     0.4074
  333    6.640   3233.35     0.7611     0.0164     0.4118     0.0664     0.9314     2.1709   106.2400     0.8252     0.4109
  334    6.660   3234.33     0.8100     0.0168     0.4171     0.0666     0.9846     2.1349   106.5600     0.8781     0.3978
  335    6.680   3235.26     0.8596     0.0176     0.4152     0.0668     1.0349     2.0744   106.8800     0.9281     0.3778
  336    6.700   3236.27     0.9138     0.0176     0.4016     0.0670     1.0848     1.9701   107.2000     0.9776     0.3481
  337    6.720   3237.22     0.9478     0.0195     0.3866     0.0672     1.1134     2.0393   107.5200     1.0059     0.3253
  338    6.740   3238.18     1.0388     0.0225     0.3809     0.0674     1.2000     2.2020   107.8400     1.0921     0.2896
  339    6.760   3239.14     1.0968     0.0220     0.3578     0.0676     1.2490     2.0355   108.1600     1.1408     0.2583
  340    6.780   3240.12     1.0490     0.0245     0.3424     0.0678     1.1942     2.2588   108.4800     1.0857     0.2559
  341    6.800   3241.06     0.9325     0.0235     0.3574     0.0680     1.0795     2.4302   108.8000     0.9707     0.2908
  342    6.820   3424.85     0.9601     0.0199     0.2511     0.0682     1.0898     2.2341   109.1200     0.9807     0.2590
  343    6.840   3978.41     1.1702     0.0168     0.0839     0.0684     1.2297     1.8919   109.4400     1.1203     0.0846
  344    6.860   4347.83     1.2513     0.0161     0.0405     0.0686     1.2658     1.3422   109.7600     1.1561    -0.0293
  345    6.880   4348.76     1.0922     0.0152     0.0630     0.0688     1.1160     1.3201   110.0800     1.0059    -0.0119
  346    6.900   4349.75     0.9643     0.0150     0.0850     0.0690     0.9964     1.4922   110.4000     0.8860     0.0086
  347    6.920   4350.71     0.8933     0.0134     0.1114     0.0692     0.9367     1.4583   110.7200     0.8259     0.0414
  348    6.940   4351.65     0.8814     0.0130     0.1335     0.0694     0.9339     1.4767   111.0400     0.8229     0.0676
  349    6.960   4352.61     0.8694     0.0128     0.1567     0.0696     0.9320     1.4686   111.3600     0.8206     0.0967
  350    6.980   4353.52     0.8641     0.0137     0.1796     0.0698     0.9360     1.5903   111.6800     0.8243     0.1229
  351    7.000   4354.48     0.8657     0.0147     0.2021     0.0700     0.9473     1.6982   112.0000     0.8353     0.1487
  352    7.020   4355.42     0.8795     0.0147     0.2213     0.0702     0.9697     1.6869   112.3200     0.8574     0.1686
  353    7.040   4356.39     0.8962     0.0152     0.2423     0.0704     0.9951     1.6963   112.6400     0.8824     0.1869
  354    7.060   4357.33     0.9137     0.0150     0.2611     0.0706     1.0205     1.6537   112.9600     0.9076     0.2024
  355    7.080   4358.29     0.9252     0.0151     0.2791     0.0708     1.0401     1.6415   113.2800     0.9268     0.2188
  356    7.100   4359.24     0.9288     0.0151     0.2945     0.0710     1.0502     1.6172   113.6000     0.9366     0.2329
  357    7.120   4360.17     0.9113     0.0157     0.3140     0.0712     1.0407     1.7140   113.9200     0.9268     0.2556
  358    7.140   4361.11     0.9007     0.0159     0.3340     0.0714     1.0377     1.7587   114.2400     0.9234     0.2759
  359    7.160   4362.03     0.8960     0.0161     0.3541     0.0716     1.0419     1.8028   114.5600     0.9273     0.2974
  360    7.180   4363.02     0.8935     0.0162     0.3737     0.0718     1.0481     1.8030   114.8800     0.9332     0.3177
  361    7.200   4363.97     0.8864     0.0165     0.3917     0.0720     1.0479     1.8410   115.2000     0.9327     0.3352
  362    7.220   4364.94     0.8736     0.0173     0.4080     0.0722     1.0428     1.9778   115.5200     0.9273     0.3565
  363    7.240   4365.88     0.8752     0.0174     0.4235     0.0724     1.0508     1.9921   115.8400     0.9349     0.3697
  364    7.260   4366.87     0.8741     0.0165     0.4361     0.0726     1.0558     1.8885   116.1600     0.9396     0.3832
  365    7.280   4367.80     0.8783     0.0160     0.4451     0.0728     1.0641     1.8295   116.4800     0.9476     0.3899
  366    7.300   4368.72     0.8922     0.0162     0.4519     0.0730     1.0814     1.8218   116.8000     0.9646     0.3912
  367    7.320   4369.67     0.8960     0.0170     0.4578     0.0732     1.0869     1.8962   117.1200     0.9698     0.3934
  368    7.340   4370.63     0.8797     0.0173     0.4639     0.0734     1.0741     1.9661   117.4400     0.9566     0.4070
  369    7.360   4371.62     0.8887     0.0168     0.4558     0.0736     1.0828     1.9088   117.7600     0.9651     0.4026
  370    7.380   4372.54     0.8899     0.0167     0.4574     0.0738     1.0808     1.8751   118.0800     0.9628     0.3955
  371    7.400   4373.48     0.8980     0.0164     0.4630     0.0740     1.0916     1.8344   118.4000     0.9732     0.3977
  372    7.420   4374.45     0.9137     0.0157     0.4634     0.0742     1.1090     1.7124   118.7200     0.9903     0.3945
  373    7.440   4375.40     0.8692     0.0165     0.4581     0.0744     1.0616     1.8442   119.0400     0.9426     0.4073
  374    7.460   4376.36     0.8424     0.0169     0.4711     0.0746     1.0379     1.9949   119.3600     0.9186     0.4256
  375    7.480   4377.27     0.8613     0.0178     0.4878     0.0748     1.0638     2.1084   119.6800     0.9441     0.4316
  376    7.500   4378.24     0.9406     0.0183     0.4660     0.0750     1.1417     2.0404   120.0000     1.0217     0.3956
  377    7.520   4379.17     1.0217     0.0183     0.4381     0.0752     1.2089     1.8629   120.3200     1.0886     0.3406
  378    7.540   4380.14     1.1596     0.0176     0.4070     0.0754     1.3364     1.6127   120.6400     1.2157     0.2843
  379    7.560   4381.08     1.2374     0.0164     0.3765     0.0756     1.3986     1.3573   120.9600     1.2777     0.2413
  380    7.580   4381.99     1.2042     0.0175     0.3528     0.0758     1.3543     1.4353   121.2800     1.2330     0.2283
  381    7.600   4382.91     1.1554     0.0177     0.3566     0.0760     1.3038     1.4937   121.6000     1.1822     0.2347
  382    7.620   4383.87     1.0824     0.0165     0.3765     0.0762     1.2373     1.4902   121.9200     1.1154     0.2624
  383    7.640   4384.79     1.0634     0.0158     0.3869     0.0764     1.2258     1.4801   122.2400     1.1035     0.2811
  384    7.660   4385.76     1.0512     0.0152     0.3831     0.0766     1.2118     1.4304   122.5600     1.0893     0.2807
  385    7.680   4386.71     0.9607     0.0150     0.4004     0.0768     1.1250     1.4979   122.8800     1.0021     0.3141
  386    7.700   4387.64     0.8962     0.0162     0.4352     0.0770     1.0731     1.7758   123.2000     0.9499     0.3623
  387    7.720   4388.61     0.9302     0.0160     0.4521     0.0772     1.1195     1.7669   123.5200     0.9960     0.3753
  388    7.740   4389.59     0.9845     0.0157     0.4531     0.0774     1.1770     1.6041   123.8400     1.0531     0.3616
  389    7.760   4390.52     0.9806     0.0158     0.4461     0.0776     1.1696     1.6029   124.1600     1.0455     0.3564
  390    7.780   4391.47     0.9744     0.0154     0.4476     0.0778     1.1627     1.5688   124.4800     1.0382     0.3570
  391    7.800   4392.43     0.9445     0.0165     0.4506     0.0780     1.1322     1.7034   124.8000     1.0074     0.3662
  392    7.820   4393.38     0.8981     0.0153     0.4659     0.0782     1.0921     1.6792   125.1200     0.9670     0.3970
  393    7.840   4394.30     0.8875     0.0160     0.4635     0.0784     1.0833     1.7975   125.4400     0.9579     0.4050
  394    7.860   4395.24     0.8544     0.0165     0.4667     0.0786     1.0474     1.9006   125.7600     0.9216     0.4133
  395    7.880   4396.22     0.8460     0.0160     0.4850     0.0788     1.0479     1.9028   126.0800     0.9218     0.4359
  396    7.900   4397.20     0.8957     0.0158     0.4869     0.0790     1.1005     1.8112   126.4000     0.9741     0.4197
  397    7.920   4398.11     0.9566     0.0157     0.4095     0.0792     1.1267     1.6892   126.7200     1.0000     0.3258
  398    7.940   4399.07     0.9334     0.0156     0.4109     0.0794     1.1058     1.6767   127.0400     0.9787     0.3383
  399    7.960   4400.01     0.9494     0.0144     0.4098     0.0796     1.1219     1.5125   127.3600     0.9946     0.3331
  400    7.980   4400.98     0.9008     0.0138     0.4056     0.0798     1.0710     1.5068   127.6800     0.9433     0.3448
  401    8.000   4401.93     0.8839     0.0144     0.4114     0.0800     1.0570     1.6291   128.0000     0.9290     0.3575
  402    8.020   4402.88     0.8601     0.0140     0.4054     0.0802     1.0300     1.6144   128.3200     0.9017     0.3597
  403    8.040   4403.82     0.8069     0.0148     0.4264     0.0804     0.9827     1.7972   128.6400     0.8540     0.3959
  404    8.060   4404.78     0.8578     0.0150     0.4072     0.0806     1.0335     1.7932   128.9600     0.9045     0.3731
  405    8.080   4405.76     0.8576     0.0134     0.4223     0.0808     1.0340     1.5700   129.2800     0.9047     0.3748
  406    8.100   4406.69     0.8834     0.0147     0.4354     0.0810     1.0643     1.6946   129.6000     0.9347     0.3740
  407    8.120   4407.59     0.9404     0.0146     0.4366     0.0812     1.1246     1.5927   129.9200     0.9946     0.3592
  408    8.140   4408.57     0.9694     0.0149     0.4341     0.0814     1.1513     1.5390   130.2400     1.0211     0.3445
  409    8.160   4409.51     0.9803     0.0142     0.4385     0.0816     1.1639     1.4595   130.5600     1.0333     0.3442
  410    8.180   4410.47     1.1354     0.0144     0.3992     0.0818     1.3123     1.3902   130.8800     1.1814     0.2883
  411    8.200   4411.41     1.1546     0.0143     0.3240     0.0820     1.3030     1.1997   131.2000     1.1718     0.2314
  412    8.220   4412.37     1.1461     0.0141     0.3007     0.0822     1.2709     1.2306   131.5200     1.1394     0.1887
  413    8.240   4413.33     1.0827     0.0156     0.2605     0.0824     1.1995     1.5169   131.8400     1.0676     0.1827
  414    8.260   4414.29     0.9529     0.0172     0.2805     0.0826     1.0654     1.8140   132.1600     0.9332     0.1986
  415    8.280   4415.22     0.8811     0.0187     0.3265     0.0828     1.0111     2.1117   132.4800     0.8787     0.2583
  416    8.300   4416.18     0.8579     0.0193     0.3646     0.0830     1.0057     2.2457   132.8000     0.8729     0.3081
  417    8.320   4417.08     0.8516     0.0198     0.3986     0.0832     1.0137     2.3201   133.1200     0.8806     0.3439
  418    8.340   4424.90     0.8601     0.0199     0.4376     0.0834     1.0382     2.3437   133.4400     0.9047     0.3751
  419    8.360   4437.83     0.8789     0.0190     0.4768     0.0836     1.0735     2.2341   133.7600     0.9397     0.4019
  420    8.380   4450.75     0.8977     0.0191     0.5157     0.0838     1.1088     2.2522   134.0800     0.9747     0.4287
  421    8.400   4455.69     0.8922     0.0184     0.5297     0.0840     1.1138     2.0527   134.4000     0.9794     0.4531
  422    8.420   4456.68     0.8954     0.0190     0.5319     0.0842     1.1186     2.1288   134.7200     0.9838     0.4544
  423    8.440   4457.63     0.9176     0.0199     0.5028     0.0844     1.1341     2.1927   135.0400     0.9990     0.4314
  424    8.460   4458.56     0.8830     0.0212     0.4734     0.0846     1.0851     2.3476   135.3600     0.9498     0.4176
  425    8.480   4459.54     0.8872     0.0182     0.4663     0.0848     1.0855     2.0584   135.6800     0.9499     0.4079
  426    8.500   4460.45     0.8895     0.0164     0.4555     0.0850     1.0809     1.7923   136.0000     0.9449     0.3923
  427    8.520   4461.42     0.8455     0.0151     0.4695     0.0852     1.0416     1.7454   136.3200     0.9052     0.4216
  428    8.540   4462.40     0.8660     0.0153     0.4614     0.0854     1.0609     1.7994   136.6400     0.9242     0.4097
  429    8.560   4463.30     0.9641     0.0195     0.4503     0.0856     1.1560     2.1485   136.9600     1.0190     0.3653
  430    8.580   4464.26     1.1109     0.0216     0.3839     0.0858     1.2852     2.0610   137.2800     1.1479     0.2875
  431    8.600   4465.19     1.2952     0.0227     0.3281     0.0860     1.4416     1.8898   137.6000     1.3040     0.2021
  432    8.620   4466.12     1.5102     0.0237     0.2643     0.0862     1.6301     1.6421   137.9200     1.4922     0.1336
  433    8.640   4467.14     1.4413     0.0230     0.2492     0.0864     1.5481     1.5230   138.2400     1.4099     0.1192
  434    8.660   4468.01     1.3328     0.0250     0.2439     0.0866     1.4369     1.8176   138.5600     1.2983     0.1242
  435    8.680   4468.98     1.1624     0.0292     0.2523     0.0868     1.2658     2.4369   138.8800     1.1269     0.1416
  436    8.700   4469.92     1.2879     0.0267     0.2761     0.0870     1.4003     2.1333   139.2000     1.2611     0.1433
  437    8.720   4470.90     1.3329     0.0229     0.2679     0.0872     1.4489     1.7262   139.5200     1.3093     0.1443
  438    8.740   4471.85     1.2994     0.0231     0.2593     0.0874     1.4085     1.7496   139.8400     1.2687     0.1359
  439    8.760   4472.81     1.2820     0.0212     0.2753     0.0876     1.3950     1.6756   140.1600     1.2548     0.1445
  440    8.780   4473.78     1.6701     0.0181     0.2819     0.0878     1.7872     1.2810   140.4800     1.6467     0.1179
  441    8.800   4474.73     2.8615     0.0239     0.2533     0.0880     2.9795     1.0218   140.8000     2.8387     0.0695
  442    8.820   4475.66     3.9827     0.0414     0.0982     0.0882     4.0459     1.1378   141.1200     3.9048     0.0160
  443    8.840   4476.62     3.8486     0.0587     0.0234     0.0884     3.8590     1.4656   141.4400     3.7175    -0.0172
  444    8.860   4477.56     3.1447     0.0582     0.0295     0.0886     3.1563     1.6814   141.7600     3.0145    -0.0203
  445    8.880   4478.49     2.4756     0.0570     0.0391     0.0888     2.4902     2.0919   142.0800     2.3481    -0.0230
  446    8.900   4479.47     2.0066     0.0583     0.0629     0.0890     2.0278     2.6840   142.4000     1.8854    -0.0204
  447    8.920   4480.39     1.6160     0.0544     0.0995     0.0892     1.6540     3.1251   142.7200     1.5113     0.0013
  448    8.940   4481.37     1.2416     0.0460     0.1127     0.0894     1.2859     3.3285   143.0400     1.1429     0.0144
  449    8.960   4482.29     1.0349     0.0325     0.1532     0.0896     1.0923     2.9997   143.3600     0.9489     0.0497
  450    8.980   4483.23     1.0069     0.0200     0.1973     0.0898     1.0833     1.9759   143.6800     0.9396     0.0982
  451    9.000   4484.21     0.9396     0.0181     0.2364     0.0900     1.0337     1.8694   144.0000     0.8897     0.1508
  452    9.020   4485.18     0.9494     0.0189     0.2768     0.0902     1.0598     2.0519   144.3200     0.9155     0.1885
  453    9.040   4486.11     1.0231     0.0185     0.3097     0.0904     1.1482     1.8556   144.6400     1.0035     0.2066
  454    9.060   4487.03     1.1469     0.0185     0.3395     0.0906     1.2869     1.7100   144.9600     1.1419     0.2125
  455    9.080   4488.00     1.3068     0.0202     0.3420     0.0908     1.4515     1.6427   145.2800     1.3062     0.1944
  456    9.100   4488.92     1.3897     0.0181     0.3285     0.0910     1.5299     1.3042   145.6000     1.3843     0.1754
  457    9.120   4489.87     1.3557     0.0166     0.3220     0.0912     1.4920     1.2004   145.9200     1.3461     0.1734
  458    9.140   4490.83     1.2078     0.0202     0.3045     0.0914     1.3376     1.6272   146.2400     1.1913     0.1826
  459    9.160   4491.77     1.1195     0.0194     0.3180     0.0916     1.2503     1.6649   146.5600     1.1038     0.1996
  460    9.180   4492.73     1.0023     0.0166     0.3106     0.0918     1.1329     1.6226   146.8800     0.9860     0.2223
  461    9.200   4493.69     1.1038     0.0166     0.3523     0.0920     1.2455     1.6201   147.2000     1.0983     0.2239
  462    9.220   4494.63     1.4206     0.0183     0.3843     0.0922     1.5793     1.4075   147.5200     1.4317     0.1996
  463    9.240   4495.60     1.5265     0.0172     0.3826     0.0924     1.6886     1.1339   147.8400     1.5408     0.1907
  464    9.260   4496.58     1.8187     0.0167     0.3075     0.0926     1.9579     0.9970   148.1600     1.8098     0.1320
  465    9.280   4497.51     1.9166     0.0164     0.2076     0.0928     2.0211     0.8544   148.4800     1.8726     0.0833
  466    9.300   4498.46     1.6887     0.0159     0.1817     0.0930     1.7663     0.8991   148.8000     1.6175     0.0569
  467    9.320   4499.40     1.6071     0.0179     0.1830     0.0932     1.6823     1.0958   149.1200     1.5332     0.0560
  468    9.340   4500.36     1.4401     0.0173     0.2079     0.0934     1.5239     1.1614   149.4400     1.3745     0.0773
  469    9.360   4501.29     1.6114     0.0195     0.2309     0.0936     1.7046     1.2915   149.7600     1.5549     0.0826
  470    9.380   4502.26     2.2505     0.0201     0.2094     0.0938     2.3455     0.9913   150.0800     2.1954     0.0611
  471    9.400   4503.23     2.8670     0.0193     0.1726     0.0940     2.9448     0.7340   150.4000     2.7944     0.0329
  472    9.420   4504.20     3.4518     0.0201     0.1243     0.0942     3.5065     0.6161   150.7200     3.3558     0.0108
  473    9.440   4505.16     3.8482     0.0259     0.1094     0.0944     3.8985     0.6885   151.0400     3.7474     0.0067
  474    9.460   4506.14     3.9334     0.0312     0.0945     0.0946     3.9747     0.7955   151.3600     3.8234     0.0010
  475    9.480   4507.10     3.8754     0.0300     0.0685     0.0948     3.9084     0.7674   151.6800     3.7568    -0.0043
  476    9.500   4508.01     3.5772     0.0329     0.0579     0.0950     3.6023     0.8876   152.0000     3.4503    -0.0103
  477    9.520   4508.97     3.2033     0.0378     0.0596     0.0952     3.2291     1.1254   152.3200     3.0768    -0.0110
  478    9.540   4509.96     2.8259     0.0427     0.0640     0.0954     2.8539     1.4396   152.6400     2.7013    -0.0105
  479    9.560   4510.91     2.5584     0.0408     0.0435     0.0956     2.5779     1.5253   152.9600     2.4249    -0.0203
  480    9.580   4511.87     2.3875     0.0377     0.0506     0.0958     2.4082     1.5333   153.2800     2.2549    -0.0207
  481    9.600   4512.78     2.2713     0.0383     0.0589     0.0960     2.2939     1.6681   153.6000     2.1403    -0.0197
  482    9.620   4513.71     2.2104     0.0305     0.0694     0.0962     2.2377     1.3526   153.9200     2.0838    -0.0150
  483    9.640   4514.65     2.0019     0.0246     0.0652     0.0964     2.0319     1.1769   154.2400     1.8776    -0.0135
  484    9.660   4515.61     1.7493     0.0210     0.0626     0.0966     1.7755     1.1474   154.5600     1.6209    -0.0211
  485    9.680   4516.58     1.4660     0.0209     0.0675     0.0968     1.4925     1.3382   154.8800     1.3376    -0.0251
  486    9.700   4517.53     1.4317     0.0219     0.0874     0.0970     1.4648     1.5674   155.2000     1.3096    -0.0139
  487    9.720   4518.45     1.4631     0.0244     0.1069     0.0972     1.5053     1.6524   155.5200     1.3498     0.0025
  488    9.740   4519.43     1.4193     0.0253     0.1295     0.0974     1.4710     1.7525   155.8400     1.3152     0.0195
  489    9.760   4520.42     1.3545     0.0251     0.1515     0.0976     1.4145     1.8192   156.1600     1.2583     0.0359
  490    9.780   4521.36     1.3256     0.0249     0.1730     0.0978     1.3954     1.8660   156.4800     1.2389     0.0551
  491    9.800   4522.30     1.3292     0.0259     0.2008     0.0980     1.4093     1.9531   156.8000     1.2525     0.0739
  492    9.820   4523.27     1.3297     0.0258     0.2248     0.0982     1.4206     1.9452   157.1200     1.2635     0.0936
  493    9.840   4524.22     1.3408     0.0261     0.2482     0.0984     1.4416     1.9539   157.4400     1.2842     0.1103
  494    9.860   4525.16     1.2735     0.0271     0.2690     0.0986     1.3848     2.1746   157.7600     1.2271     0.1359
  495    9.880   4526.10     1.1002     0.0280     0.2707     0.0988     1.2138     2.4483   158.0800     1.0557     0.1626
  496    9.900   4527.04     1.0154     0.0322     0.2851     0.0990     1.1328     3.1244   158.4000     0.9744     0.1854
  497    9.920   4528.00     1.0087     0.0334     0.3109     0.0992     1.1346     3.4080   158.7200     0.9759     0.2056
  498    9.940   4528.98     1.2905     0.0317     0.3545     0.0994     1.4328     2.7080   159.0400     1.2738     0.1882
  499    9.960   4529.91     1.4534     0.0318     0.3811     0.0996     1.6106     2.2123   159.3600     1.4512     0.1892
  500    9.980   4530.87     1.5020     0.0333     0.4005     0.0998     1.6674     2.3182   159.6800     1.5077     0.1948
  501   10.000   4531.83     1.5607     0.0370     0.4579     0.1000     1.7393     2.4305   160.0000     1.5793     0.2058
  502   10.020   4532.83     1.6331     0.0407     0.4991     0.1002     1.8389     2.5381   160.3200     1.6786     0.2322
  503   10.040   4533.78     1.6681     0.0437     0.5233     0.1004     1.8856     2.6187   160.6400     1.7249     0.2419
  504   10.060   4534.70     1.6679     0.0442     0.5339     0.1006     1.8904     2.6492   160.9600     1.7295     0.2481
  505   10.080   4535.65     1.6763     0.0440     0.5259     0.1008     1.8997     2.6342   161.2800     1.7385     0.2481
  506   10.100   4537.89     1.6747     0.0447     0.5367     0.1010     1.8981     2.6649   161.6000     1.7365     0.2483
  507   10.120   4541.12     1.6655     0.0458     0.5499     0.1012     1.8945     2.7279   161.9200     1.7326     0.2564
  508   10.140   4544.35     1.6562     0.0456     0.5642     0.1014     1.8908     2.7162   162.2400     1.7286     0.2645
  509   10.160   4545.81     1.6306     0.0451     0.5904     0.1016     1.8738     2.7641   162.5600     1.7113     0.2791
  510   10.180   4546.75     1.5942     0.0436     0.6425     0.1018     1.8555     2.7015   162.8800     1.6927     0.3074
  511   10.200   4550.29     1.5593     0.0422     0.6895     0.1020     1.8434     2.6941   163.2000     1.6802     0.3418
  512   10.220   4555.89     1.5460     0.0403     0.7276     0.1022     1.8460     2.5760   163.5200     1.6825     0.3639
  513   10.240   4559.47     1.5429     0.0353     0.7570     0.1024     1.8552     2.2930   163.8400     1.6913     0.3791
  514   10.260   4560.42     1.5364     0.0372     0.7891     0.1026     1.8641     2.4237   164.1600     1.6999     0.3985
  515   10.280   4561.37     1.5422     0.0365     0.8007     0.1028     1.8782     2.3919   164.4800     1.7137     0.4068
  516   10.300   4562.25     1.5348     0.0357     0.7951     0.1030     1.8686     2.3557   164.8000     1.7038     0.4061
  517   10.320   4563.14     1.4899     0.0349     0.7907     0.1032     1.8264     2.3322   165.1200     1.6613     0.4201
  518   10.340   4564.01     1.4518     0.0349     0.6746     0.1034     1.7748     2.3801   165.4400     1.6093     0.4136
  519   10.360   4567.62     1.0862     0.0373     0.6806     0.1036     1.3765     3.6482   165.7600     1.2107     0.4921
  520   10.380   4571.62     1.3909     0.0381     0.6640     0.1038     1.6721     2.7115   166.0800     1.5060     0.3755
  521   10.400   4577.68     1.3662     0.0382     0.6484     0.1040     1.6408     2.7181   166.4000     1.4744     0.3728
  522   10.420   4583.74     1.3416     0.0384     0.6201     0.1042     1.6096     2.7516   166.7200     1.4429     0.3701
  523   10.440   4585.00     1.4264     0.0390     0.6384     0.1044     1.6894     2.7903   167.0400     1.5224     0.3427
  524   10.460   4585.94     1.4679     0.0393     0.6964     0.1046     1.7518     2.7095   167.3600     1.5844     0.3606
  525   10.480   4586.89     1.5038     0.0407     0.7413     0.1048     1.8086     2.7270   167.6800     1.6409     0.3784
  526   10.500   4587.84     1.5040     0.0426     0.7856     0.1050     1.8294     2.8190   168.0000     1.6614     0.4031
  527   10.520   4588.76     1.4947     0.0417     0.7874     0.1052     1.8250     2.7863   168.3200     1.6566     0.4111
  528   10.540   4589.72     1.4801     0.0419     0.7777     0.1054     1.8063     2.8272   168.6400     1.6376     0.4099
  529   10.560   4590.68     1.4667     0.0420     0.7645     0.1056     1.7877     2.8476   168.9600     1.6187     0.4068
  530   10.580   4591.63     1.4604     0.0431     0.7807     0.1058     1.7847     2.9352   169.2800     1.6155     0.4125
  531   10.600   4592.58     1.4258     0.0417     0.8077     0.1060     1.7609     2.8939   169.6000     1.5913     0.4349
  532   10.620   4593.57     1.3973     0.0411     0.8016     0.1062     1.7380     2.9198   169.9200     1.5681     0.4496
  533   10.640   4594.51     1.3935     0.0398     0.7939     0.1064     1.7300     2.8445   170.2400     1.5597     0.4454
  534   10.660   4595.44     1.4042     0.0384     0.7746     0.1066     1.7296     2.7547   170.5600     1.5590     0.4286
  535   10.680   4596.40     1.3866     0.0378     0.7952     0.1068     1.7184     2.7178   170.8800     1.5476     0.4415
  536   10.700   4597.35     1.3933     0.0390     0.8015     0.1070     1.7296     2.7904   171.2000     1.5584     0.4452
  537   10.720   4598.30     1.3819     0.0385     0.7999     0.1072     1.7170     2.7688   171.5200     1.5455     0.4469
  538   10.740   4599.27     1.3774     0.0385     0.7868     0.1074     1.7098     2.7980   171.8400     1.5380     0.4447
  539   10.760   4600.18     1.3803     0.0385     0.7698     0.1076     1.7047     2.7934   172.1600     1.5326     0.4339
  540   10.780   4601.17     1.3865     0.0390     0.7596     0.1078     1.7068     2.8130   172.4800     1.5343     0.4268
  541   10.800   4602.11     1.3675     0.0391     0.7649     0.1080     1.6906     2.8389   172.8000     1.5178     0.4356
  542   10.820   4603.05     1.3468     0.0378     0.7567     0.1082     1.6657     2.7897   173.1200     1.4925     0.4362
  543   10.840   4604.04     1.3472     0.0375     0.7458     0.1084     1.6611     2.7881   173.4400     1.4877     0.4295
  544   10.860   4604.98     1.3267     0.0363     0.7480     0.1086     1.6407     2.7113   173.7600     1.4670     0.4357
  545   10.880   4605.95     1.2979     0.0353     0.7615     0.1088     1.6151     2.6877   174.0800     1.4410     0.4485
  546   10.900   4606.92     1.2885     0.0353     0.7772     0.1090     1.6135     2.7331   174.4000     1.4391     0.4620
  547   10.920   4607.84     1.2758     0.0347     0.7637     0.1092     1.5993     2.7080   174.7200     1.4246     0.4641
  548   10.940   4608.80     1.2435     0.0340     0.7553     0.1094     1.5617     2.7104   175.0400     1.3867     0.4674
  549   10.960   4609.76     1.2339     0.0344     0.7640     0.1096     1.5529     2.7743   175.3600     1.3775     0.4717
  550   10.980   4610.66     1.2083     0.0338     0.7742     0.1098     1.5313     2.7803   175.6800     1.3557     0.4864
  551   11.000   4611.61     1.1783     0.0344     0.7884     0.1100     1.5081     2.8913   176.0000     1.3321     0.5070
  552   11.020   4612.57     1.1591     0.0347     0.8053     0.1102     1.4946     2.9770   176.3200     1.3182     0.5223
  553   11.040   4613.55     1.1658     0.0345     0.8141     0.1104     1.5071     2.9606   176.6400     1.3304     0.5277
  554   11.060   4614.50     1.1685     0.0344     0.8270     0.1106     1.5136     2.9351   176.9600     1.3366     0.5320
  555   11.080   4615.45     1.1713     0.0347     0.8415     0.1108     1.5223     2.9634   177.2800     1.3451     0.5391
  556   11.100   4616.41     1.1800     0.0350     0.8563     0.1110     1.5380     2.9708   177.6000     1.3604     0.5449
  557   11.120   4617.36     1.2180     0.0343     0.8492     0.1112     1.5762     2.8729   177.9200     1.3983     0.5305
  558   11.140   4618.31     1.2162     0.0346     0.8150     0.1114     1.5649     2.8290   178.2400     1.3867     0.5183
  559   11.160   4619.27     1.2345     0.0337     0.8318     0.1116     1.5817     2.7447   178.5600     1.4032     0.5097
  560   11.180   4620.22     1.2413     0.0324     0.8478     0.1118     1.5945     2.6201   178.8800     1.4157     0.5151
  561   11.200   4621.17     1.2429     0.0330     0.8430     0.1120     1.5992     2.6498   179.2000     1.4200     0.5186
  562   11.220   4622.16     1.2488     0.0336     0.8223     0.1122     1.5958     2.6958   179.5200     1.4163     0.5042
  563   11.240   4623.09     1.2760     0.0337     0.8083     0.1124     1.6182     2.6766   179.8400     1.4383     0.4883
  564   11.260   4624.06     1.2839     0.0331     0.7745     0.1126     1.6183     2.5842   180.1600     1.4382     0.4754
  565   11.280   4625.00     1.3126     0.0315     0.7215     0.1128     1.6196     2.4057   180.4800     1.4391     0.4294
  566   11.300   4625.97     1.2272     0.0301     0.7431     0.1130     1.5352     2.3841   180.8000     1.3544     0.4581
  567   11.320   4626.95     1.1505     0.0304     0.7622     0.1132     1.4680     2.5929   181.1200     1.2869     0.4996
  568   11.340   4627.85     1.1430     0.0316     0.7851     0.1134     1.4692     2.7615   181.4400     1.2877     0.5150
  569   11.360   4628.85     1.1445     0.0304     0.8070     0.1136     1.4807     2.6630   181.7600     1.2989     0.5287
  570   11.380   4629.80     1.1612     0.0295     0.8217     0.1138     1.5049     2.5475   182.0800     1.3228     0.5326
  571   11.400   4630.79     1.1700     0.0287     0.8230     0.1140     1.5155     2.4649   182.4000     1.3331     0.5316
  572   11.420   4631.76     1.1745     0.0293     0.8263     0.1142     1.5211     2.4936   182.7200     1.3384     0.5313
  573   11.440   4632.69     1.1584     0.0297     0.8361     0.1144     1.5063     2.5404   183.0400     1.3233     0.5397
  574   11.460   4633.66     1.1363     0.0293     0.8320     0.1146     1.4868     2.5597   183.3600     1.3035     0.5524
  575   11.480   4634.61     1.1107     0.0286     0.8183     0.1148     1.4588     2.5492   183.6800     1.2752     0.5599
  576   11.500   4635.58     1.0964     0.0276     0.8073     0.1150     1.4354     2.5131   184.0000     1.2514     0.5531
  577   11.520   4636.53     1.0804     0.0272     0.8217     0.1152     1.4242     2.5020   184.3200     1.2398     0.5672
  578   11.540   4637.48     1.0833     0.0274     0.8333     0.1154     1.4316     2.5359   184.6400     1.2470     0.5726
  579   11.560   4638.44     1.0810     0.0263     0.8280     0.1156     1.4309     2.4227   184.9600     1.2459     0.5759
  580   11.580   4639.42     1.0720     0.0260     0.8120     0.1158     1.4143     2.4117   185.2800     1.2291     0.5690
  581   11.600   4640.39     1.0646     0.0260     0.8132     0.1160     1.4064     2.4540   185.6000     1.2208     0.5717
  582   11.620   4641.35     1.0813     0.0255     0.8062     0.1162     1.4208     2.3724   185.9200     1.2349     0.5605
  583   11.640   4642.26     1.0839     0.0249     0.8096     0.1164     1.4226     2.2991   186.2400     1.2363     0.5580
  584   11.660   4643.23     1.0964     0.0246     0.7766     0.1166     1.4297     2.2624   186.5600     1.2431     0.5446
  585   11.680   4644.16     1.0928     0.0245     0.7353     0.1168     1.3987     2.2304   186.8800     1.2118     0.5046
  586   11.700   4645.16     1.0625     0.0240     0.7561     0.1170     1.3780     2.2386   187.2000     1.1908     0.5326
  587   11.720   4646.12     1.0477     0.0248     0.7515     0.1172     1.3644     2.3584   187.5200     1.1769     0.5412
  588   11.740   4647.05     1.0514     0.0251     0.7527     0.1174     1.3664     2.3840   187.8400     1.1786     0.5368
  589   11.760   4648.02     1.0513     0.0251     0.7604     0.1176     1.3691     2.3841   188.1600     1.1809     0.5411
  590   11.780   4649.00     1.0417     0.0252     0.7564     0.1178     1.3617     2.4048   188.4800     1.1732     0.5490
  591   11.800   4649.95     1.0509     0.0258     0.7494     0.1180     1.3662     2.4880   188.8000     1.1774     0.5373
  592   11.820   4650.94     1.0481     0.0258     0.7392     0.1182     1.3599     2.4505   189.1200     1.1708     0.5332
  593   11.840   4651.89     1.0266     0.0256     0.7397     0.1184     1.3368     2.4670   189.4400     1.1473     0.5405
  594   11.860   4652.85     1.0151     0.0257     0.7383     0.1186     1.3256     2.5166   189.7600     1.1358     0.5465
  595   11.880   4653.82     1.0287     0.0256     0.7439     0.1188     1.3405     2.4986   190.0800     1.1505     0.5420
  596   11.900   4654.75     1.0174     0.0255     0.7497     0.1190     1.3316     2.4980   190.4000     1.1412     0.5512
  597   11.920   4655.71     1.0155     0.0259     0.7490     0.1192     1.3298     2.5480   190.7200     1.1391     0.5523
  598   11.940   4656.68     1.0043     0.0256     0.7539     0.1194     1.3208     2.5440   191.0400     1.1298     0.5613
  599   11.960   4657.64     1.0010     0.0255     0.7487     0.1196     1.3150     2.5445   191.3600     1.1236     0.5589
  600   11.980   4658.58     0.9955     0.0249     0.7475     0.1198     1.3098     2.4944   191.6800     1.1182     0.5621
  601   12.000   4659.56     0.9988     0.0249     0.7446     0.1200     1.3118     2.4948   192.0000     1.1198     0.5582
  602   12.020   4660.55     0.9936     0.0253     0.7465     0.1202     1.3069     2.5533   192.3200     1.1146     0.5615
  603   12.040   4661.52     0.9879     0.0251     0.7462     0.1204     1.3001     2.5382   192.6400     1.1075     0.5627
  604   12.060   4662.44     0.9875     0.0245     0.7559     0.1206     1.3035     2.4809   192.9600     1.1105     0.5688
  605   12.080   4663.43     0.9968     0.0245     0.7555     0.1208     1.3149     2.4577   193.2800     1.1216     0.5677
  606   12.100   4664.35     0.9937     0.0246     0.7537     0.1210     1.3100     2.4728   193.6000     1.1164     0.5663
  607   12.120   4665.31     0.9941     0.0250     0.7501     0.1212     1.3100     2.5099   193.9200     1.1161     0.5653
  608   12.140   4666.29     0.9971     0.0250     0.7528     0.1214     1.3128     2.5115   194.2400     1.1186     0.5635
  609   12.160   4667.28     1.0017     0.0248     0.7535     0.1216     1.3173     2.4823   194.5600     1.1227     0.5609
  610   12.180   4668.20     1.0080     0.0244     0.7454     0.1218     1.3223     2.4256   194.8800     1.1275     0.5557
  611   12.200   4669.15     1.0116     0.0241     0.7432     0.1220     1.3236     2.3885   195.2000     1.1284     0.5501
  612   12.220   4670.01     1.0058     0.0246     0.7551     0.1222     1.3219     2.4326   195.5200     1.1264     0.5597
  613   12.240   4670.94     1.0192     0.0245     0.7543     0.1224     1.3361     2.4283   195.8400     1.1402     0.5543
  614   12.260   4671.84     1.0147     0.0243     0.7484     0.1226     1.3307     2.3865   196.1600     1.1346     0.5552
  615   12.280   4672.79     1.0058     0.0254     0.7402     0.1228     1.3169     2.5247   196.4800     1.1205     0.5516
  616   12.300   4673.76     1.0098     0.0258     0.7344     0.1230     1.3195     2.5663   196.8000     1.1227     0.5474
  617   12.320   4674.71     1.0188     0.0265     0.7430     0.1232     1.3308     2.6265   197.1200     1.1337     0.5467
  618   12.340   4675.68     1.0142     0.0272     0.7484     0.1234     1.3265     2.6867   197.4400     1.1291     0.5493
  619   12.360   4676.62     1.0182     0.0272     0.7425     0.1236     1.3319     2.6839   197.7600     1.1342     0.5496
  620   12.380   4677.64     1.0358     0.0265     0.7595     0.1238     1.3530     2.5653   198.0800     1.1549     0.5468
  621   12.400   4678.80     1.0424     0.0256     0.7680     0.1240     1.3647     2.4523   198.4000     1.1663     0.5517
  622   12.420   4686.77     1.0388     0.0253     0.7695     0.1242     1.3617     2.4271   198.7200     1.1630     0.5544
  623   12.440   4694.74     1.0352     0.0256     0.7711     0.1244     1.3588     2.4580   199.0400     1.1598     0.5572
  624   12.460   4702.71     1.0316     0.0249     0.7660     0.1246     1.3558     2.3949   199.3600     1.1565     0.5599
  625   12.480   4704.47     1.0347     0.0240     0.7552     0.1248     1.3518     2.3270   199.6800     1.1522     0.5470
  626   12.500   4705.43     1.0334     0.0244     0.7509     0.1250     1.3495     2.3592   200.0000     1.1495     0.5459
  627   12.520   4706.41     1.0518     0.0243     0.7585     0.1252     1.3684     2.3180   200.3200     1.1681     0.5382
  628   12.540   4707.33     1.0509     0.0244     0.7629     0.1254     1.3718     2.3120   200.6400     1.1712     0.5453
  629   12.560   4708.26     1.0525     0.0254     0.7710     0.1256     1.3740     2.4210   200.9600     1.1730     0.5454
  630   12.580   4709.23     1.0745     0.0254     0.7749     0.1258     1.3953     2.3857   201.2800     1.1940     0.5344
  631   12.600   4710.18     1.1243     0.0250     0.7817     0.1260     1.4528     2.2462   201.6000     1.2512     0.5244
  632   12.620   4711.17     1.1276     0.0245     0.7742     0.1262     1.4538     2.1809   201.9200     1.2519     0.5195
  633   12.640   4712.13     1.0902     0.0247     0.7391     0.1264     1.4077     2.2338   202.2400     1.2055     0.5222
  634   12.660   4713.11     1.0436     0.0245     0.7404     0.1266     1.3544     2.3204   202.5600     1.1518     0.5325
  635   12.680   4714.07     1.0276     0.0249     0.7390     0.1268     1.3377     2.4105   202.8800     1.1349     0.5389
  636   12.700   4715.01     1.0241     0.0250     0.7427     0.1270     1.3350     2.4454   203.2000     1.1318     0.5418
  637   12.720   4715.94     1.0217     0.0238     0.7360     0.1272     1.3331     2.3391   203.5200     1.1296     0.5438
  638   12.740   4716.90     1.0333     0.0230     0.7384     0.1274     1.3414     2.2293   203.8400     1.1376     0.5329
  639   12.760   4717.88     1.0290     0.0243     0.7472     0.1276     1.3422     2.3502   204.1600     1.1381     0.5431
  640   12.780   4718.82     1.0207     0.0235     0.7513     0.1278     1.3362     2.2996   204.4800     1.1317     0.5509
  641   12.800   4719.81     1.0229     0.0233     0.7346     0.1280     1.3324     2.2719   204.8000     1.1276     0.5399
  642   12.820   4720.73     1.0155     0.0235     0.7454     0.1282     1.3296     2.3095   205.1200     1.1245     0.5511
  643   12.840   4721.73     1.0224     0.0238     0.7441     0.1284     1.3364     2.3403   205.4400     1.1309     0.5475
  644   12.860   4722.73     1.0210     0.0238     0.7638     0.1286     1.3391     2.3236   205.7600     1.1334     0.5549
  645   12.880   4723.68     1.0156     0.0236     0.7689     0.1288     1.3384     2.3255   206.0800     1.1324     0.5652
  646   12.900   4724.64     1.0039     0.0235     0.7633     0.1290     1.3249     2.3374   206.4000     1.1185     0.5680
  647   12.920   4725.59     1.0081     0.0245     0.7731     0.1292     1.3308     2.4274   206.7200     1.1241     0.5685
  648   12.940   4726.54     1.0201     0.0253     0.7817     0.1294     1.3467     2.4982   207.0400     1.1396     0.5688
  649   12.960   4727.48     1.0165     0.0244     0.7833     0.1296     1.3458     2.3873   207.3600     1.1384     0.5748
  650   12.980   4728.46     1.0034     0.0243     0.7834     0.1298     1.3326     2.4127   207.6800     1.1249     0.5815
  651   13.000   4729.40     1.0131     0.0243     0.7848     0.1300     1.3415     2.4017   208.0000     1.1335     0.5751
  652   13.020   4730.38     1.0202     0.0237     0.7995     0.1302     1.3546     2.3467   208.3200     1.1463     0.5809
  653   13.040   4731.35     1.0108     0.0240     0.8040     0.1304     1.3482     2.3704   208.6400     1.1396     0.5906
  654   13.060   4732.28     1.0061     0.0241     0.7916     0.1306     1.3401     2.3883   208.9600     1.1311     0.5875
  655   13.080   4733.22     0.9986     0.0236     0.7945     0.1308     1.3342     2.3571   209.2800     1.1249     0.5940
  656   13.100   4734.21     1.0025     0.0242     0.7898     0.1310     1.3335     2.4180   209.6000     1.1239     0.5847
  657   13.120   4735.11     1.0164     0.0245     0.7915     0.1312     1.3501     2.4309   209.9200     1.1402     0.5817
  658   13.140   4736.14     1.0047     0.0235     0.7957     0.1314     1.3393     2.3210   210.2400     1.1291     0.5894
  659   13.160   4737.06     1.0025     0.0230     0.8007     0.1316     1.3368     2.2921   210.5600     1.1263     0.5899
  660   13.180   4738.01     1.0127     0.0232     0.7884     0.1318     1.3441     2.3070   210.8800     1.1333     0.5802
  661   13.200   4739.01     1.0105     0.0233     0.7965     0.1320     1.3447     2.3016   211.2000     1.1335     0.5856
  662   13.220   4739.94     1.0028     0.0236     0.7960     0.1322     1.3377     2.3369   211.5200     1.1261     0.5905
  663   13.240   4740.91     1.0004     0.0234     0.7812     0.1324     1.3312     2.3412   211.8400     1.1194     0.5854
  664   13.260   4741.85     1.0017     0.0230     0.7665     0.1326     1.3245     2.3024   212.1600     1.1123     0.5716
  665   13.280   4742.84     1.0008     0.0237     0.7786     0.1328     1.3262     2.3666   212.4800     1.1137     0.5763
  666   13.300   4743.76     1.0055     0.0244     0.7869     0.1330     1.3337     2.4280   212.8000     1.1209     0.5786
  667   13.320   4744.76     0.9969     0.0235     0.7899     0.1332     1.3291     2.3478   213.1200     1.1160     0.5894
  668   13.340   4745.71     0.9926     0.0241     0.7769     0.1334     1.3207     2.4231   213.4400     1.1072     0.5849
  669   13.360   4746.65     0.9998     0.0233     0.7729     0.1336     1.3254     2.3467   213.7600     1.1117     0.5773
  670   13.380   4747.64     0.9982     0.0231     0.7857     0.1338     1.3281     2.3124   214.0800     1.1140     0.5850
  671   13.400   4748.60     0.9898     0.0231     0.7903     0.1340     1.3215     2.3221   214.4000     1.1071     0.5924
  672   13.420   4749.59     0.9918     0.0233     0.7819     0.1342     1.3214     2.3622   214.7200     1.1067     0.5880
  673   13.440   4750.54     0.9898     0.0236     0.7781     0.1344     1.3170     2.3836   215.0400     1.1020     0.5851
  674   13.460   4751.46     0.9861     0.0231     0.7715     0.1346     1.3114     2.3513   215.3600     1.0960     0.5838
  675   13.480   4752.42     0.9803     0.0231     0.7770     0.1348     1.3059     2.3535   215.6800     1.0902     0.5873
  676   13.500   4753.39     0.9754     0.0231     0.7717     0.1350     1.2999     2.3716   216.0000     1.0839     0.5884
  677   13.520   4754.35     0.9675     0.0229     0.7747     0.1352     1.2924     2.3597   216.3200     1.0761     0.5933
  678   13.540   4755.34     0.9723     0.0221     0.7619     0.1354     1.2955     2.2735   216.6400     1.0789     0.5878
  679   13.560   4756.29     0.9676     0.0224     0.7585     0.1356     1.2865     2.3079   216.9600     1.0696     0.5832
  680   13.580   4757.25     0.9620     0.0224     0.7678     0.1358     1.2825     2.3272   217.2800     1.0652     0.5889
  681   13.600   4758.24     0.9538     0.0230     0.7554     0.1360     1.2721     2.4088   217.6000     1.0545     0.5897
  682   13.620   4759.15     0.9557     0.0228     0.7670     0.1362     1.2761     2.3874   217.9200     1.0582     0.5923
  683   13.640   4760.11     0.9696     0.0224     0.7665     0.1364     1.2903     2.3215   218.2400     1.0720     0.5849
  684   13.660   4761.08     0.9639     0.0222     0.7722     0.1366     1.2868     2.2968   218.5600     1.0683     0.5920
  685   13.680   4762.03     0.9857     0.0224     0.7671     0.1368     1.3089     2.3040   218.8800     1.0901     0.5806
  686   13.700   4763.02     0.9805     0.0224     0.7716     0.1370     1.3041     2.2767   219.2000     1.0849     0.5840
  687   13.720   4763.96     0.9745     0.0224     0.7681     0.1372     1.2977     2.3139   219.5200     1.0782     0.5864
  688   13.740   4764.92     0.9770     0.0227     0.7556     0.1374     1.2954     2.3282   219.8400     1.0756     0.5770
  689   13.760   4765.90     0.9778     0.0225     0.7610     0.1376     1.2960     2.3017   220.1600     1.0758     0.5761
  690   13.780   4766.85     0.9768     0.0227     0.7668     0.1378     1.2991     2.3286   220.4800     1.0786     0.5838
  691   13.800   4767.81     0.9722     0.0233     0.7657     0.1380     1.2939     2.3843   220.8000     1.0731     0.5852
  692   13.820   4768.76     0.9563     0.0224     0.7593     0.1382     1.2757     2.3251   221.1200     1.0546     0.5900
  693   13.840   4769.72     0.9539     0.0232     0.7488     0.1384     1.2716     2.4362   221.4400     1.0502     0.5884
  694   13.860   4770.74     0.9668     0.0234     0.7420     0.1386     1.2783     2.4313   221.7600     1.0565     0.5707
  695   13.880   4771.70     0.9616     0.0228     0.7537     0.1388     1.2785     2.3584   222.0800     1.0564     0.5828
  696   13.900   4772.61     0.9527     0.0230     0.7685     0.1390     1.2705     2.3983   222.4000     1.0481     0.5893
  697   13.920   4773.62     0.9608     0.0236     0.7601     0.1392     1.2833     2.4824   222.7200     1.0605     0.5927
  698   13.940   4774.56     0.9780     0.0239     0.7635     0.1394     1.2971     2.4589   223.0400     1.0741     0.5776
  699   13.960   4775.54     0.9811     0.0238     0.7695     0.1396     1.3017     2.4252   223.3600     1.0784     0.5786
  700   13.980   4776.49     0.9755     0.0239     0.7683     0.1398     1.2992     2.4524   223.6800     1.0755     0.5867
  701   14.000   4777.41     0.9748     0.0246     0.7736     0.1400     1.2985     2.5114   224.0000     1.0745     0.5870
  702   14.020   4778.39     0.9852     0.0246     0.7731     0.1402     1.3101     2.5025   224.3200     1.0857     0.5833
  703   14.040   4779.39     0.9862     0.0239     0.7778     0.1404     1.3122     2.4233   224.6400     1.0875     0.5845
  704   14.060   4780.35     0.9934     0.0242     0.7850     0.1406     1.3225     2.4411   224.9600     1.0975     0.5857
  705   14.080   4781.26     0.9975     0.0236     0.7790     0.1408     1.3241     2.3752   225.2800     1.0988     0.5796
  706   14.100   4782.23     1.0109     0.0236     0.7899     0.1410     1.3430     2.3358   225.6000     1.1174     0.5813
  707   14.120   4783.20     1.0059     0.0237     0.7930     0.1412     1.3402     2.3456   225.9200     1.1143     0.5876
  708   14.140   4784.23     1.0019     0.0235     0.7903     0.1414     1.3363     2.3567   226.2400     1.1100     0.5898
  709   14.160   4785.17     1.0049     0.0235     0.7924     0.1416     1.3363     2.3288   226.5600     1.1098     0.5835
  710   14.180   4786.12     1.0060     0.0234     0.7852     0.1418     1.3366     2.3396   226.8800     1.1098     0.5816
  711   14.200   4787.12     1.0047     0.0240     0.7837     0.1420     1.3352     2.3920   227.2000     1.1080     0.5820
  712   14.220   4788.06     1.0031     0.0251     0.7793     0.1422     1.3315     2.5023   227.5200     1.1040     0.5795
  713   14.240   4789.01     1.0051     0.0253     0.7752     0.1424     1.3307     2.5163   227.8400     1.1028     0.5737
  714   14.260   4789.97     1.0133     0.0255     0.7764     0.1426     1.3378     2.5198   228.1600     1.1096     0.5678
  715   14.280   4790.93     1.0173     0.0257     0.7806     0.1428     1.3460     2.5276   228.4800     1.1176     0.5726
  716   14.300   4794.54     1.0242     0.0262     0.7832     0.1430     1.3519     2.5577   228.8000     1.1231     0.5674
  717   14.320   4802.82     1.0278     0.0256     0.7917     0.1432     1.3591     2.4986   229.1200     1.1300     0.5713
  718   14.340   4810.60     1.0299     0.0254     0.7986     0.1434     1.3647     2.4741   229.4400     1.1352     0.5757
  719   14.360   4813.89     1.0234     0.0246     0.7984     0.1436     1.3588     2.4088   229.7600     1.1290     0.5802
  720   14.380   4818.90     1.0261     0.0241     0.7977     0.1438     1.3612     2.3540   230.0800     1.1311     0.5783
  721   14.400   4822.45     1.0311     0.0234     0.8058     0.1440     1.3674     2.2718   230.4000     1.1370     0.5776
  722   14.420   4823.42     1.0461     0.0233     0.8005     0.1442     1.3836     2.2464   230.7200     1.1528     0.5719
  723   14.440   4824.36     1.0348     0.0232     0.7988     0.1444     1.3698     2.2347   231.0400     1.1388     0.5737
  724   14.460   4825.26     1.0234     0.0233     0.8017     0.1446     1.3619     2.2734   231.3600     1.1305     0.5849
  725   14.480   4826.25     1.0331     0.0233     0.7972     0.1448     1.3646     2.2606   231.6800     1.1329     0.5690
  726   14.500   4827.22     1.0365     0.0233     0.7984     0.1450     1.3718     2.2597   232.0000     1.1398     0.5732
  727   14.520   4828.10     1.0405     0.0231     0.7902     0.1452     1.3765     2.2205   232.3200     1.1442     0.5724
  728   14.540   4829.14     1.0404     0.0231     0.7985     0.1454     1.3745     2.2255   232.6400     1.1419     0.5693
  729   14.560   4830.09     1.0331     0.0236     0.8046     0.1456     1.3724     2.2820   232.9600     1.1395     0.5814
  730   14.580   4831.04     1.0495     0.0245     0.7951     0.1458     1.3839     2.3478   233.2800     1.1506     0.5653
  731   14.600   4832.01     1.0488     0.0242     0.8078     0.1460     1.3866     2.3007   233.6000     1.1530     0.5710
  732   14.620   4832.94     1.0344     0.0240     0.8072     0.1462     1.3751     2.3187   233.9200     1.1412     0.5827
  733   14.640   4833.92     1.0488     0.0237     0.8009     0.1464     1.3834     2.2737   234.2400     1.1492     0.5659
  734   14.660   4834.90     1.0423     0.0237     0.8088     0.1466     1.3822     2.2551   234.5600     1.1476     0.5776
  735   14.680   4835.88     1.0347     0.0232     0.8226     0.1468     1.3785     2.2389   234.8800     1.1437     0.5874
  736   14.700   4836.86     1.0312     0.0237     0.8149     0.1470     1.3748     2.2993   235.2000     1.1396     0.5888
  737   14.720   4837.79     1.0326     0.0240     0.8191     0.1472     1.3753     2.3315   235.5200     1.1398     0.5868
  738   14.740   4838.72     1.0397     0.0243     0.8090     0.1474     1.3810     2.3427   235.8400     1.1451     0.5810
  739   14.760   4839.69     1.0447     0.0240     0.8184     0.1476     1.3875     2.2891   236.1600     1.1513     0.5807
  740   14.780   4840.69     1.0356     0.0238     0.8240     0.1478     1.3816     2.2911   236.4800     1.1451     0.5903
  741   14.800   4841.67     1.0234     0.0242     0.8195     0.1480     1.3675     2.3523   236.8000     1.1307     0.5937
  742   14.820   4842.61     1.0241     0.0242     0.8186     0.1482     1.3677     2.3697   237.1200     1.1306     0.5925
  743   14.840   4843.56     1.0218     0.0245     0.8318     0.1484     1.3706     2.3906   237.4400     1.1331     0.6019
  744   14.860   4844.54     1.0219     0.0245     0.8334     0.1486     1.3720     2.3899   237.7600     1.1342     0.6039
  745   14.880   4845.50     1.0282     0.0241     0.8469     0.1488     1.3824     2.3381   238.0800     1.1443     0.6070
  746   14.900   4846.49     1.0258     0.0207     0.8518     0.1490     1.3836     2.0149   238.4000     1.1452     0.6139
  747   14.920   4847.44     1.0186     0.0242     0.8533     0.1492     1.3761     2.3647   238.7200     1.1374     0.6171
  748   14.940   4848.39     1.0054     0.0249     0.8625     0.1494     1.3669     2.4558   239.0400     1.1279     0.6307
  749   14.960   4849.39     0.9946     0.0246     0.8679     0.1496     1.3580     2.4607   239.3600     1.1187     0.6399
  750   14.980   4850.37     0.9869     0.0231     0.8771     0.1498     1.3537     2.3460   239.6800     1.1141     0.6495
  751   15.000   4851.32     0.9868     0.0226     0.8648     0.1500     1.3556     2.2813   240.0000     1.1156     0.6526
  752   15.020   4855.61     0.8064     0.0221     0.8752     0.1502     1.1655     2.8064   240.3200     0.9252     0.7645
  753   15.040   4856.63     0.9754     0.0219     0.8869     0.1504     1.3483     2.2343   240.6400     1.1077     0.6659
  754   15.060   4857.62     0.9824     0.0212     0.8884     0.1506     1.3558     2.1759   240.9600     1.1149     0.6624
  755   15.080   4858.55     0.9981     0.0212     0.8628     0.1508     1.3665     2.1344   241.2800     1.1252     0.6455
  756   15.100   4859.55     0.9992     0.0221     0.8501     0.1510     1.3597     2.2196   241.6000     1.1181     0.6326
  757   15.120   4860.55     1.0025     0.0220     0.8416     0.1512     1.3536     2.1996   241.9200     1.1116     0.6159
  758   15.140   4861.51     0.9972     0.0221     0.8562     0.1514     1.3556     2.2185   242.2400     1.1133     0.6305
  759   15.160   4862.48     1.0078     0.0214     0.8617     0.1516     1.3696     2.1289   242.5600     1.1270     0.6298
  760   15.180   4863.44     1.0271     0.0218     0.8691     0.1518     1.3907     2.1334   242.8800     1.1479     0.6221
  761   15.200   4864.38     1.0228     0.0218     0.8801     0.1520     1.3902     2.1131   243.2000     1.1470     0.6302
  762   15.220   4865.33     1.0137     0.0214     0.8936     0.1522     1.3879     2.0972   243.5200     1.1444     0.6456
  763   15.240   4866.30     1.0092     0.0211     0.9043     0.1524     1.3879     2.0966   243.8400     1.1441     0.6549
  764   15.260   4867.30     1.0403     0.0217     0.9004     0.1526     1.4195     2.1014   244.1600     1.1753     0.6383
  765   15.280   4868.26     1.0596     0.0214     0.8950     0.1528     1.4351     2.0264   244.4800     1.1907     0.6226
  766   15.300   4869.19     1.0773     0.0208     0.8923     0.1530     1.4524     1.9437   244.8000     1.2076     0.6127
  767   15.320   4870.18     1.1054     0.0213     0.8596     0.1532     1.4720     1.9407   245.1200     1.2268     0.5866
  768   15.340   4871.17     1.0961     0.0215     0.8449     0.1534     1.4535     1.9576   245.4400     1.2080     0.5775
  769   15.360   4872.13     1.0913     0.0213     0.8453     0.1536     1.4418     1.9515   245.7600     1.1960     0.5693
  770   15.380   4873.08     1.0911     0.0215     0.8474     0.1538     1.4489     1.9790   246.0800     1.2028     0.5803
  771   15.400   4874.09     1.1056     0.0213     0.8093     0.1540     1.4553     1.9282   246.4000     1.2089     0.5613
  772   15.420   4875.04     1.0445     0.0205     0.8196     0.1542     1.3849     1.9336   246.7200     1.1382     0.5768
  773   15.440   4876.01     1.0243     0.0206     0.8359     0.1544     1.3744     1.9983   247.0400     1.1274     0.6025
  774   15.460   4876.96     1.0001     0.0203     0.8482     0.1546     1.3541     2.0241   247.3600     1.1067     0.6218
  775   15.480   4877.90     0.9973     0.0200     0.8544     0.1548     1.3562     2.0071   247.6800     1.1085     0.6313
  776   15.500   4878.90     0.9993     0.0201     0.8463     0.1550     1.3563     2.0050   248.0000     1.1083     0.6271
  777   15.520   4879.87     0.9934     0.0210     0.8337     0.1552     1.3449     2.1158   248.3200     1.0966     0.6217
  778   15.540   4880.86     0.9881     0.0216     0.8366     0.1554     1.3392     2.1819   248.6400     1.0905     0.6240
  779   15.560   4881.76     0.9813     0.0220     0.8326     0.1556     1.3315     2.2395   248.9600     1.0825     0.6264
  780   15.580   4882.74     0.9902     0.0224     0.8294     0.1558     1.3393     2.2796   249.2800     1.0900     0.6196
  781   15.600   4883.70     1.0089     0.0223     0.8343     0.1560     1.3584     2.2183   249.6000     1.1088     0.6099
  782   15.620   4884.72     1.0305     0.0231     0.8272     0.1562     1.3801     2.2477   249.9200     1.1302     0.5982
  783   15.640   4885.64     1.0293     0.0233     0.8299     0.1564     1.3772     2.2544   250.2400     1.1269     0.5962
  784   15.660   4886.63     1.0326     0.0234     0.8244     0.1566     1.3790     2.2692   250.5600     1.1284     0.5920
  785   15.680   4887.62     1.0264     0.0233     0.8158     0.1568     1.3714     2.2522   250.8800     1.1205     0.5932
  786   15.700   4888.57     1.0120     0.0233     0.8384     0.1570     1.3602     2.3047   251.2000     1.1090     0.6059
  787   15.720   4889.54     1.0292     0.0229     0.8559     0.1572     1.3867     2.2297   251.5200     1.1352     0.6113
  788   15.740   4890.50     1.0299     0.0230     0.8607     0.1574     1.3923     2.2312   251.8400     1.1405     0.6186
  789   15.760   4891.47     1.0361     0.0230     0.8595     0.1576     1.3968     2.2202   252.1600     1.1446     0.6126
  790   15.780   4892.44     1.0345     0.0237     0.8708     0.1578     1.3983     2.2848   252.4800     1.1458     0.6183
  791   15.800   4893.40     1.0391     0.0246     0.8621     0.1580     1.4036     2.3708   252.8000     1.1508     0.6168
  792   15.820   4894.37     1.0415     0.0249     0.8635     0.1582     1.4031     2.3925   253.1200     1.1500     0.6112
  793   15.840   4895.32     1.0454     0.0248     0.8689     0.1584     1.4087     2.3773   253.4400     1.1553     0.6116
  794   15.860   4896.29     1.0530     0.0240     0.8749     0.1586     1.4200     2.2876   253.7600     1.1662     0.6132
  795   15.880   4897.30     1.0767     0.0242     0.8756     0.1588     1.4440     2.2545   254.0800     1.1899     0.6015
  796   15.900   4898.26     1.0861     0.0267     0.8754     0.1590     1.4541     2.4568   254.4000     1.1997     0.5979
  797   15.920   4899.26     1.1033     0.0234     0.8961     0.1592     1.4769     2.1472   254.7200     1.2222     0.5977
  798   15.940   4900.21     1.2208     0.0157     0.8852     0.1594     1.5924     1.3238   255.0400     1.3374     0.5428
  799   15.960   4901.17     1.3767     0.0165     0.8664     0.1596     1.7488     1.2391   255.3600     1.4934     0.4867
  800   15.980   4902.16     1.5700     0.0183     0.8769     0.1598     1.9361     1.2346   255.6800     1.6805     0.4271
  801   16.000   4903.16     2.9003     0.0229     0.8810     0.1600     3.2779     0.9354   256.0000     3.0219     0.2474
  802   16.020   4904.16     4.8768     0.0305     0.4630     0.1602     5.1638     0.7028   256.3200     4.9075     0.1072
  803   16.040   4905.16     5.1676     0.0359     0.2259     0.1604     5.2645     0.6811   256.6400     5.0079     0.0141
  804   16.060   4906.07     4.1927     0.0344     0.2451     0.1606     4.2927     0.7626   256.9600     4.0357     0.0192
  805   16.080   4906.99     3.1495     0.0295     0.2719     0.1608     3.2583     0.8699   257.2800     3.0010     0.0329
  806   16.100   4907.98     2.3791     0.0264     0.3065     0.1610     2.5028     1.0376   257.6000     2.2452     0.0598
  807   16.120   4908.96     1.9794     0.0222     0.3547     0.1612     2.1226     1.0624   257.9200     1.8647     0.0967
  808   16.140   4909.92     1.5686     0.0192     0.3972     0.1614     1.7281     1.1338   258.2400     1.4699     0.1495
  809   16.160   4910.91     1.3408     0.0177     0.4603     0.1616     1.5247     1.2648   258.5600     1.2661     0.2186
  810   16.180   4911.86     1.1985     0.0182     0.5217     0.1618     1.4090     1.4838   258.8800     1.1501     0.2954
  811   16.200   4912.84     1.1504     0.0204     0.5718     0.1620     1.3835     1.7479   259.2000     1.1243     0.3496
  812   16.220   4913.79     1.1182     0.0215     0.6135     0.1622     1.3705     1.9036   259.5200     1.1110     0.3949
  813   16.240   4914.74     1.0720     0.0225     0.6535     0.1624     1.3402     2.0852   259.8400     1.0803     0.4407
  814   16.260   4915.72     1.0550     0.0227     0.6748     0.1626     1.3364     2.1485   260.1600     1.0762     0.4714
  815   16.280   4916.70     1.0472     0.0233     0.6940     0.1628     1.3359     2.2162   260.4800     1.0755     0.4879
  816   16.300   4917.68     1.0302     0.0241     0.7173     0.1630     1.3277     2.3072   260.8000     1.0669     0.5111
  817   16.320   4918.65     1.0147     0.0255     0.7389     0.1632     1.3221     2.4739   261.1200     1.0610     0.5359
  818   16.340   4919.65     1.0225     0.0262     0.7559     0.1634     1.3372     2.5593   261.4400     1.0758     0.5447
  819   16.360   4920.71     1.0198     0.0270     0.7756     0.1636     1.3424     2.6447   261.7600     1.0807     0.5594
  820   16.380   4923.27     1.0332     0.0276     0.7974     0.1638     1.3650     2.7065   262.0800     1.1029     0.5674
  821   16.400   4925.83     1.0466     0.0273     0.8197     0.1640     1.3875     2.6656   262.4000     1.1251     0.5755
  822   16.420   4928.03     1.0339     0.0270     0.8453     0.1642     1.3859     2.6248   262.7200     1.1232     0.5999
  823   16.440   4932.54     1.0454     0.0267     0.8661     0.1644     1.4062     2.5922   263.0400     1.1432     0.6073
  824   16.460   4937.04     1.0570     0.0263     0.8870     0.1646     1.4265     2.5481   263.3600     1.1631     0.6147
  825   16.480   4940.40     1.0628     0.0256     0.9072     0.1648     1.4420     2.4080   263.6800     1.1783     0.6264
  826   16.500   4944.93     1.0822     0.0252     0.9035     0.1650     1.4622     2.3721   264.0000     1.1982     0.6178
  827   16.520   4950.22     1.1071     0.0246     0.8998     0.1652     1.4856     2.3199   264.3200     1.2213     0.6030
  828   16.540   4954.76     1.1357     0.0252     0.8899     0.1654     1.5117     2.2523   264.6400     1.2470     0.5853
  829   16.560   4955.77     1.1654     0.0243     0.8744     0.1656     1.5352     2.1009   264.9600     1.2703     0.5629
  830   16.580   4956.72     1.1880     0.0232     0.8648     0.1658     1.5512     1.9666   265.2800     1.2859     0.5437
  831   16.600   4957.68     1.2240     0.0236     0.8519     0.1660     1.5847     1.9428   265.6000     1.3191     0.5252
  832   16.620   4958.65     1.2581     0.0248     0.8230     0.1662     1.6079     1.9853   265.9200     1.3420     0.4967
  833   16.640   4959.61     1.3017     0.0259     0.7962     0.1664     1.6404     2.0086   266.2400     1.3742     0.4658
  834   16.660   4960.58     1.3634     0.0259     0.7783     0.1666     1.6943     1.9345   266.5600     1.4277     0.4352
  835   16.680   4961.56     1.4600     0.0268     0.7442     0.1668     1.7779     1.8749   266.8800     1.5110     0.3905
  836   16.700   4962.53     1.4814     0.0272     0.7186     0.1670     1.7842     1.8393   267.2000     1.5170     0.3652
  837   16.720   4963.50     1.4783     0.0303     0.7169     0.1672     1.7793     2.0452   267.5200     1.5118     0.3635
  838   16.740   4964.47     1.5215     0.0344     0.7231     0.1674     1.8248     2.2824   267.8400     1.5570     0.3564
  839   16.760   4965.44     1.5838     0.0368     0.7121     0.1676     1.8863     2.3575   268.1600     1.6181     0.3415
  840   16.780   4966.47     1.7058     0.0431     0.6698     0.1678     1.9922     2.5961   268.4800     1.7237     0.2983
  841   16.800   4967.42     1.7862     0.0463     0.6374     0.1680     2.0575     2.6260   268.8000     1.7887     0.2673
  842   16.820   4968.37     1.8773     0.0519     0.6087     0.1682     2.1387     2.8164   269.1200     1.8696     0.2432
  843   16.840   4969.36     1.9641     0.0554     0.5758     0.1684     2.2101     2.8372   269.4400     1.9406     0.2151
  844   16.860   4970.30     1.9477     0.0519     0.5540     0.1686     2.1830     2.6421   269.7600     1.9132     0.2047
  845   16.880   4971.27     1.8847     0.0459     0.5642     0.1688     2.1190     2.4320   270.0800     1.8490     0.2105
  846   16.900   4972.26     1.9210     0.0423     0.5835     0.1690     2.1638     2.2326   270.4000     1.8934     0.2161
  847   16.920   4973.21     2.1032     0.0461     0.5920     0.1692     2.3515     2.2462   270.7200     2.0808     0.2031
  848   16.940   4974.20     2.3443     0.0440     0.5439     0.1694     2.5791     1.9087   271.0400     2.3081     0.1690
  849   16.960   4975.15     2.4217     0.0349     0.5201     0.1696     2.6439     1.4448   271.3600     2.3725     0.1515
  850   16.980   4976.16     2.4057     0.0274     0.5017     0.1698     2.6158     1.1414   271.6800     2.3441     0.1409
  851   17.000   4977.15     2.4724     0.0266     0.5223     0.1700     2.6889     1.0858   272.0000     2.4169     0.1429
  852   17.020   4978.13     2.4793     0.0262     0.4941     0.1702     2.6959     1.0540   272.3200     2.4236     0.1425
  853   17.040   4979.10     2.1665     0.0257     0.4604     0.1704     2.3602     1.1265   272.6400     2.0876     0.1395
  854   17.060   4980.06     1.7532     0.0259     0.5009     0.1706     1.9552     1.3739   272.9600     1.6822     0.1845
  855   17.080   4981.01     1.4467     0.0258     0.5753     0.1708     1.6768     1.6991   273.2800     1.4035     0.2690
  856   17.100   4981.94     1.4320     0.0239     0.6363     0.1710     1.6933     1.6976   273.6000     1.4197     0.3177
  857   17.120   4982.92     1.4436     0.0228     0.6636     0.1712     1.7190     1.5720   273.9200     1.4451     0.3352
  858   17.140   4983.90     1.4323     0.0205     0.6830     0.1714     1.7171     1.4315   274.2400     1.4428     0.3511
  859   17.160   4984.88     1.4629     0.0222     0.6860     0.1716     1.7510     1.5188   274.5600     1.4764     0.3484
  860   17.180   4985.84     1.4685     0.0224     0.6819     0.1718     1.7559     1.5269   274.8800     1.4810     0.3461
  861   17.200   4986.84     1.3639     0.0213     0.6909     0.1720     1.6506     1.5390   275.2000     1.3754     0.3715
  862   17.220   4987.80     1.2954     0.0222     0.7050     0.1722     1.5905     1.7036   275.5200     1.3150     0.4034
  863   17.240   4988.77     1.2792     0.0229     0.7013     0.1724     1.5744     1.7734   275.8400     1.2986     0.4086
  864   17.260   4989.75     1.1901     0.0228     0.7182     0.1726     1.4895     1.8840   276.1600     1.2133     0.4453
  865   17.280   4990.72     1.1558     0.0216     0.7386     0.1728     1.4636     1.8599   276.4800     1.1871     0.4717
  866   17.300   4991.71     1.1188     0.0230     0.7607     0.1730     1.4347     2.0313   276.8000     1.1579     0.5003
  867   17.320   4992.62     1.1078     0.0264     0.7813     0.1732     1.4329     2.3929   277.1200     1.1557     0.5198
  868   17.340   4993.62     1.1675     0.0278     0.7951     0.1734     1.4992     2.4197   277.4400     1.2218     0.5046
  869   17.360   4994.62     1.4002     0.0309     0.7806     0.1736     1.7381     2.3112   277.7600     1.4604     0.4329
  870   17.380   4995.58     1.8246     0.0389     0.5888     0.1738     2.1028     2.1986   278.0800     1.8247     0.2679
  871   17.400   4996.58     1.9286     0.0449     0.5667     0.1740     2.1576     2.3423   278.4000     1.8792     0.1975
  872   17.420   4997.54     1.9892     0.0430     0.6284     0.1742     2.2444     2.2078   278.7200     1.9656     0.2204
  873   17.440   4998.52     2.2366     0.0384     0.6545     0.1744     2.5132     1.7715   279.0400     2.2342     0.2168
  874   17.460   4999.56     2.6988     0.0343     0.5857     0.1746     2.9595     1.3721   279.3600     2.6801     0.1665
  875   17.480   5000.51     3.1377     0.0307     0.4408     0.1748     3.3437     1.0160   279.6800     3.0640     0.1032
  876   17.500   5001.49     3.3627     0.0375     0.3366     0.1750     3.5122     1.1248   280.0000     3.2322     0.0560
  877   17.520   5002.46     3.2975     0.0466     0.3479     0.1752     3.4394     1.3927   280.3200     3.1591     0.0515
  878   17.540   5003.45     2.9280     0.0461     0.3989     0.1754     3.0875     1.5323   280.6400     2.8069     0.0730
  879   17.560   5004.39     2.5880     0.0401     0.4565     0.1756     2.7698     1.5186   280.9600     2.4889     0.1036
  880   17.580   5005.35     2.5589     0.0357     0.5460     0.1758     2.7766     1.4111   281.2800     2.4954     0.1371
  881   17.600   5006.34     3.2273     0.0329     0.5629     0.1760     3.4639     1.0622   281.6000     3.1823     0.1221
  882   17.620   5007.33     4.1783     0.0330     0.4679     0.1762     4.3896     0.8202   281.9200     4.1076     0.0803
  883   17.640   5008.32     5.1588     0.0384     0.4038     0.1764     5.3391     0.7581   282.2400     5.0568     0.0503
  884   17.660   5009.33     5.8607     0.0445     0.3774     0.1766     6.0219     0.7646   282.5600     5.7394     0.0361
  885   17.680   5010.35     6.2146     0.0457     0.3750     0.1768     6.3710     0.7374   282.8800     6.0881     0.0321
  886   17.700   5011.31     6.5209     0.0502     0.3842     0.1770     6.6811     0.7739   283.2000     6.3979     0.0320
  887   17.720   5012.31     7.1810     0.0548     0.3973     0.1772     7.3492     0.7758   283.5200     7.0657     0.0316
  888   17.740   5013.31     8.5784     0.0510     0.3029     0.1774     8.7249     0.6224   283.8400     8.4411     0.0206
  889   17.760   5014.34    10.7316     0.0442     0.1882     0.1776    10.8251     0.4323   284.1600    10.5410     0.0044
  890   17.780   5015.39    12.8295     0.0440     0.0808     0.1778    12.8781     0.3652   284.4800    12.5936    -0.0049
  891   17.800   5016.36    15.4305     0.0601    -0.0109     0.1780    15.4366     0.4195   284.8000    15.1518    -0.0107
  892   17.820   5017.33    17.7070     0.0693    -0.0353     0.1782    17.6954     0.4074   285.1200    17.4103    -0.0118
  893   17.840   5018.25    19.1570     0.0727    -0.0468     0.1784    19.1411     0.3908   285.4400    18.8557    -0.0115
  894   17.860   5019.23    20.3125     0.0851    -0.0363     0.1786    20.2937     0.4266   285.7600    20.0080    -0.0112
  895   17.880   5020.14    21.3121     0.0985     0.0103     0.1788    21.3085     0.4712   286.0800    21.0224    -0.0089
  896   17.900   5021.11    23.0282     0.1141     0.0331     0.1790    23.0386     0.5118   286.4000    22.7522    -0.0068
  897   17.920   5022.07    24.9976     0.1334     0.0384     0.1792    25.0131     0.5500   286.7200    24.7264    -0.0058
  898   17.940   5023.01    26.5074     0.1456     0.0379     0.1794    26.5216     0.5622   287.0400    26.2346    -0.0055
  899   17.960   5023.98    27.3847     0.1502     0.0497     0.1796    27.4032     0.5544   287.3600    27.1159    -0.0050
  900   17.980   5024.93    27.8084     0.1485     0.0577     0.1798    27.8315     0.5359   287.6800    27.5438    -0.0045
  901   18.000   5025.87    27.8076     0.1495     0.0761     0.1800    27.8370     0.5369   288.0000    27.5490    -0.0040
  902   18.020   5026.82    27.7887     0.1505     0.1037     0.1802    27.8275     0.5418   288.3200    27.5391    -0.0032
  903   18.040   5027.72    28.0083     0.1441     0.1337     0.1804    28.0591     0.5165   288.6400    27.7704    -0.0021
  904   18.060   5028.66    27.8794     0.1369     0.1561     0.1806    27.9434     0.4905   288.9600    27.6544    -0.0010
  905   18.080   5029.57    27.5437     0.1313     0.1598     0.1808    27.6103     0.4765   289.2800    27.3210    -0.0008
  906   18.100   5030.51    26.9862     0.1302     0.1644     0.1810    27.0538     0.4815   289.6000    26.7642    -0.0008
  907   18.120   5031.43    26.5241     0.1352     0.1242     0.1812    26.5842     0.5094   289.9200    26.2943    -0.0014
  908   18.140   5032.35    25.8120     0.1356     0.1078     0.1814    25.8565     0.5244   290.2400    25.5662    -0.0030
  909   18.160   5033.26    24.8138     0.1369     0.1471     0.1816    24.8690     0.5469   290.5600    24.5785    -0.0020
  910   18.180   5034.19    23.8327     0.1455     0.1578     0.1818    23.8964     0.6070   290.8800    23.6055    -0.0013
  911   18.200   5035.10    22.9276     0.1568     0.1800     0.1820    22.9998     0.6708   291.2000    22.7086    -0.0005
  912   18.220   5036.02    22.3388     0.1670     0.1774     0.1822    22.4152     0.7390   291.5200    22.1236     0.0000
  913   18.240   5036.97    21.9154     0.1762     0.1751     0.1824    21.9897     0.8014   291.8400    21.6979    -0.0002
  914   18.260   5037.88    21.6537     0.1770     0.1764     0.1826    21.7284     0.8136   292.1600    21.4363    -0.0002
  915   18.280   5038.81    21.5270     0.1837     0.1592     0.1828    21.5947     0.8508   292.4800    21.3022    -0.0010
  916   18.300   5039.74    21.4836     0.1919     0.1400     0.1830    21.5433     0.8930   292.8000    21.2505    -0.0019
  917   18.320   5040.69    21.4078     0.2000     0.1453     0.1832    21.4691     0.9335   293.1200    21.1759    -0.0018
  918   18.340   5041.61    21.2956     0.2121     0.1228     0.1834    21.3484     0.9930   293.4400    21.0549    -0.0027
  919   18.360   5042.53    21.1664     0.2152     0.1211     0.1836    21.2155     1.0144   293.7600    20.9217    -0.0032
  920   18.380   5048.37    21.3752     0.2190     0.1362     0.1838    21.4302     1.0352   294.0800    21.1361    -0.0025
  921   18.400   5060.89    21.8857     0.2139     0.1516     0.1840    21.9471     1.0109   294.4000    21.6527    -0.0018
  922   18.420   5070.78    22.5212     0.2047     0.1782     0.1842    22.5913     0.9205   294.7200    22.2966    -0.0008
  923   18.440   5071.73    23.9586     0.2019     0.1614     0.1844    24.0260     0.8556   295.0400    23.7309    -0.0010
  924   18.460   5072.68    25.7497     0.2096     0.1255     0.1846    25.8065     0.8271   295.3600    25.5112    -0.0019
  925   18.480   5073.69    28.0679     0.2233     0.0542     0.1848    28.1047     0.8175   295.6800    27.8091    -0.0035
  926   18.500   5074.68    30.7622     0.2481     0.0009     0.1850    30.7670     0.8297   296.0000    30.4710    -0.0057
  927   18.520   5075.66    32.7378     0.2695     0.0136     0.1852    32.7391     0.8390   296.3200    32.4428    -0.0056
  928   18.540   5076.63    33.6518     0.2939     0.0341     0.1854    33.6654     0.8818   296.6400    33.3687    -0.0046
  929   18.560   5077.61    33.9815     0.3112     0.0398     0.1856    33.9949     0.9187   296.9600    33.6979    -0.0046
  930   18.580   5078.51    33.6677     0.3184     0.0410     0.1858    33.6873     0.9405   297.2800    33.3901    -0.0042
  931   18.600   5079.45    33.0411     0.3227     0.0491     0.1860    33.0583     0.9705   297.6000    32.7607    -0.0044
  932   18.620   5080.43    32.8159     0.3229     0.0655     0.1862    32.8407     0.9825   297.9200    32.5427    -0.0039
  933   18.640   5081.36    32.5953     0.3184     0.1013     0.1864    32.6325     0.9754   298.2400    32.3343    -0.0030
  934   18.660   5082.34    32.7241     0.3155     0.1230     0.1866    32.7720     0.9666   298.5600    32.4734    -0.0022
  935   18.680   5083.29    33.3080     0.3146     0.1354     0.1868    33.3646     0.9524   298.8800    33.0657    -0.0016
  936   18.700   5084.25    33.9796     0.3129     0.1584     0.1870    34.0418     0.9279   299.2000    33.7426    -0.0012
  937   18.720   5085.21    34.2235     0.3187     0.1706     0.1872    34.2916     0.9317   299.5200    33.9921    -0.0007
  938   18.740   5086.18    34.1119     0.3232     0.1803     0.1874    34.1860     0.9451   299.8400    33.8862    -0.0003
  939   18.760   5087.09    33.7923     0.3224     0.1768     0.1876    33.8688     0.9512   300.1600    33.5686    -0.0002
  940   18.780   5088.05    33.1346     0.3187     0.1898     0.1878    33.2121     0.9547   300.4800    32.9117    -0.0001
  941   18.800   5088.99    32.7437     0.3120     0.1912     0.1880    32.8249     0.9516   300.8000    32.5241     0.0002
  942   18.820   5089.94    32.8802     0.3063     0.1860     0.1882    32.9581     0.9348   301.1200    32.6569    -0.0001
  943   18.840   5090.91    33.8111     0.3044     0.1885     0.1884    33.8904     0.9076   301.4400    33.5890     0.0000
  944   18.860   5091.89    34.5885     0.3091     0.1851     0.1886    34.6672     0.8978   301.7600    34.3655     0.0000
  945   18.880   5092.89    34.9232     0.3205     0.1587     0.1888    34.9951     0.9177   302.0800    34.6930    -0.0005
  946   18.900   5093.85    35.2091     0.3317     0.1423     0.1890    35.2691     0.9451   302.4000    34.9667    -0.0013
  947   18.920   5094.80    35.8848     0.3383     0.1606     0.1892    35.9472     0.9457   302.7200    35.6445    -0.0011
  948   18.940   5095.81    36.6438     0.3509     0.1653     0.1894    36.7113     0.9603   303.0400    36.4083    -0.0008
  949   18.960   5096.78    37.1092     0.3640     0.1688     0.1896    37.1796     0.9833   303.3600    36.8762    -0.0006
  950   18.980   5097.78    37.5121     0.3780     0.1896     0.1898    37.5891     1.0099   303.6800    37.2855    -0.0002
  951   19.000   5098.78    38.0866     0.3822     0.1913     0.1900    38.1655     1.0057   304.0000    37.8615    -0.0001
  952   19.020   5099.77    38.5045     0.3777     0.1811     0.1902    38.5822     0.9838   304.3200    38.2778    -0.0001
  953   19.040   5100.74    38.6391     0.3594     0.1916     0.1904    38.7205     0.9294   304.6400    38.4159     0.0001
  954   19.060   5101.72    38.4654     0.3345     0.1714     0.1906    38.5394     0.8694   304.9600    38.2344    -0.0004
  955   19.080   5102.68    38.4377     0.3040     0.1574     0.1908    38.5062     0.7914   305.2800    38.2010    -0.0007
  956   19.100   5103.69    38.8328     0.2910     0.1682     0.1910    38.8995     0.7515   305.6000    38.5939    -0.0008
  957   19.120   5104.70    39.8246     0.2853     0.1649     0.1912    39.8965     0.7209   305.9200    39.5906    -0.0005
  958   19.140   5105.70    40.7851     0.2799     0.1573     0.1914    40.8552     0.6902   306.2400    40.5490    -0.0006
  959   19.160   5106.64    41.3479     0.2754     0.1582     0.1916    41.4155     0.6687   306.5600    41.1090    -0.0007
  960   19.180   5107.61    41.5899     0.2701     0.1677     0.1918    41.6571     0.6492   306.8800    41.3502    -0.0008
  961   19.200   5108.61    41.1106     0.2627     0.1722     0.1920    41.1818     0.6358   307.2000    40.8746    -0.0006
  962   19.220   5109.57    40.7356     0.2548     0.1785     0.1922    40.8084     0.6235   307.5200    40.5008    -0.0005
  963   19.240   5110.53    40.4994     0.2404     0.1679     0.1924    40.5697     0.5918   307.8400    40.2619    -0.0006
  964   19.260   5111.49    39.8401     0.2228     0.1721     0.1926    39.9136     0.5543   308.1600    39.6054    -0.0004
  965   19.280   5112.44    38.5356     0.2147     0.1653     0.1928    38.6066     0.5472   308.4800    38.2981    -0.0006
  966   19.300   5113.39    37.0284     0.2102     0.1569     0.1930    37.0946     0.5631   308.8000    36.7858    -0.0010
  967   19.320   5114.33    35.3482     0.1909     0.1583     0.1932    35.4145     0.5366   309.1200    35.1054    -0.0010
  968   19.340   5115.28    33.2706     0.1682     0.1597     0.1934    33.3379     0.5001   309.4400    33.0285    -0.0010
  969   19.360   5116.19    31.0554     0.1395     0.1569     0.1936    31.1224     0.4409   309.7600    30.8126    -0.0011
  970   19.380   5117.09    28.4625     0.1108     0.1558     0.1938    28.5255     0.3823   310.0800    28.2154    -0.0015
  971   19.400   5118.05    25.2583     0.0864     0.1593     0.1940    25.3266     0.3328   310.4000    25.0162    -0.0013
  972   19.420   5118.92    23.9022     0.0650     0.1571     0.1942    23.9689     0.2682   310.7200    23.6582    -0.0015
  973   19.440   5119.79    22.2378     0.0560     0.1553     0.1944    22.3008     0.2488   311.0400    21.9898    -0.0020
  974   19.460   5120.68    20.2046     0.0520     0.1619     0.1946    20.2739     0.2536   311.3600    19.9625    -0.0015
  975   19.480   5121.59    17.8302     0.0548     0.1693     0.1948    17.9016     0.3034   311.6800    17.5899    -0.0014
  976   19.500   5122.45    16.2629     0.0623     0.1642     0.1950    16.3330     0.3810   312.0000    16.0210    -0.0018
  977   19.520   5123.35    15.0694     0.0699     0.1703     0.1952    15.1389     0.4526   312.3200    14.8266    -0.0020
  978   19.540   5124.27    14.5309     0.0710     0.1754     0.1954    14.6045     0.4891   312.6400    14.2918    -0.0014
  979   19.560   5125.17    15.0644     0.0657     0.1852     0.1956    15.1418     0.4389   312.9600    14.8288    -0.0008
  980   19.580   5126.10    15.8963     0.0621     0.1970     0.1958    15.9784     0.3920   313.2800    15.6651     0.0000
  981   19.600   5127.06    16.6887     0.0575     0.1947     0.1960    16.7722     0.3467   313.6000    16.4586     0.0002
  982   19.620   5127.98    16.9413     0.0494     0.1909     0.1962    17.0223     0.2926   313.9200    16.7084    -0.0002
  983   19.640   5128.86    16.8122     0.0380     0.1672     0.1964    16.8861     0.2251   314.2400    16.5719    -0.0012
  984   19.660   5129.76    15.2485     0.0351     0.1742     0.1966    15.3209     0.2226   314.5600    15.0064    -0.0016
  985   19.680   5130.68    13.3963     0.0319     0.1845     0.1968    13.4736     0.2346   314.8800    13.1588    -0.0010
  986   19.700   5131.53    12.7463     0.0305     0.1825     0.1970    12.8232     0.2374   315.2000    12.5080    -0.0011
  987   19.720   5132.43    11.5331     0.0314     0.1857     0.1972    11.6106     0.2686   315.5200    11.2951    -0.0011
  988   19.740   5133.36    10.2793     0.0359     0.1842     0.1974    10.3569     0.3287   315.8400    10.0411    -0.0013
  989   19.760   5134.25     9.0131     0.0400     0.1874     0.1976     9.0916     0.4190   316.1600     8.7754    -0.0012
  990   19.780   5135.13     7.9085     0.0401     0.1937     0.1978     7.9909     0.4883   316.4800     7.6744    -0.0002
  991   19.800   5136.04     6.9882     0.0387     0.1969     0.1980     7.0705     0.5392   316.8000     6.7537    -0.0003
  992   19.820   5136.96     6.1688     0.0360     0.1995     0.1982     6.2520     0.5691   317.1200     5.9349     0.0000
  993   19.840   5138.01     5.5910     0.0328     0.2017     0.1984     5.6757     0.5722   317.4400     5.3582     0.0006
  994   19.860   5138.97     5.3741     0.0310     0.2003     0.1986     5.4584     0.5696   317.7600     5.1407     0.0004
  995   19.880   5139.97     5.1844     0.0333     0.2014     0.1988     5.2684     0.6359   318.0800     4.9503     0.0002
  996   19.900   5140.95     5.0266     0.0328     0.2018     0.1990     5.1117     0.6483   318.4000     4.7933     0.0008
  997   19.920   5141.91     4.9262     0.0363     0.2003     0.1992     5.0102     0.7359   318.7200     4.6915     0.0002
  998   19.940   5142.88     4.8900     0.0411     0.2000     0.1994     4.9741     0.8391   319.0400     4.6550     0.0002
  999   19.960   5143.82     4.8578     0.0421     0.2009     0.1996     4.9424     0.8656   319.3600     4.6231     0.0004
 1000   19.980   5144.85     4.8672     0.0392     0.1969     0.1998     4.9502     0.8075   319.6800     4.6306    -0.0005
 1001   20.000   5145.80     5.0168     0.0318     0.2031     0.2000     5.1004     0.6395   320.0000     4.7804    -0.0002
 1002   20.020   5146.80     5.5713     0.0334     0.1965     0.2002     5.6555     0.6152   320.3200     5.3352     0.0001
 1003   20.040   5147.81     6.3964     0.0394     0.1833     0.2004     6.4743     0.6328   320.6400     6.1536    -0.0024
 1004   20.060   5148.84     7.3827     0.0437     0.1557     0.2006     7.4532     0.6108   320.9600     7.1323    -0.0046
 1005   20.080   5149.79     8.1152     0.0419     0.1176     0.2008     8.1698     0.5253   321.2800     7.8486    -0.0090
 1006   20.100   5150.74     8.4711     0.0460     0.1098     0.2010     8.5185     0.5439   321.6000     8.1969    -0.0107
 1007   20.120   5151.70     8.5012     0.0483     0.1054     0.2012     8.5464     0.5668   321.9200     8.2245    -0.0114
 1008   20.140   5152.72     8.2814     0.0534     0.1055     0.2014     8.3252     0.6429   322.2400     8.0030    -0.0121
 1009   20.160   5153.75     8.1123     0.0574     0.1092     0.2016     8.1570     0.7062   322.5600     7.8344    -0.0121
 1010   20.180   5154.71     8.1766                0.1236     0.2018     8.2263              322.8800     7.9034    -0.0106
 1011   20.200   5155.71     8.5937                0.1404     0.2020     8.6506              323.2000     8.3274    -0.0080
 1012   20.220   5156.67     9.1865                0.1548     0.2022     9.2492              323.5200     8.9257    -0.0059
 1013   20.240   5157.67     9.8395                0.1798     0.2024     9.9109              323.8400     9.5871    -0.0034
 1014   20.260   5158.67    10.3544                0.1926     0.2026    10.4339              324.1600    10.1098    -0.0013
 1015   20.280   5160.09    10.8960                           0.2028    10.9741              324.4745    10.6497    -0.0016
 
 
