

 Program UNIPLOT                         version 05.36.02
 _______________
 (c) Fugro Netherlands Marine, Nootdorp, The Netherlands


 ASCII representation of data plotted on a graph.

 This ASCII file presents data interpolated to values per fixed depth interval.
 The data are corrected for the depth-offset differences between the various 
 transducers in the penetrometer.

 The records at the start of penetration may include no values or anomalous
 values where a depth offset implies incomplete penetration of a particular
 sensor into the ground.

 The records at the end of penetration may include no values for data channels
 where the transducer did not reach this depth.

 The reference level for test values is (1) the ground surface for onshore tests and (2) the seafloor for nearshore and offshore tests.

 UNICAS data file          : CPT-1020.000                            
 Output using command file : PlotASCII.cmd

 ASCII file created at : date          :21-May-2022
                         time          :11:56:42
 Project number                        :20024805                                                                                            
 Date of testing                       :20-May-2022                                                                                         
 Location                              :Hong Kong Offshore Wind Farm Project                                                                
 Test name                             :CPT-1020
 Penetrometer                          :F7.5CKE2HAW2/B/3285
 Serial no                             :1701-3285

 Table description:
 Column ID                             :Parameter name
 ___________________________________________________________________________________
 Rec                                   :Record ID, Record ID [-]
 Depth                                 :Depth, Depth [m]
 Time                                  :Time, Time [s]
 Cone                                  :Cone Resistance, Cone Resistance [MPa]
 Friction                              :Sleeve Friction, Sleeve Friction [MPa]
 Pore 2                                :Porewater Pressure, Porewater Pressure at Shoulder [MPa]
 HydroPress                            :Hydrostatic Pressure, Hydrostatic Pressure [MPa]
 qt                                    :Total Cone Resistance, Total Cone Resistance [MPa]
 Fric_ratio                            :Friction Ratio, Friction Ratio [%]
 SigmaVert                             :Vertical stress, Vertical stress [kPa] as specified in ground model
 Qnet                                  :Net Cone Resistance, Net Cone Resistance [MPa], unit weight as specified in ground model
 Bq                                    :Porewater Pressure Ratio, Porewater Pressure Ratio [-], unit weight as specified in ground model


 Data table:
  Rec    Depth      Time       Cone   Friction     Pore 2 HydroPress         qt Fric_ratio  SigmaVert       Qnet         Bq
   No        m         s        MPa        MPa        MPa        MPa        MPa          %        kPa        MPa          -
    1    0.000   4521.69     0.0000                           0.0000     0.0000                0.0000     0.0000           
    2    0.020   4522.66     0.0015                0.0003     0.0002     0.0016                0.3200     0.0013    -0.0766
    3    0.040   4523.66     0.0038                0.0006     0.0004     0.0040                0.6400     0.0034     0.0007
    4    0.060   4524.62     0.0007     0.0005     0.0006     0.0006     0.0010   100.6455     0.9600     0.0001           
    5    0.080   4525.65     0.0051     0.0004     0.0008     0.0008     0.0054    63.4897     1.2800     0.0042     0.0206
    6    0.100   4526.65     0.0043     0.0004     0.0008     0.0010     0.0046     9.0764     1.6000     0.0030    -0.0801
    7    0.120   4527.60     0.0034     0.0003     0.0006     0.0012     0.0037    19.5941     1.9200     0.0018           
    8    0.140   4528.61     0.0039     0.0005     0.0003     0.0014     0.0042    15.6117     2.2400     0.0019    -0.4040
    9    0.160   4529.56     0.0077     0.0007     0.0004     0.0016     0.0078    11.6292     2.5600     0.0052    -0.2787
   10    0.180   4530.57     0.0075     0.0010     0.0007     0.0018     0.0079    12.7145     2.8800     0.0050    -0.1886
   11    0.200   4531.54     0.0101     0.0011     0.0000     0.0020     0.0102    10.6830     3.2000     0.0070    -0.2514
   12    0.220   4532.53     0.0137     0.0011    -0.0003     0.0022     0.0136     9.5592     3.5200     0.0101    -0.2422
   13    0.240   4535.98     0.0134     0.0011    -0.0006     0.0024     0.0132     8.3913     3.8400     0.0093    -0.3453
   14    0.260   4539.93     0.0123     0.0011    -0.0009     0.0026     0.0120     7.8025     4.1600     0.0078    -0.4747
   15    0.280   4543.33     0.0116     0.0013    -0.0007     0.0028     0.0112     9.7889     4.4800     0.0067    -0.5527
   16    0.300   4544.31     0.0104     0.0014    -0.0007     0.0030     0.0102    11.9380     4.8000     0.0054    -0.6737
   17    0.320   4555.81     0.0087     0.0014    -0.0001     0.0032     0.0085    14.5113     5.1200     0.0034     0.5100
   18    0.340   4574.76     0.0069     0.0015     0.0005     0.0034     0.0071    15.5350     5.4400     0.0016     2.8132
   19    0.360   4593.72     0.0052     0.0013     0.0018     0.0036     0.0056    16.1296     5.7600    -0.0002     5.1163
   20    0.380   4597.54     0.0039     0.0013     0.0026     0.0038     0.0050    24.9421     6.0800    -0.0011     0.2842
   21    0.400   4598.49     0.0054     0.0013     0.0041     0.0040     0.0069    21.7142     6.4000     0.0005    -1.0237
   22    0.420   4599.47     0.0055     0.0012     0.0058     0.0042     0.0076    27.9644     6.7200     0.0009     0.1393
   23    0.440   4600.42     0.0060     0.0009     0.0067     0.0044     0.0087    13.4906     7.0400     0.0017     1.4983
   24    0.460   4601.40     0.0093     0.0012     0.0063     0.0046     0.0119    15.6144     7.3600     0.0046     0.4093
   25    0.480   4602.36     0.0091     0.0014     0.0047     0.0048     0.0111    15.9286     7.6800     0.0034    -0.0125
   26    0.500   4603.35     0.0112     0.0015     0.0044     0.0050     0.0132    12.1939     8.0000     0.0052    -0.0709
   27    0.520   4604.36     0.0109     0.0014     0.0028     0.0052     0.0119    12.9229     8.3200     0.0036    -0.7772
   28    0.540   4605.32     0.0143     0.0015     0.0043     0.0054     0.0158    11.2413     8.6400     0.0072    -0.2708
   29    0.560   4606.32     0.0164     0.0018     0.0050     0.0056     0.0182    11.3117     8.9600     0.0092    -0.1337
   30    0.580   4607.26     0.0172     0.0017     0.0037     0.0058     0.0196     9.7411     9.2800     0.0103    -0.0507
   31    0.600   4608.26     0.0168     0.0021     0.0060     0.0060     0.0191    13.0493     9.6000     0.0095    -0.0542
   32    0.620   4609.24     0.0152     0.0021     0.0053     0.0062     0.0176    14.5475     9.9200     0.0076    -0.0860
   33    0.640   4610.23     0.0117     0.0020     0.0050     0.0064     0.0140    16.5074    10.2400     0.0038    -0.2510
   34    0.660   4611.19     0.0120     0.0020     0.0052     0.0066     0.0144    14.8093    10.5600     0.0039    -0.2305
   35    0.680   4612.17     0.0133     0.0020     0.0074     0.0068     0.0158    14.2723    10.8800     0.0050    -0.1409
   36    0.700   4613.13     0.0112     0.0020     0.0088     0.0070     0.0148    14.1864    11.2000     0.0036     0.4756
   37    0.720   4614.09     0.0121     0.0017     0.0097     0.0072     0.0161    13.9512    11.5200     0.0046     0.4874
   38    0.740   4615.05     0.0148     0.0016     0.0102     0.0074     0.0190    11.4209    11.8400     0.0071     0.3506
   39    0.760   4616.03     0.0140     0.0017     0.0112     0.0076     0.0186    12.4837    12.1600     0.0065     0.5359
   40    0.780   4616.96     0.0166     0.0018     0.0107     0.0078     0.0211    10.3277    12.4800     0.0087     0.3534
   41    0.800   4617.94     0.0126     0.0014     0.0103     0.0080     0.0170    12.6534    12.8000     0.0042     0.6578
   42    0.820   4618.94     0.0120     0.0015     0.0091     0.0082     0.0159    13.5176    13.1200     0.0028     0.4424
   43    0.840   4619.91     0.0145     0.0016     0.0095     0.0084     0.0184    11.0432    13.4400     0.0049     0.1707
   44    0.860   4620.87     0.0120     0.0016     0.0102     0.0086     0.0162    13.2979    13.7600     0.0024     0.6245
   45    0.880   4621.85     0.0111     0.0017     0.0087     0.0088     0.0150    13.4927    14.0800     0.0009     0.2414
   46    0.900   4622.81     0.0097     0.0013     0.0088     0.0090     0.0134    15.1551    14.4000    -0.0010     0.0348
   47    0.920   4623.79     0.0075     0.0014     0.0100     0.0092     0.0115    17.1739    14.7200    -0.0032    -0.1283
   48    0.940   4624.75     0.0056     0.0015     0.0104     0.0094     0.0099    27.3655    15.0400    -0.0051    -0.1767
   49    0.960   4625.72     0.0069     0.0014     0.0120     0.0096     0.0115    21.0957    15.3600    -0.0038    -0.4007
   50    0.980   4626.68     0.0032     0.0014     0.0097     0.0098     0.0079    32.8350    15.6800    -0.0078    -0.1691
   51    1.000   4627.71     0.0076     0.0015     0.0096     0.0100     0.0116    21.6149    16.0000    -0.0044     0.1150
   52    1.020   4628.66     0.0060     0.0013     0.0117     0.0102     0.0106    22.2225    16.3200    -0.0057    -0.1463
   53    1.040   4629.67     0.0112     0.0015     0.0127     0.0104     0.0162    15.3133    16.6400    -0.0004    -6.3902
   54    1.060   4630.64     0.0118     0.0015     0.0138     0.0106     0.0175    11.7385    16.9600     0.0006     5.9916
   55    1.080   4631.59     0.0191     0.0017     0.0145     0.0108     0.0251     9.0030    17.2800     0.0078     0.4349
   56    1.100   4632.58     0.0221     0.0019     0.0139     0.0110     0.0281     8.6646    17.6000     0.0105     0.3135
   57    1.120   4633.58     0.0252     0.0020     0.0128     0.0112     0.0306     8.7309    17.9200     0.0127     0.1415
   58    1.140   4634.55     0.0227     0.0021     0.0142     0.0114     0.0285     9.2370    18.2400     0.0102     0.2253
   59    1.160   4635.51     0.0253     0.0020     0.0152     0.0116     0.0316     8.6249    18.5600     0.0130     0.2548
   60    1.180   4636.50     0.0258     0.0023     0.0170     0.0118     0.0326     9.0040    18.8800     0.0138     0.3298
   61    1.200   4637.42     0.0251     0.0023     0.0187     0.0120     0.0326     9.3031    19.2000     0.0134     0.4464
   62    1.220   4638.39     0.0231     0.0020     0.0178     0.0122     0.0308     8.4004    19.5200     0.0113     0.5563
   63    1.240   4639.39     0.0218     0.0020     0.0185     0.0124     0.0298     8.9185    19.8400     0.0099     0.6568
   64    1.260   4640.37     0.0193     0.0022     0.0181     0.0126     0.0268    11.7235    20.1600     0.0066     0.8127
   65    1.280   4641.37     0.0203     0.0020     0.0184     0.0128     0.0281     9.8008    20.4800     0.0076     0.7699
   66    1.300   4642.34     0.0171     0.0019     0.0193     0.0130     0.0250    10.4364    20.8000     0.0042     1.4096
   67    1.320   4643.29     0.0190     0.0020     0.0215     0.0132     0.0278    10.7422    21.1200     0.0066     1.1487
   68    1.340   4644.26     0.0171     0.0020     0.0228     0.0134     0.0265    11.8071    21.4400     0.0051     1.8616
   69    1.360   4645.21     0.0175     0.0021     0.0239     0.0136     0.0275    11.5041    21.7600     0.0057     1.7818
   70    1.380   4646.18     0.0225     0.0020     0.0247     0.0138     0.0328    10.1179    22.0800     0.0107     1.0119
   71    1.400   4647.16     0.0219     0.0019     0.0253     0.0140     0.0325     9.1556    22.4000     0.0101     1.1151
   72    1.420   4648.12     0.0175     0.0017     0.0256     0.0142     0.0282     9.4282    22.7200     0.0055     2.0726
   73    1.440   4649.14     0.0216     0.0017     0.0261     0.0144     0.0326     7.6927    23.0400     0.0096     1.2329
   74    1.460   4650.12     0.0238     0.0019     0.0272     0.0146     0.0351     8.3475    23.3600     0.0117     1.0500
   75    1.480   4651.10     0.0246     0.0021     0.0264     0.0148     0.0356     8.7620    23.6800     0.0120     0.9625
   76    1.500   4652.02     0.0294     0.0018     0.0280     0.0150     0.0410     6.3847    24.0000     0.0170     0.7503
   77    1.520   4653.02     0.0313     0.0019     0.0272     0.0152     0.0430     6.3342    24.3200     0.0187     0.6790
   78    1.540   4654.01     0.0357     0.0019     0.0250     0.0154     0.0467     5.4607    24.6400     0.0221     0.4869
   79    1.560   4655.03     0.0394     0.0023     0.0236     0.0156     0.0492     6.4244    24.9600     0.0242     0.3196
   80    1.580   4655.98     0.0400     0.0029     0.0249     0.0158     0.0506     7.2847    25.2800     0.0253     0.3669
   81    1.600   4656.97     0.0424     0.0029     0.0255     0.0160     0.0529     7.2006    25.6000     0.0273     0.3286
   82    1.620   4657.95     0.0447     0.0025     0.0239     0.0162     0.0550     5.6877    25.9200     0.0291     0.2865
   83    1.640   4658.92     0.0430     0.0028     0.0233     0.0164     0.0527     6.3912    26.2400     0.0265     0.2524
   84    1.660   4659.88     0.0425     0.0026     0.0281     0.0166     0.0536     5.9962    26.5600     0.0270     0.3649
   85    1.680   4660.88     0.0378     0.0027     0.0324     0.0168     0.0509     6.8133    26.8800     0.0241     0.6036
   86    1.700   4661.84     0.0362     0.0024     0.0323     0.0170     0.0501     6.9071    27.2000     0.0229     0.7096
   87    1.720   4662.79     0.0418     0.0023     0.0332     0.0172     0.0556     5.5335    27.5200     0.0281     0.5559
   88    1.740   4663.76     0.0421     0.0023     0.0341     0.0174     0.0563     5.4491    27.8400     0.0284     0.5727
   89    1.760   4664.75     0.0418     0.0025     0.0340     0.0176     0.0560     6.0101    28.1600     0.0279     0.5845
   90    1.780   4665.71     0.0456     0.0024     0.0330     0.0178     0.0593     5.2014    28.4800     0.0308     0.4802
   91    1.800   4666.66     0.0404     0.0026     0.0331     0.0180     0.0550     6.1869    28.8000     0.0262     0.6356
   92    1.820   4667.61     0.0451     0.0028     0.0338     0.0182     0.0588     6.0182    29.1200     0.0297     0.4831
   93    1.840   4668.63     0.0463     0.0027     0.0356     0.0184     0.0614     6.0362    29.4400     0.0319     0.5456
   94    1.860   4669.59     0.0461     0.0025     0.0385     0.0186     0.0620     5.2501    29.7600     0.0323     0.5975
   95    1.880   4670.59     0.0438     0.0021     0.0389     0.0188     0.0604     4.8691    30.0800     0.0304     0.6827
   96    1.900   4671.51     0.0489     0.0024     0.0392     0.0190     0.0649     4.8906    30.4000     0.0345     0.5569
   97    1.920   4672.49     0.0533     0.0031     0.0404     0.0192     0.0702     5.8878    30.7200     0.0395     0.5353
   98    1.940   4673.47     0.0608     0.0034     0.0417     0.0194     0.0784     5.5862    31.0400     0.0474     0.4729
   99    1.960   4674.44     0.0695     0.0035     0.0337     0.0196     0.0852     5.0910    31.3600     0.0539     0.3304
  100    1.980   4675.44     0.0694     0.0032     0.0269     0.0198     0.0812     4.5428    31.6800     0.0495     0.1653
  101    2.000   4676.39     0.0664     0.0036     0.0309     0.0200     0.0782     5.3600    32.0000     0.0462     0.1776
  102    2.020   4677.41     0.0629     0.0035     0.0373     0.0202     0.0779     5.2818    32.3200     0.0455     0.3400
  103    2.040   4678.32     0.0642     0.0029     0.0416     0.0204     0.0810     4.4735    32.6400     0.0483     0.4104
  104    2.060   4679.33     0.0562     0.0029     0.0442     0.0206     0.0746     5.0353    32.9600     0.0417     0.5573
  105    2.080   4680.33     0.0530     0.0027     0.0428     0.0208     0.0716     4.8278    33.2800     0.0383     0.6137
  106    2.100   4681.34     0.0508     0.0025     0.0435     0.0210     0.0690     4.6292    33.6000     0.0354     0.6276
  107    2.120   4682.27     0.0508     0.0023     0.0399     0.0212     0.0685     4.4307    33.9200     0.0346     0.6060
  108    2.140   4683.27     0.0488     0.0026     0.0375     0.0214     0.0647     5.3117    34.2400     0.0304     0.5398
  109    2.160   4684.20     0.0456     0.0027     0.0392     0.0216     0.0617     5.8560    34.5600     0.0272     0.6186
  110    2.180   4694.33     0.0464     0.0025     0.0394     0.0218     0.0629     5.3725    34.8800     0.0280     0.6290
  111    2.200   4711.38     0.0457     0.0023     0.0394     0.0220     0.0623     4.9244    35.2000     0.0271     0.6440
  112    2.220   4728.43     0.0451     0.0024     0.0394     0.0222     0.0617     5.0366    35.5200     0.0261     0.6589
  113    2.240   4736.31     0.0442     0.0025     0.0459     0.0224     0.0621     5.6834    35.8400     0.0262     0.7644
  114    2.260   4737.27     0.0472     0.0027     0.0503     0.0226     0.0679     5.8665    36.1600     0.0317     0.8387
  115    2.280   4738.28     0.0529     0.0027     0.0477     0.0228     0.0728     5.4917    36.4800     0.0363     0.6751
  116    2.300   4739.22     0.0532     0.0026     0.0481     0.0230     0.0729     4.8931    36.8000     0.0361     0.6606
  117    2.320   4740.22     0.0544     0.0023     0.0512     0.0232     0.0756     4.2614    37.1200     0.0384     0.7059
  118    2.340   4741.16     0.0572     0.0026     0.0551     0.0234     0.0798     4.5210    37.4400     0.0423     0.7153
  119    2.360   4742.10     0.0630     0.0023     0.0593     0.0236     0.0877     3.6233    37.7600     0.0499     0.7054
  120    2.380   4743.13     0.0648     0.0020     0.0612     0.0238     0.0903     3.1054    38.0800     0.0522     0.7050
  121    2.400   4744.11     0.0652     0.0021     0.0589     0.0240     0.0906     3.1660    38.4000     0.0522     0.6993
  122    2.420   4745.06     0.0637     0.0022     0.0501     0.0242     0.0850     3.6265    38.7200     0.0463     0.5748
  123    2.440   4746.04     0.0729     0.0028     0.0528     0.0244     0.0948     4.0016    39.0400     0.0557     0.4967
  124    2.460   4746.97     0.0850     0.0026     0.0485     0.0246     0.1062     3.2250    39.3600     0.0669     0.3909
  125    2.480   4747.96     0.0894     0.0031     0.0438     0.0248     0.1086     3.4675    39.6800     0.0689     0.3049
  126    2.500   4748.93     0.0838     0.0031     0.0382     0.0250     0.1009     3.5852    40.0000     0.0609     0.2564
  127    2.520   4749.91     0.0717     0.0030     0.0379     0.0252     0.0870     4.2394    40.3200     0.0467     0.2424
  128    2.540   4750.89     0.0764     0.0031     0.0412     0.0254     0.0933     4.0939    40.6400     0.0527     0.2835
  129    2.560   4751.89     0.0803     0.0034     0.0462     0.0256     0.0998     4.2385    40.9600     0.0588     0.3524
  130    2.580   4752.84     0.0779     0.0035     0.0432     0.0258     0.0959     4.5046    41.2800     0.0546     0.3127
  131    2.600   4753.83     0.0660     0.0032     0.0417     0.0260     0.0842     4.7240    41.6000     0.0426     0.4084
  132    2.620   4754.76     0.0700     0.0035     0.0393     0.0262     0.0857     5.0706    41.9200     0.0438     0.2553
  133    2.640   4755.76     0.0771     0.0038     0.0417     0.0264     0.0950     5.1152    42.2400     0.0527     0.3088
  134    2.660   4756.73     0.0879     0.0038     0.0476     0.0266     0.1068     4.4534    42.5600     0.0643     0.2849
  135    2.680   4757.72     0.0875     0.0039     0.0570     0.0268     0.1099     4.4722    42.8800     0.0670     0.3963
  136    2.700   4758.67     0.0916     0.0036     0.0581     0.0270     0.1157     3.9784    43.2000     0.0725     0.4174
  137    2.720   4759.67     0.0954     0.0033     0.0620     0.0272     0.1208     3.5035    43.5200     0.0773     0.4308
  138    2.740   4760.65     0.0931     0.0037     0.0703     0.0274     0.1215     3.8384    43.8400     0.0776     0.5176
  139    2.760   4761.60     0.0974     0.0036     0.0727     0.0276     0.1280     3.7469    44.1600     0.0839     0.5398
  140    2.780   4762.59     0.0939     0.0035     0.0701     0.0278     0.1245     3.6244    44.4800     0.0800     0.5620
  141    2.800   4763.54     0.0995     0.0038     0.0579     0.0280     0.1252     3.8437    44.8000     0.0804     0.4127
  142    2.820   4764.54     0.1024     0.0038     0.0596     0.0282     0.1267     3.8537    45.1200     0.0816     0.3649
  143    2.840   4765.51     0.1009     0.0037     0.0605     0.0284     0.1266     3.7142    45.4400     0.0812     0.4045
  144    2.860   4766.50     0.0975     0.0039     0.0518     0.0286     0.1206     3.9729    45.7600     0.0749     0.3538
  145    2.880   4767.45     0.0961     0.0041     0.0522     0.0288     0.1174     4.2297    46.0800     0.0713     0.3053
  146    2.900   4768.41     0.0948     0.0039     0.0625     0.0290     0.1193     4.1173    46.4000     0.0729     0.4045
  147    2.920   4769.41     0.0932     0.0037     0.0686     0.0292     0.1210     4.0046    46.7200     0.0742     0.4961
  148    2.940   4770.36     0.0880     0.0033     0.0725     0.0294     0.1180     3.7225    47.0400     0.0709     0.5926
  149    2.960   4771.32     0.0830     0.0033     0.0712     0.0296     0.1132     3.8874    47.3600     0.0658     0.6433
  150    2.980   4772.34     0.0769     0.0032     0.0747     0.0298     0.1078     4.0982    47.6800     0.0601     0.7290
  151    3.000   4773.26     0.0739     0.0031     0.0777     0.0300     0.1059     4.2559    48.0000     0.0579     0.7984
  152    3.020   4774.26     0.0838     0.0030     0.0786     0.0302     0.1162     3.6898    48.3200     0.0679     0.6916
  153    3.040   4775.28     0.0953     0.0033     0.0742     0.0304     0.1276     3.5548    48.6400     0.0789     0.5906
  154    3.060   4776.24     0.1030     0.0032     0.0717     0.0306     0.1324     3.1684    48.9600     0.0835     0.4718
  155    3.080   4777.22     0.1100     0.0039     0.0656     0.0308     0.1390     3.6171    49.2800     0.0897     0.4260
  156    3.100   4778.22     0.1057     0.0039     0.0603     0.0310     0.1328     3.6741    49.6000     0.0832     0.4018
  157    3.120   4779.14     0.1044     0.0040     0.0552     0.0312     0.1275     3.8268    49.9200     0.0776     0.3076
  158    3.140   4780.15     0.0990     0.0034     0.0570     0.0314     0.1221     3.3867    50.2400     0.0718     0.3262
  159    3.160   4781.10     0.0886     0.0032     0.0639     0.0316     0.1144     3.5385    50.5600     0.0639     0.4685
  160    3.180   4782.10     0.0788     0.0031     0.0702     0.0318     0.1077     3.7774    50.8800     0.0568     0.6527
  161    3.200   4783.09     0.0782     0.0032     0.0718     0.0320     0.1080     4.0861    51.2000     0.0568     0.6859
  162    3.220   4784.04     0.0861     0.0034     0.0685     0.0322     0.1155     4.0884    51.5200     0.0639     0.5892
  163    3.240   4785.01     0.0939     0.0035     0.0648     0.0324     0.1222     3.7753    51.8400     0.0704     0.4977
  164    3.260   4785.96     0.0964     0.0035     0.0555     0.0326     0.1210     3.5793    52.1600     0.0688     0.3757
  165    3.280   4786.97     0.0957     0.0039     0.0474     0.0328     0.1161     4.0997    52.4800     0.0636     0.2481
  166    3.300   4787.95     0.1010     0.0042     0.0501     0.0330     0.1213     4.1163    52.8000     0.0685     0.2235
  167    3.320   4788.91     0.0964     0.0039     0.0547     0.0332     0.1190     3.9991    53.1200     0.0659     0.3133
  168    3.340   4789.87     0.0910     0.0040     0.0593     0.0334     0.1151     4.3165    53.4400     0.0617     0.3881
  169    3.360   4790.82     0.0864     0.0038     0.0619     0.0336     0.1119     4.4352    53.7600     0.0581     0.4652
  170    3.380   4791.84     0.0840     0.0038     0.0623     0.0338     0.1101     4.4550    54.0800     0.0561     0.5075
  171    3.400   4792.82     0.0838     0.0031     0.0633     0.0340     0.1107     3.7651    54.4000     0.0563     0.5346
  172    3.420   4793.79     0.0817     0.0034     0.0661     0.0342     0.1093     4.1095    54.7200     0.0546     0.5776
  173    3.440   4794.79     0.0768     0.0038     0.0643     0.0344     0.1043     4.9216    55.0400     0.0492     0.6286
  174    3.460   4795.73     0.0689     0.0034     0.0620     0.0346     0.0954     4.8727    55.3600     0.0400     0.7120
  175    3.480   4796.73     0.0733     0.0033     0.0582     0.0348     0.0979     4.6362    55.6800     0.0422     0.5619
  176    3.500   4797.69     0.0815     0.0036     0.0547     0.0350     0.1046     4.5560    56.0000     0.0486     0.4111
  177    3.520   4798.69     0.0889     0.0032     0.0624     0.0352     0.1140     3.5994    56.3200     0.0577     0.4268
  178    3.540   4799.68     0.0882     0.0030     0.0678     0.0354     0.1167     3.3351    56.6400     0.0600     0.5399
  179    3.560   4800.63     0.0927     0.0030     0.0703     0.0356     0.1206     3.2902    56.9600     0.0636     0.4824
  180    3.580   4801.66     0.0889     0.0028     0.0730     0.0358     0.1192     3.0923    57.2800     0.0619     0.5866
  181    3.600   4802.62     0.0886     0.0028     0.0749     0.0360     0.1197     3.1083    57.6000     0.0621     0.6148
  182    3.620   4803.61     0.0923     0.0030     0.0729     0.0362     0.1232     3.3212    57.9200     0.0652     0.5721
  183    3.640   4804.61     0.0942     0.0032     0.0734     0.0364     0.1247     3.4311    58.2400     0.0664     0.5435
  184    3.660   4805.56     0.0932     0.0035     0.0750     0.0366     0.1244     3.7825    58.5600     0.0658     0.5728
  185    3.680   4806.52     0.0978     0.0033     0.0769     0.0368     0.1301     3.4488    58.8800     0.0713     0.5648
  186    3.700   4807.50     0.1012     0.0031     0.0742     0.0370     0.1329     3.0843    59.2000     0.0737     0.5222
  187    3.720   4808.46     0.1018     0.0034     0.0771     0.0372     0.1331     3.3317    59.5200     0.0736     0.5061
  188    3.740   4809.41     0.0982     0.0036     0.0816     0.0374     0.1321     3.6211    59.8400     0.0722     0.5970
  189    3.760   4810.40     0.1004     0.0037     0.0805     0.0376     0.1344     3.7531    60.1600     0.0742     0.5828
  190    3.780   4811.37     0.0980     0.0033     0.0832     0.0378     0.1328     3.4088    60.4800     0.0723     0.6227
  191    3.800   4812.35     0.0988     0.0034     0.0781     0.0380     0.1322     3.4601    60.8000     0.0714     0.5801
  192    3.820   4813.32     0.0984     0.0037     0.0795     0.0382     0.1315     3.8149    61.1200     0.0704     0.5774
  193    3.840   4814.28     0.0981     0.0036     0.0821     0.0384     0.1321     3.5979    61.4400     0.0707     0.6023
  194    3.860   4815.24     0.0958     0.0035     0.0855     0.0386     0.1313     3.5931    61.7600     0.0695     0.6614
  195    3.880   4816.23     0.1014     0.0033     0.0857     0.0388     0.1371     3.2874    62.0800     0.0750     0.6138
  196    3.900   4817.19     0.1015     0.0033     0.0831     0.0390     0.1372     3.2424    62.4000     0.0748     0.6152
  197    3.920   4818.17     0.1001     0.0033     0.0887     0.0392     0.1367     3.2992    62.7200     0.0740     0.6489
  198    3.940   4819.11     0.0993     0.0034     0.0838     0.0394     0.1362     3.4305    63.0400     0.0731     0.6630
  199    3.960   4820.10     0.1073     0.0033     0.0808     0.0396     0.1411     3.1389    63.3600     0.0777     0.5259
  200    3.980   4821.10     0.1062     0.0032     0.0835     0.0398     0.1412     3.0392    63.6800     0.0775     0.5613
  201    4.000   4822.09     0.1096     0.0034     0.0848     0.0400     0.1450     3.1208    64.0000     0.0810     0.5464
  202    4.020   4823.08     0.1098     0.0037     0.0874     0.0402     0.1466     3.2530    64.3200     0.0822     0.5747
  203    4.040   4824.04     0.1139     0.0035     0.0861     0.0404     0.1501     3.0504    64.6400     0.0855     0.5365
  204    4.060   4825.05     0.1223     0.0034     0.0894     0.0406     0.1592     2.8478    64.9600     0.0942     0.4998
  205    4.080   4826.01     0.1298     0.0033     0.0903     0.0408     0.1679     2.6120    65.2800     0.1026     0.4862
  206    4.100   4827.00     0.1268     0.0036     0.0890     0.0410     0.1643     2.8277    65.6000     0.0987     0.4905
  207    4.120   4827.96     0.1246     0.0036     0.0886     0.0412     0.1619     2.7958    65.9200     0.0959     0.4947
  208    4.140   4840.33     0.1263     0.0033     0.0896     0.0414     0.1638     2.7102    66.2400     0.0976     0.4922
  209    4.160   4855.37     0.1311     0.0032     0.0906     0.0416     0.1690     2.6431    66.5600     0.1024     0.4766
  210    4.180   4870.20     0.1357     0.0035     0.0912     0.0418     0.1740     2.7082    66.8800     0.1072     0.4614
  211    4.200   4871.21     0.1366     0.0038     0.0923     0.0420     0.1748     2.7985    67.2000     0.1076     0.4563
  212    4.220   4872.21     0.1397     0.0039     0.0945     0.0422     0.1796     2.7797    67.5200     0.1121     0.4707
  213    4.240   4873.21     0.1418     0.0042     0.0927     0.0424     0.1813     2.9895    67.8400     0.1134     0.4554
  214    4.260   4874.16     0.1454     0.0038     0.0878     0.0426     0.1806     2.6171    68.1600     0.1124     0.3671
  215    4.280   4875.13     0.1372     0.0038     0.0873     0.0428     0.1739     2.6698    68.4800     0.1054     0.4218
  216    4.300   4876.04     0.1374     0.0034     0.0916     0.0430     0.1752     2.4820    68.8000     0.1064     0.4423
  217    4.320   4877.03     0.1298     0.0033     0.0963     0.0432     0.1695     2.5130    69.1200     0.1004     0.5114
  218    4.340   4878.02     0.1252     0.0030     0.1004     0.0434     0.1670     2.3457    69.4400     0.0975     0.5765
  219    4.360   4878.98     0.1248     0.0029     0.0928     0.0436     0.1648     2.3586    69.7600     0.0951     0.5441
  220    4.380   4879.98     0.1210     0.0027     0.0962     0.0438     0.1610     2.2103    70.0800     0.0909     0.5676
  221    4.400   4880.96     0.1212     0.0026     0.0913     0.0440     0.1609     2.2008    70.4000     0.0905     0.5570
  222    4.420   4881.92     0.1202     0.0029     0.0831     0.0442     0.1559     2.3660    70.7200     0.0851     0.4788
  223    4.440   4882.90     0.1155     0.0029     0.0843     0.0444     0.1511     2.5307    71.0400     0.0801     0.5033
  224    4.460   4883.88     0.1123     0.0031     0.0845     0.0446     0.1476     2.7371    71.3600     0.0763     0.5198
  225    4.480   4884.81     0.1092     0.0029     0.0833     0.0448     0.1448     2.5920    71.6800     0.0731     0.5453
  226    4.500   4885.80     0.1068     0.0031     0.0802     0.0450     0.1395     2.9292    72.0000     0.0675     0.4873
  227    4.520   4886.76     0.1036     0.0031     0.0861     0.0452     0.1389     2.9203    72.3200     0.0666     0.5869
  228    4.540   4887.72     0.0962     0.0030     0.0904     0.0454     0.1337     3.0891    72.6400     0.0610     0.7173
  229    4.560   4888.75     0.0916     0.0030     0.0960     0.0456     0.1314     3.1993    72.9600     0.0584     0.8393
  230    4.580   4889.75     0.0945     0.0029     0.0994     0.0458     0.1356     3.0610    73.2800     0.0623     0.8370
  231    4.600   4890.72     0.1040     0.0029     0.1005     0.0460     0.1458     2.8849    73.6000     0.0722     0.7410
  232    4.620   4891.63     0.1087     0.0031     0.1027     0.0462     0.1513     2.9297    73.9200     0.0774     0.7158
  233    4.640   4892.61     0.1247     0.0032     0.1030     0.0464     0.1681     2.6501    74.2400     0.0938     0.6057
  234    4.660   4893.59     0.1284     0.0037     0.1017     0.0466     0.1713     2.8648    74.5600     0.0967     0.5736
  235    4.680   4894.58     0.1337     0.0036     0.0968     0.0468     0.1748     2.6755    74.8800     0.0999     0.5104
  236    4.700   4895.54     0.1353     0.0039     0.0964     0.0470     0.1757     2.9358    75.2000     0.1005     0.4908
  237    4.720   4896.56     0.1381     0.0036     0.1003     0.0472     0.1796     2.6276    75.5200     0.1040     0.4948
  238    4.740   4897.52     0.1435     0.0035     0.1041     0.0474     0.1866     2.4701    75.8400     0.1108     0.4991
  239    4.760   4898.48     0.1482     0.0033     0.1075     0.0476     0.1932     2.2734    76.1600     0.1171     0.5094
  240    4.780   4899.45     0.1544     0.0037     0.1048     0.0478     0.1987     2.4107    76.4800     0.1222     0.4717
  241    4.800   4900.39     0.1523     0.0034     0.1044     0.0480     0.1957     2.2162    76.8000     0.1189     0.4665
  242    4.820   4901.37     0.1535     0.0039     0.1057     0.0482     0.1983     2.5545    77.1200     0.1211     0.4822
  243    4.840   4902.32     0.1589     0.0040     0.1031     0.0484     0.2023     2.5256    77.4400     0.1249     0.4391
  244    4.860   4903.30     0.1561     0.0039     0.0993     0.0486     0.1980     2.4640    77.7600     0.1203     0.4255
  245    4.880   4904.25     0.1547     0.0041     0.1060     0.0488     0.1983     2.6041    78.0800     0.1202     0.4565
  246    4.900   4905.25     0.1500     0.0039     0.1090     0.0490     0.1956     2.6103    78.4000     0.1172     0.5083
  247    4.920   4906.22     0.1497     0.0040     0.1147     0.0492     0.1969     2.6397    78.7200     0.1182     0.5347
  248    4.940   4907.19     0.1511     0.0039     0.1186     0.0494     0.2001     2.5908    79.0400     0.1211     0.5557
  249    4.960   4908.20     0.1502     0.0036     0.1201     0.0496     0.2007     2.3773    79.3600     0.1213     0.5814
  250    4.980   4909.12     0.1448     0.0036     0.1197     0.0498     0.1951     2.4201    79.6800     0.1154     0.6064
  251    5.000   4910.12     0.1462     0.0037     0.1190     0.0500     0.1964     2.5383    80.0000     0.1164     0.5974
  252    5.020   4911.10     0.1445     0.0037     0.1175     0.0502     0.1943     2.5585    80.3200     0.1140     0.5992
  253    5.040   4912.07     0.1477     0.0036     0.1169     0.0504     0.1963     2.4788    80.6400     0.1157     0.5647
  254    5.060   4913.06     0.1493     0.0035     0.1179     0.0506     0.1989     2.3568    80.9600     0.1180     0.5725
  255    5.080   4914.02     0.1508     0.0031     0.1173     0.0508     0.2003     2.0375    81.2800     0.1191     0.5642
  256    5.100   4915.01     0.1568     0.0036     0.1162     0.0510     0.2054     2.3453    81.6000     0.1238     0.5216
  257    5.120   4915.98     0.1596     0.0041     0.1170     0.0512     0.2091     2.6038    81.9200     0.1272     0.5245
  258    5.140   4916.96     0.1612     0.0041     0.1107     0.0514     0.2083     2.5505    82.2400     0.1260     0.4819
  259    5.160   4917.94     0.1636     0.0043     0.1110     0.0516     0.2102     2.6346    82.5600     0.1277     0.4649
  260    5.180   4918.93     0.1667     0.0044     0.1058     0.0518     0.2122     2.6403    82.8800     0.1294     0.4369
  261    5.200   4919.88     0.1663     0.0040     0.1049     0.0520     0.2095     2.3712    83.2000     0.1263     0.4032
  262    5.220   4920.83     0.1595     0.0039     0.1138     0.0522     0.2057     2.4398    83.5200     0.1221     0.4727
  263    5.240   4921.82     0.1585     0.0044     0.1166     0.0524     0.2064     2.7600    83.8400     0.1225     0.5033
  264    5.260   4922.77     0.1545     0.0041     0.1239     0.0526     0.2061     2.6739    84.1600     0.1219     0.5769
  265    5.280   4923.75     0.1518     0.0038     0.1264     0.0528     0.2047     2.4748    84.4800     0.1202     0.6089
  266    5.300   4924.73     0.1543     0.0039     0.1274     0.0530     0.2080     2.5245    84.8000     0.1232     0.6066
  267    5.320   4925.69     0.1586     0.0035     0.1291     0.0532     0.2121     2.2368    85.1200     0.1269     0.5837
  268    5.340   4926.69     0.1560     0.0030     0.1310     0.0534     0.2113     1.9098    85.4400     0.1258     0.6214
  269    5.360   4927.63     0.1579     0.0031     0.1317     0.0536     0.2129     1.9519    85.7600     0.1271     0.6078
  270    5.380   4928.62     0.1642     0.0032     0.1300     0.0538     0.2192     1.9353    86.0800     0.1332     0.5806
  271    5.400   4929.62     0.1701     0.0042     0.1288     0.0540     0.2245     2.4796    86.4000     0.1381     0.5468
  272    5.420   4930.60     0.1801     0.0038     0.1267     0.0542     0.2342     2.1784    86.7200     0.1475     0.5069
  273    5.440   4931.56     0.1860     0.0042     0.1146     0.0544     0.2359     2.2835    87.0400     0.1488     0.4313
  274    5.460   4932.44     0.1855     0.0040     0.1120     0.0546     0.2323     2.1408    87.3600     0.1449     0.3922
  275    5.480   4933.39     0.1817     0.0039     0.1168     0.0548     0.2300     2.1387    87.6800     0.1423     0.4222
  276    5.500   4934.36     0.1782     0.0040     0.1214     0.0550     0.2288     2.2069    88.0000     0.1408     0.4644
  277    5.520   4935.30     0.1760     0.0037     0.1258     0.0552     0.2280     2.1344    88.3200     0.1396     0.4907
  278    5.540   4936.34     0.1793     0.0040     0.1286     0.0554     0.2329     2.2249    88.6400     0.1443     0.5016
  279    5.560   4937.28     0.1827     0.0044     0.1230     0.0556     0.2360     2.4142    88.9600     0.1471     0.4852
  280    5.580   4938.27     0.1875     0.0047     0.1115     0.0558     0.2356     2.5058    89.2800     0.1464     0.4015
  281    5.600   4939.27     0.1888     0.0047     0.1107     0.0560     0.2363     2.4676    89.6000     0.1467     0.3898
  282    5.620   4940.24     0.1882     0.0048     0.1109     0.0562     0.2343     2.5763    89.9200     0.1444     0.3720
  283    5.640   4941.22     0.1777     0.0042     0.1127     0.0564     0.2243     2.3636    90.2400     0.1341     0.4069
  284    5.660   4942.21     0.1752     0.0045     0.1173     0.0566     0.2239     2.5362    90.5600     0.1333     0.4446
  285    5.680   4943.16     0.1727     0.0044     0.1219     0.0568     0.2229     2.5414    90.8800     0.1320     0.4737
  286    5.700   4944.15     0.1698     0.0045     0.1288     0.0570     0.2231     2.6203    91.2000     0.1319     0.5293
  287    5.720   4944.96     0.1723     0.0040     0.1301     0.0572     0.2269     2.3489    91.5200     0.1354     0.5389
  288    5.740   4945.80     0.1784     0.0042     0.1315     0.0574     0.2335     2.4280    91.8400     0.1416     0.5213
  289    5.760   4946.57     0.1773     0.0041     0.1320     0.0576     0.2327     2.3042    92.1600     0.1405     0.5280
  290    5.780   4947.50     0.1786     0.0036     0.1348     0.0578     0.2346     2.0168    92.4800     0.1421     0.5315
  291    5.800   4948.47     0.1768     0.0039     0.1356     0.0580     0.2341     2.2197    92.8000     0.1413     0.5563
  292    5.820   4949.45     0.1812     0.0041     0.1295     0.0582     0.2362     2.3140    93.1200     0.1430     0.5072
  293    5.840   4950.39     0.1875     0.0042     0.1344     0.0584     0.2433     2.2533    93.4400     0.1498     0.4968
  294    5.860   4951.36     0.1893     0.0044     0.1353     0.0586     0.2461     2.3251    93.7600     0.1524     0.5033
  295    5.880   4952.34     0.1904     0.0043     0.1212     0.0588     0.2437     2.2506    94.0800     0.1496     0.4548
  296    5.900   4953.37     0.1912     0.0045     0.1213     0.0590     0.2392     2.3464    94.4000     0.1448     0.3817
  297    5.920   4954.32     0.1866     0.0042     0.1268     0.0592     0.2398     2.2529    94.7200     0.1450     0.4639
  298    5.940   4955.26     0.1797     0.0044     0.1322     0.0594     0.2345     2.4287    95.0400     0.1395     0.5090
  299    5.960   4956.21     0.1792     0.0042     0.1341     0.0596     0.2349     2.3426    95.3600     0.1395     0.5230
  300    5.980   4957.19     0.1769     0.0044     0.1346     0.0598     0.2321     2.5180    95.6800     0.1364     0.5248
  301    6.000   4958.17     0.1753     0.0044     0.1410     0.0600     0.2337     2.4578    96.0000     0.1377     0.5746
  302    6.020   4959.17     0.1738     0.0044     0.1437     0.0602     0.2341     2.4431    96.3200     0.1378     0.6044
  303    6.040   4960.13     0.1792     0.0046     0.1440     0.0604     0.2397     2.5688    96.6400     0.1431     0.5841
  304    6.060   4961.13     0.1878     0.0050     0.1382     0.0606     0.2460     2.6714    96.9600     0.1490     0.5235
  305    6.080   4962.10     0.1885     0.0048     0.1427     0.0608     0.2483     2.5300    97.2800     0.1510     0.5390
  306    6.100   4969.48     0.1931     0.0053     0.1370     0.0610     0.2517     2.7879    97.6000     0.1541     0.5119
  307    6.120   4986.84     0.2003     0.0053     0.1291     0.0612     0.2556     2.7897    97.9200     0.1577     0.4500
  308    6.140   5004.20     0.2075     0.0052     0.1235     0.0614     0.2595     2.6709    98.2400     0.1613     0.3882
  309    6.160   5008.47     0.2046     0.0050     0.1279     0.0616     0.2579     2.4684    98.5600     0.1594     0.4102
  310    6.180   5009.44     0.2002     0.0048     0.1334     0.0618     0.2554     2.4269    98.8800     0.1565     0.4449
  311    6.200   5010.40     0.1960     0.0049     0.1350     0.0620     0.2526     2.4867    99.2000     0.1534     0.4745
  312    6.220   5011.41     0.1931     0.0049     0.1371     0.0622     0.2506     2.5631    99.5200     0.1511     0.4948
  313    6.240   5012.43     0.1915     0.0048     0.1418     0.0624     0.2507     2.4767    99.8400     0.1509     0.5219
  314    6.260   5013.34     0.1919     0.0044     0.1444     0.0626     0.2516     2.2832   100.1600     0.1514     0.5249
  315    6.280   5014.31     0.1901     0.0045     0.1470     0.0628     0.2515     2.3726   100.4800     0.1510     0.5516
  316    6.300   5015.27     0.1945     0.0048     0.1450     0.0630     0.2559     2.4972   100.8000     0.1551     0.5357
  317    6.320   5016.22     0.1913     0.0047     0.1446     0.0632     0.2519     2.4228   101.1200     0.1508     0.5379
  318    6.340   5017.25     0.1946     0.0048     0.1482     0.0634     0.2564     2.4818   101.4400     0.1549     0.5402
  319    6.360   5018.21     0.1951     0.0047     0.1480     0.0636     0.2579     2.3977   101.7600     0.1561     0.5501
  320    6.380   5019.18     0.1940     0.0045     0.1477     0.0638     0.2558     2.3250   102.0800     0.1538     0.5419
  321    6.400   5020.15     0.2013     0.0047     0.1521     0.0640     0.2643     2.3337   102.4000     0.1619     0.5312
  322    6.420   5021.13     0.2033     0.0046     0.1519     0.0642     0.2684     2.2712   102.7200     0.1657     0.5477
  323    6.440   5022.09     0.2098     0.0048     0.1482     0.0644     0.2724     2.3196   103.0400     0.1694     0.5000
  324    6.460   5023.05     0.2153     0.0050     0.1491     0.0646     0.2777     2.3597   103.3600     0.1743     0.4812
  325    6.480   5024.03     0.2249     0.0051     0.1483     0.0648     0.2874     2.2890   103.6800     0.1837     0.4577
  326    6.500   5024.99     0.2354     0.0056     0.1418     0.0650     0.2962     2.4233   104.0000     0.1922     0.4156
  327    6.520   5025.97     0.2386     0.0054     0.1374     0.0652     0.2967     2.2414   104.3200     0.1924     0.3806
  328    6.540   5026.97     0.2374     0.0059     0.1346     0.0654     0.2941     2.4896   104.6400     0.1895     0.3677
  329    6.560   5027.93     0.2366     0.0065     0.1320     0.0656     0.2931     2.7377   104.9600     0.1881     0.3665
  330    6.580   5028.94     0.2356     0.0069     0.1305     0.0658     0.2903     2.9349   105.2800     0.1850     0.3479
  331    6.600   5029.89     0.2296     0.0067     0.1317     0.0660     0.2847     2.9217   105.6000     0.1791     0.3648
  332    6.620   5030.90     0.2190     0.0065     0.1348     0.0662     0.2752     2.9231   105.9200     0.1693     0.3995
  333    6.640   5045.46     0.2130     0.0063     0.1349     0.0664     0.2697     2.9246   106.2400     0.1634     0.4193
  334    6.660   5065.85     0.2085     0.0061     0.1349     0.0666     0.2652     2.8048   106.5600     0.1586     0.4315
  335    6.680   5086.23     0.2040     0.0058     0.1365     0.0668     0.2607     2.7813   106.8800     0.1538     0.4436
  336    6.700   5091.66     0.1992     0.0055     0.1492     0.0670     0.2606     2.7526   107.2000     0.1534     0.5162
  337    6.720   5092.32     0.1945     0.0050     0.1549     0.0672     0.2591     2.5408   107.5200     0.1515     0.5705
  338    6.740   5092.95     0.1927     0.0051     0.1546     0.0674     0.2578     2.6459   107.8400     0.1500     0.5845
  339    6.760   5093.60     0.1913     0.0049     0.1585     0.0676     0.2574     2.5719   108.1600     0.1492     0.6012
  340    6.780   5094.20     0.1917     0.0048     0.1605     0.0678     0.2590     2.5043   108.4800     0.1506     0.6143
  341    6.800   5094.84     0.1925     0.0053     0.1560     0.0680     0.2592     2.7481   108.8000     0.1504     0.6044
  342    6.820   5095.51     0.1951     0.0049     0.1543     0.0682     0.2597     2.5307   109.1200     0.1506     0.5689
  343    6.840   5096.17     0.1965     0.0049     0.1599     0.0684     0.2629     2.4902   109.4400     0.1535     0.5850
  344    6.860   5096.84     0.2017     0.0052     0.1646     0.0686     0.2702     2.5694   109.7600     0.1604     0.5890
  345    6.880   5097.49     0.2096     0.0055     0.1578     0.0688     0.2770     2.6486   110.0800     0.1670     0.5504
  346    6.900   5098.11     0.2121     0.0058     0.1564     0.0690     0.2780     2.7161   110.4000     0.1676     0.5247
  347    6.920   5098.71     0.2176     0.0062     0.1550     0.0692     0.2829     2.8487   110.7200     0.1721     0.5009
  348    6.940   5103.25     0.2230     0.0061     0.1530     0.0694     0.2876     2.7492   111.0400     0.1766     0.4779
  349    6.960   5117.44     0.2215     0.0059     0.1506     0.0696     0.2851     2.6379   111.3600     0.1737     0.4708
  350    6.980   5131.63     0.2200     0.0059     0.1483     0.0698     0.2826     2.6398   111.6800     0.1709     0.4637
  351    7.000   5145.24     0.2190     0.0056     0.1512     0.0700     0.2809     2.5437   112.0000     0.1689     0.4580
  352    7.020   5146.25     0.2131     0.0060     0.1754     0.0702     0.2856     2.8117   112.3200     0.1733     0.5912
  353    7.040   5147.24     0.2185     0.0061     0.1712     0.0704     0.2915     2.7796   112.6400     0.1788     0.5774
  354    7.060   5148.26     0.2262     0.0056     0.1682     0.0706     0.2975     2.4740   112.9600     0.1846     0.5382
  355    7.080   5149.24     0.2302     0.0056     0.1666     0.0708     0.2990     2.4284   113.2800     0.1857     0.5004
  356    7.100   5150.24     0.2277     0.0055     0.1699     0.0710     0.2986     2.4004   113.6000     0.1850     0.5288
  357    7.120   5151.16     0.2246     0.0057     0.1764     0.0712     0.2976     2.5368   113.9200     0.1837     0.5592
  358    7.140   5152.15     0.2190     0.0055     0.1809     0.0714     0.2941     2.5088   114.2400     0.1798     0.5970
  359    7.160   5153.18     0.2193     0.0053     0.1803     0.0716     0.2966     2.4221   114.5600     0.1821     0.6176
  360    7.180   5154.15     0.2213     0.0058     0.1749     0.0718     0.2961     2.6117   114.8800     0.1812     0.5864
  361    7.200   5155.15     0.2264     0.0058     0.1719     0.0720     0.2984     2.5636   115.2000     0.1832     0.5431
  362    7.220   5156.09     0.2270     0.0057     0.1736     0.0722     0.2992     2.5341   115.5200     0.1837     0.5424
  363    7.240   5157.11     0.2284     0.0056     0.1714     0.0724     0.3017     2.4763   115.8400     0.1858     0.5487
  364    7.260   5158.05     0.2322     0.0056     0.1699     0.0726     0.3033     2.3765   116.1600     0.1871     0.5171
  365    7.280   5159.06     0.2260     0.0057     0.1762     0.0728     0.2993     2.4945   116.4800     0.1829     0.5575
  366    7.300   5160.02     0.2276     0.0057     0.1782     0.0730     0.3025     2.5146   116.8000     0.1857     0.5671
  367    7.320   5161.02     0.2334     0.0057     0.1729     0.0732     0.3070     2.4387   117.1200     0.1899     0.5366
  368    7.340   5161.99     0.2383     0.0057     0.1714     0.0734     0.3103     2.4335   117.4400     0.1929     0.5086
  369    7.360   5162.96     0.2383     0.0057     0.1589     0.0736     0.3074     2.3995   117.7600     0.1896     0.4787
  370    7.380   5163.92     0.2356     0.0060     0.1641     0.0738     0.3027     2.5267   118.0800     0.1846     0.4653
  371    7.400   5164.90     0.2291     0.0060     0.1712     0.0740     0.3006     2.6110   118.4000     0.1822     0.5278
  372    7.420   5165.86     0.2316     0.0059     0.1807     0.0742     0.3051     2.5525   118.7200     0.1864     0.5409
  373    7.440   5166.86     0.2296     0.0060     0.1847     0.0744     0.3070     2.6051   119.0400     0.1879     0.5844
  374    7.460   5167.92     0.2336     0.0058     0.1847     0.0746     0.3116     2.5120   119.3600     0.1923     0.5781
  375    7.480   5168.84     0.2387     0.0051     0.1848     0.0748     0.3167     2.1405   119.6800     0.1970     0.5627
  376    7.500   5169.83     0.2448     0.0053     0.1843     0.0750     0.3218     2.1347   120.0000     0.2018     0.5374
  377    7.520   5170.79     0.2482     0.0055     0.1864     0.0752     0.3255     2.2050   120.3200     0.2051     0.5300
  378    7.540   5171.77     0.2520     0.0047     0.1895     0.0754     0.3304     1.8445   120.6400     0.2097     0.5303
  379    7.560   5172.81     0.2511     0.0042     0.1906     0.0756     0.3318     1.6764   120.9600     0.2108     0.5528
  380    7.580   5173.81     0.2516     0.0040     0.1724     0.0758     0.3270     1.5854   121.2800     0.2057     0.5042
  381    7.600   5174.79     0.2465     0.0047     0.1728     0.0760     0.3187     1.8855   121.6000     0.1971     0.4870
  382    7.620   5175.75     0.2377     0.0061     0.1841     0.0762     0.3134     2.5452   121.9200     0.1914     0.5435
  383    7.640   5176.79     0.3006     0.0063     0.1721     0.0764     0.3746     2.3071   122.2400     0.2524     0.4002
  384    7.660   5177.73     0.3961     0.0060     0.1428     0.0766     0.4578     1.5707   122.5600     0.3353     0.2100
  385    7.680   5178.68     0.3860     0.0060     0.0764     0.0768     0.4281     1.5373   122.8800     0.3052     0.0761
  386    7.700   5179.66     0.3819     0.0074     0.0731     0.0770     0.4133     1.9192   123.2000     0.2901    -0.0080
  387    7.720   5180.66     0.3996     0.0114     0.1099     0.0772     0.4407     2.9060   123.5200     0.3172     0.0644
  388    7.740   5181.69     0.6556     0.0172     0.0787     0.0774     0.6967     2.9885   123.8400     0.5728     0.0362
  389    7.760   5182.67     0.8843     0.0233     0.0485     0.0776     0.9104     2.7449   124.1600     0.7863    -0.0195
  390    7.780   5183.64     0.8987     0.0272    -0.0342     0.0778     0.9001     3.0160   124.4800     0.7756    -0.0962
  391    7.800   5184.62     0.9145     0.0295    -0.0867     0.0780     0.8812     3.2468   124.8000     0.7564    -0.2079
  392    7.820   5185.60     0.8394     0.0317    -0.0917     0.0782     0.8015     3.6856   125.1200     0.6764    -0.2492
  393    7.840   5186.56     0.7620     0.0341    -0.0965     0.0784     0.7225     4.3873   125.4400     0.5971    -0.2893
  394    7.860   5187.55     0.6687     0.0334    -0.0899     0.0786     0.6307     4.8305   125.7600     0.5049    -0.3351
  395    7.880   5188.57     0.6137     0.0297    -0.0859     0.0788     0.5766     4.7666   126.0800     0.4506    -0.3707
  396    7.900   5189.51     0.5612     0.0265    -0.0976     0.0790     0.5239     4.5839   126.4000     0.3975    -0.4237
  397    7.920   5190.51     0.4862     0.0253    -0.1182     0.0792     0.4374     5.0439   126.7200     0.3107    -0.6323
  398    7.940   5191.47     0.4189     0.0216    -0.0976     0.0794     0.3742     5.0346   127.0400     0.2471    -0.7521
  399    7.960   5192.45     0.5279     0.0201    -0.0796     0.0796     0.4920     4.1424   127.3600     0.3646    -0.4674
  400    7.980   5193.42     0.7690     0.0214    -0.0440     0.0798     0.7430     2.9158   127.6800     0.6154    -0.2343
  401    8.000   5194.44     0.9353     0.0236    -0.0160     0.0800     0.9246     2.6031   128.0000     0.7966    -0.1331
  402    8.020   5195.43     1.0252     0.0262     0.0319     0.0802     1.0295     2.5472   128.3200     0.9011    -0.0779
  403    8.040   5196.43     1.0036     0.0281     0.0048     0.0804     1.0141     2.7914   128.6400     0.8854    -0.0629
  404    8.060   5197.44     1.0058     0.0302     0.0044     0.0806     1.0061     3.0564   128.9600     0.8771    -0.0911
  405    8.080   5198.40     1.0542     0.0335     0.0566     0.0808     1.0698     3.1936   129.2800     0.9406    -0.0466
  406    8.100   5199.37     1.1275     0.0335     0.0855     0.0810     1.1651     2.9828   129.6000     1.0355     0.0084
  407    8.120   5200.39     1.1776     0.0327     0.0646     0.0812     1.2120     2.7828   129.9200     1.0821     0.0007
  408    8.140   5201.39     1.2030     0.0313     0.0871     0.0814     1.2356     2.6114   130.2400     1.1054    -0.0033
  409    8.160   5202.35     1.2053     0.0329     0.1109     0.0816     1.2495     2.7276   130.5600     1.1189     0.0210
  410    8.180   5203.56     1.2526     0.0348     0.0558     0.0818     1.2849     2.8464   130.8800     1.1540    -0.0041
  411    8.200   5223.51     1.2693     0.0375     0.0066     0.0820     1.2791     2.9633   131.2000     1.1479    -0.0514
  412    8.220   5242.32     1.2631     0.0375    -0.0459     0.0822     1.2518     2.9524   131.5200     1.1203    -0.0974
  413    8.240   5243.33     1.1889     0.0379    -0.0870     0.0824     1.1594     3.1589   131.8400     1.0276    -0.1487
  414    8.260   5244.36     1.1137     0.0355    -0.0703     0.0826     1.0837     3.1298   132.1600     0.9515    -0.1619
  415    8.280   5245.32     1.1190     0.0340    -0.0706     0.0828     1.0879     3.0674   132.4800     0.9554    -0.1641
  416    8.300   5246.27     1.1412     0.0343    -0.0241     0.0830     1.1228     3.0115   132.8000     0.9900    -0.1281
  417    8.320   5247.25     1.2087     0.0381     0.0129     0.0832     1.2093     3.1965   133.1200     1.0762    -0.0761
  418    8.340   5248.23     1.3661     0.0404     0.0379     0.0834     1.3832     3.0573   133.4400     1.2498    -0.0342
  419    8.360   5249.21     1.4443     0.0410     0.0623     0.0836     1.4703     2.8451   133.7600     1.3366    -0.0163
  420    8.380   5250.23     1.4580     0.0413     0.0076     0.0838     1.4743     2.7953   134.0800     1.3402    -0.0338
  421    8.400   5251.19     1.3808     0.0411     0.0040     0.0840     1.3785     2.9362   134.4000     1.2441    -0.0720
  422    8.420   5252.16     1.2982     0.0409     0.0452     0.0842     1.3115     3.1172   134.7200     1.1768    -0.0447
  423    8.440   5253.14     1.2592     0.0442     0.1171     0.0844     1.2971     3.5024   135.0400     1.1620     0.0049
  424    8.460   5254.11     1.3202     0.0481     0.1617     0.0846     1.3792     3.6943   135.3600     1.2439     0.0450
  425    8.480   5255.06     1.4391     0.0489     0.1913     0.0848     1.5199     3.4590   135.6800     1.3842     0.0776
  426    8.500   5256.06     1.5773     0.0504     0.1331     0.0850     1.6471     3.1938   136.0000     1.5111     0.0537
  427    8.520   5257.06     1.5864     0.0485     0.0343     0.0852     1.6134     3.0599   136.3200     1.4771    -0.0142
  428    8.540   5258.08     1.5108     0.0476     0.0216     0.0854     1.5211     3.0916   136.6400     1.3845    -0.0439
  429    8.560   5259.05     1.3799     0.0473     0.0351     0.0856     1.3898     3.3723   136.9600     1.2528    -0.0495
  430    8.580   5260.07     1.2759     0.0458     0.0563     0.0858     1.2932     3.5300   137.2800     1.1559    -0.0387
  431    8.600   5261.01     1.2312     0.0405     0.0737     0.0860     1.2623     3.2817   137.6000     1.1247    -0.0106
  432    8.620   5261.99     1.2580     0.0362     0.0936     0.0862     1.2920     2.8869   137.9200     1.1541    -0.0045
  433    8.640   5262.99     1.2419     0.0342     0.1234     0.0864     1.2904     2.7253   138.2400     1.1522     0.0254
  434    8.660   5263.98     1.2201     0.0339     0.1484     0.0866     1.2787     2.7697   138.5600     1.1402     0.0464
  435    8.680   5264.95     1.2142     0.0347     0.1526     0.0868     1.2785     2.8498   138.8800     1.1396     0.0582
  436    8.700   5265.96     1.1927     0.0342     0.1592     0.0870     1.2568     2.8481   139.2000     1.1176     0.0588
  437    8.720   5266.91     1.1610     0.0341     0.1688     0.0872     1.2337     2.9302   139.5200     1.0942     0.0786
  438    8.740   5267.88     1.1277     0.0343     0.1645     0.0874     1.1957     3.0141   139.8400     1.0559     0.0707
  439    8.760   5268.85     1.0794     0.0336     0.1684     0.0876     1.1509     3.0845   140.1600     1.0107     0.0817
  440    8.780   5269.80     1.0171     0.0332     0.1824     0.0878     1.0909     3.2178   140.4800     0.9504     0.0925
  441    8.800   5270.82     0.9392     0.0317     0.1960     0.0880     1.0188     3.3283   140.8000     0.8780     0.1155
  442    8.820   5271.82     0.8838     0.0288     0.1488     0.0882     0.9577     3.2046   141.1200     0.8166     0.1072
  443    8.840   5272.80     0.8332     0.0275     0.1520     0.0884     0.8945     3.2440   141.4400     0.7531     0.0764
  444    8.860   5273.76     0.8116     0.0275     0.1467     0.0886     0.8725     3.3807   141.7600     0.7308     0.0774
  445    8.880   5274.74     0.8063     0.0260     0.1487     0.0888     0.8673     3.2171   142.0800     0.7252     0.0777
  446    8.900   5275.69     0.8195     0.0258     0.1499     0.0890     0.8869     3.1592   142.4000     0.7445     0.0958
  447    8.920   5276.65     0.8152     0.0243     0.1310     0.0892     0.8704     2.9812   142.7200     0.7277     0.0582
  448    8.940   5277.60     0.8054     0.0245     0.0995     0.0894     0.8513     3.0421   143.0400     0.7082     0.0280
  449    8.960   5278.63     0.7767     0.0257     0.1240     0.0896     0.8241     3.2798   143.3600     0.6808     0.0344
  450    8.980   5279.64     0.7779     0.0253     0.1473     0.0898     0.8376     3.2460   143.6800     0.6939     0.0756
  451    9.000   5280.59     0.7743     0.0248     0.1738     0.0900     0.8443     3.1826   144.0000     0.7003     0.1097
  452    9.020   5281.58     0.7713     0.0249     0.1814     0.0902     0.8462     3.2499   144.3200     0.7019     0.1259
  453    9.040   5282.56     0.8057     0.0235     0.2047     0.0904     0.8878     2.9321   144.6400     0.7432     0.1415
  454    9.060   5283.49     0.8091     0.0236     0.2157     0.0906     0.9000     2.9252   144.9600     0.7551     0.1667
  455    9.080   5284.49     0.8093     0.0227     0.2226     0.0908     0.8983     2.8098   145.2800     0.7531     0.1610
  456    9.100   5285.47     0.8176     0.0228     0.2581     0.0910     0.9220     2.8081   145.6000     0.7764     0.2026
  457    9.120   5286.48     0.9070     0.0227     0.2717     0.0912     1.0199     2.5937   145.9200     0.8739     0.2035
  458    9.140   5287.47     0.9389     0.0218     0.2779     0.0914     1.0570     2.3240   146.2400     0.9107     0.2082
  459    9.160   5288.45     0.9413     0.0226     0.2660     0.0916     1.0535     2.4085   146.5600     0.9069     0.1933
  460    9.180   5289.43     0.9847     0.0220     0.2409     0.0918     1.0902     2.2557   146.8800     0.9433     0.1690
  461    9.200   5290.41     1.0082     0.0223     0.2463     0.0920     1.1066     2.2300   147.2000     0.9594     0.1481
  462    9.220   5291.39     1.0250     0.0236     0.2560     0.0922     1.1389     2.3112   147.5200     0.9913     0.1804
  463    9.240   5292.31     1.0757     0.0231     0.2292     0.0924     1.1730     2.1645   147.8400     1.0252     0.1359
  464    9.260   5293.32     1.0521     0.0207     0.3094     0.0926     1.1710     1.9516   148.1600     1.0229     0.1862
  465    9.280   5294.28     1.0628     0.0219     0.3581     0.0928     1.2071     2.0732   148.4800     1.0587     0.2370
  466    9.300   5295.31     1.1076     0.0228     0.3975     0.0930     1.2699     2.0784   148.8000     1.1211     0.2618
  467    9.320   5296.28     1.1531     0.0257     0.4390     0.0932     1.3340     2.2458   149.1200     1.1848     0.2848
  468    9.340   5297.22     1.2146     0.0310     0.4556     0.0934     1.4041     2.5736   149.4400     1.2546     0.2852
  469    9.360   5298.19     1.3526     0.0331     0.4560     0.0936     1.5438     2.5265   149.7600     1.3941     0.2595
  470    9.380   5299.19     1.5411     0.0367     0.4201     0.0938     1.7203     2.4361   150.0800     1.5702     0.2120
  471    9.400   5300.17     1.5815     0.0458     0.3027     0.0940     1.7427     2.8921   150.4000     1.5923     0.1821
  472    9.420   5301.19     1.5935     0.0502     0.2525     0.0942     1.6895     3.1457   150.7200     1.5388     0.0874
  473    9.440   5302.15     1.5377     0.0514     0.3119     0.0944     1.6643     3.3192   151.0400     1.5132     0.1368
  474    9.460   5303.13     1.4540     0.0500     0.2736     0.0946     1.5842     3.4106   151.3600     1.4328     0.1502
  475    9.480   5304.10     1.4421     0.0567     0.2744     0.0948     1.5484     3.9229   151.6800     1.3967     0.1134
  476    9.500   5305.10     1.5094     0.0658     0.3185     0.0950     1.6396     4.4207   152.0000     1.4876     0.1444
  477    9.520   5306.10     1.6837     0.0688     0.2747     0.0952     1.8098     4.1906   152.3200     1.6574     0.1238
  478    9.540   5307.11     1.8161     0.0630     0.1270     0.0954     1.8952     3.5006   152.6400     1.7425     0.0533
  479    9.560   5308.09     1.8698     0.0613     0.0299     0.0956     1.8868     3.2961   152.9600     1.7338    -0.0319
  480    9.580   5309.08     1.8920     0.0689     0.0780     0.0958     1.9143     3.6585   153.2800     1.7610    -0.0242
  481    9.600   5310.06     1.9808     0.0821     0.0403     0.0960     2.0087     4.1878   153.6000     1.8551    -0.0158
  482    9.620   5311.02     1.9590     0.0819     0.0526     0.0962     1.9749     4.1285   153.9200     1.8210    -0.0319
  483    9.640   5311.98     1.7960     0.0801    -0.0041     0.0964     1.8080     4.3499   154.2400     1.6538    -0.0414
  484    9.660   5312.98     1.6859     0.0804    -0.0220     0.0966     1.6764     4.6759   154.5600     1.5218    -0.0784
  485    9.680   5314.01     1.6155     0.0803     0.0081     0.0968     1.6090     4.9530   154.8800     1.4542    -0.0771
  486    9.700   5314.98     1.8184     0.0740    -0.0022     0.0970     1.8263     4.2799   155.2000     1.6711    -0.0463
  487    9.720   5315.95     1.7746     0.0619    -0.0617     0.0972     1.7590     3.4545   155.5200     1.6035    -0.0840
  488    9.740   5317.87     1.6970     0.0556    -0.0714     0.0974     1.6622     3.2475   155.8400     1.5064    -0.1193
  489    9.760   5321.98     1.6452     0.0524    -0.0384     0.0976     1.6243     3.0629   156.1600     1.4681    -0.0996
  490    9.780   5326.10     1.5934     0.0426    -0.0009     0.0978     1.5864     2.5013   156.4800     1.4299    -0.0798
  491    9.800   5327.89     1.4697     0.0363     0.0687     0.0980     1.4904     2.3467   156.8000     1.3336    -0.0361
  492    9.820   5328.85     1.3990     0.0328     0.0777     0.0982     1.4298     2.2614   157.1200     1.2727    -0.0196
  493    9.840   5329.81     1.4433     0.0328     0.1060     0.0984     1.4856     2.3073   157.4400     1.3282     0.0017
  494    9.860   5330.77     1.4867     0.0323     0.1509     0.0986     1.5448     2.1920   157.7600     1.3871     0.0287
  495    9.880   5331.83     1.4437     0.0281     0.1472     0.0988     1.5062     1.9391   158.0800     1.3482     0.0372
  496    9.900   5333.28     1.2780     0.0271     0.2177     0.0990     1.3505     2.0464   158.4000     1.1921     0.0617
  497    9.920   5354.43     1.2905     0.0261     0.3483     0.0992     1.4179     2.4552   158.7200     1.2592     0.1580
  498    9.940   5371.40     1.2855     0.0250     0.4459     0.0994     1.4626     1.9254   159.0400     1.3036     0.2474
  499    9.960   5372.39     1.2251     0.0253     0.4935     0.0996     1.4270     2.0551   159.3600     1.2676     0.3007
  500    9.980   5373.38     1.2062     0.0258     0.4961     0.0998     1.4153     2.1324   159.6800     1.2556     0.3169
  501   10.000   5374.39     1.2044     0.0257     0.5209     0.1000     1.4186     2.1394   160.0000     1.2586     0.3258
  502   10.020   5375.35     1.2115     0.0235     0.5590     0.1002     1.4406     1.9366   160.3200     1.2803     0.3479
  503   10.040   5376.35     1.2063     0.0239     0.5641     0.1004     1.4419     1.9841   160.6400     1.2813     0.3594
  504   10.060   5377.34     1.2253     0.0272     0.6421     0.1006     1.4861     2.2371   160.9600     1.3251     0.3925
  505   10.080   5378.31     1.3522     0.0288     0.6750     0.1008     1.6335     2.1802   161.2800     1.4722     0.3866
  506   10.100   5379.30     1.4762     0.0289     0.6903     0.1010     1.7656     1.9840   161.6000     1.6040     0.3667
  507   10.120   5380.31     1.5623     0.0327     0.6214     0.1012     1.8357     2.1166   161.9200     1.6738     0.3285
  508   10.140   5381.23     1.5880     0.0379     0.5771     0.1014     1.8322     2.3906   162.2400     1.6700     0.2875
  509   10.160   5382.22     1.6094     0.0436     0.5311     0.1016     1.8395     2.7139   162.5600     1.6769     0.2661
  510   10.180   5383.20     1.6379     0.0452     0.5161     0.1018     1.8526     2.7763   162.8800     1.6897     0.2422
  511   10.200   5384.20     1.6526     0.0451     0.4510     0.1020     1.8469     2.7399   163.2000     1.6837     0.2143
  512   10.220   5385.21     1.6316     0.0439     0.4497     0.1022     1.8229     2.6780   163.5200     1.6594     0.2129
  513   10.240   5386.16     1.6026     0.0421     0.4960     0.1024     1.7975     2.6217   163.8400     1.6337     0.2214
  514   10.260   5387.18     1.6067     0.0415     0.5588     0.1026     1.8366     2.5954   164.1600     1.6724     0.2660
  515   10.280   5388.12     1.6849     0.0384     0.5818     0.1028     1.9307     2.2941   164.4800     1.7662     0.2732
  516   10.300   5389.10     1.7131     0.0367     0.5843     0.1030     1.9589     2.1364   164.8000     1.7941     0.2687
  517   10.320   5390.10     1.6831     0.0363     0.5409     0.1032     1.9234     2.1426   165.1200     1.7583     0.2668
  518   10.340   5391.09     1.6393     0.0358     0.5010     0.1034     1.8475     2.1657   165.4400     1.6821     0.2333
  519   10.360   5392.11     1.5515     0.0357     0.5542     0.1036     1.7770     2.2794   165.7600     1.6112     0.2689
  520   10.380   5393.08     1.4837     0.0331     0.5880     0.1038     1.7285     2.2151   166.0800     1.5624     0.3066
  521   10.400   5394.04     1.4140     0.0292     0.6331     0.1040     1.6735     2.0369   166.4000     1.5071     0.3410
  522   10.420   5395.01     1.3879     0.0281     0.6431     0.1042     1.6566     2.0300   166.7200     1.4899     0.3594
  523   10.440   5395.98     1.3812     0.0274     0.6234     0.1044     1.6505     1.9744   167.0400     1.4834     0.3618
  524   10.460   5397.00     1.4273     0.0278     0.5771     0.1046     1.6679     1.9771   167.3600     1.5006     0.3124
  525   10.480   5397.98     1.4961     0.0274     0.6123     0.1048     1.7563     1.8447   167.6800     1.5887     0.3241
  526   10.500   5398.94     1.5269     0.0298     0.5931     0.1050     1.7735     1.9537   168.0000     1.6055     0.3003
  527   10.520   5399.94     1.5331     0.0318     0.5699     0.1052     1.7814     2.0781   168.3200     1.6131     0.3013
  528   10.540   5400.94     1.5648     0.0346     0.5115     0.1054     1.7866     2.2267   168.6400     1.6179     0.2613
  529   10.560   5401.95     1.6279     0.0340     0.5123     0.1056     1.8425     2.0993   168.9600     1.6735     0.2422
  530   10.580   5402.90     1.6440     0.0361     0.4800     0.1058     1.8499     2.1913   169.2800     1.6806     0.2288
  531   10.600   5403.90     1.6294     0.0345     0.4256     0.1060     1.8177     2.1148   169.6000     1.6481     0.2077
  532   10.620   5404.88     1.5857     0.0335     0.3829     0.1062     1.7524     2.0914   169.9200     1.5825     0.1837
  533   10.640   5405.85     1.4817     0.0337     0.4219     0.1064     1.6515     2.2483   170.2400     1.4812     0.2012
  534   10.660   5406.84     1.4159     0.0346     0.4414     0.1066     1.5993     2.4268   170.5600     1.4288     0.2311
  535   10.680   5407.79     1.3593     0.0323     0.4167     0.1068     1.5422     2.3677   170.8800     1.3713     0.2396
  536   10.700   5408.83     1.2797     0.0298     0.4040     0.1070     1.4517     2.3007   171.2000     1.2805     0.2363
  537   10.720   5409.81     1.2095     0.0284     0.3743     0.1072     1.3701     2.3151   171.5200     1.1986     0.2296
  538   10.740   5410.76     1.1719     0.0284     0.4143     0.1074     1.3332     2.4023   171.8400     1.1614     0.2382
  539   10.760   5411.76     1.1223     0.0273     0.4641     0.1076     1.3125     2.4176   172.1600     1.1403     0.3027
  540   10.780   5414.66     1.1414     0.0153     0.4732     0.1078     1.3392     1.3642   172.4800     1.1668     0.3116
  541   10.800   5419.30     1.1795     0.0064     0.4793     0.1080     1.3799     0.5693   172.8000     1.2071     0.3062
  542   10.820   5423.93     1.2176     0.0153     0.5095     0.1082     1.4206     1.2612   173.1200     1.2475     0.3007
  543   10.840   5425.11     1.2447     0.0325     0.5444     0.1084     1.4700     2.6685   173.4400     1.2966     0.3301
  544   10.860   5426.09     1.4664     0.0406     0.5943     0.1086     1.7062     3.1188   173.7600     1.5324     0.3023
  545   10.880   5427.14     3.6775     0.0495     0.6643     0.1088     3.9451     2.1056   174.0800     3.7710     0.1425
  546   10.900   5428.14     7.4579     0.0647     0.4042     0.1090     7.7394     1.0510   174.4000     7.5650     0.0747
  547   10.920   5429.21    10.8247     0.0556     0.0086     0.1092    10.8559     0.5603   174.7200    10.6811    -0.0032
  548   10.940   5430.27    12.5678     0.0806    -0.0593     0.1094    12.5512     0.6440   175.0400    12.3762    -0.0120
  549   10.960   5431.25    13.6025     0.0867    -0.0631     0.1096    13.5705     0.6610   175.3600    13.3951    -0.0139
  550   10.980   5432.28    14.9140     0.0864    -0.1189     0.1098    14.8813     0.6040   175.6800    14.7056    -0.0127
  551   11.000   5433.76    17.2718     0.0701    -0.1780     0.1100    17.1870     0.4268   176.0000    17.0110    -0.0183
  552   11.020   5435.52    18.9252     0.0663    -0.1726     0.1102    18.8565     0.3729   176.3200    18.6802    -0.0147
  553   11.040   5436.60    22.0064     0.0668    -0.1183     0.1104    21.9406     0.3250   176.6400    21.7640    -0.0123
  554   11.060   5438.88    23.0572     0.0739    -0.0715     0.1106    23.0260     0.3347   176.9600    22.8491    -0.0081
  555   11.080   5439.85    24.7270     0.0779    -0.0999     0.1108    24.6940     0.3151   177.2800    24.5167    -0.0077
  556   11.100   5440.83    24.2961     0.0729    -0.1754     0.1110    24.2305     0.2968   177.6000    24.0529    -0.0111
  557   11.120   5441.78    23.4345     0.0743    -0.1974     0.1112    23.3528     0.3102   177.9200    23.1749    -0.0132
  558   11.140   5442.71    22.3450     0.0705    -0.2311     0.1114    22.2529     0.3083   178.2400    22.0746    -0.0150
  559   11.160   5443.68    20.8694     0.0681    -0.2533     0.1116    20.7666     0.3254   178.5600    20.5880    -0.0173
  560   11.180   5444.58    19.7531     0.0655    -0.2721     0.1118    19.6410     0.3240   178.8800    19.4621    -0.0195
  561   11.200   5445.49    19.0147     0.0625    -0.2793     0.1120    18.8982     0.3238   179.2000    18.7190    -0.0208
  562   11.220   5446.42    18.5884     0.0592    -0.2797     0.1122    18.4705     0.3163   179.5200    18.2909    -0.0215
  563   11.240   5447.34    18.4762     0.0580    -0.2817     0.1124    18.3579     0.3138   179.8400    18.1781    -0.0217
  564   11.260   5448.30    18.7636     0.0648    -0.2826     0.1126    18.6451     0.3482   180.1600    18.4649    -0.0214
  565   11.280   5449.27    19.3864     0.0678    -0.2829     0.1128    19.2677     0.3547   180.4800    19.0872    -0.0207
  566   11.300   5450.18    20.2573     0.0723    -0.2822     0.1130    20.1386     0.3639   180.8000    19.9578    -0.0198
  567   11.320   5451.16    21.2788     0.0761    -0.2792     0.1132    21.1611     0.3642   181.1200    20.9800    -0.0188
  568   11.340   5452.08    21.6635     0.0791    -0.2767     0.1134    21.5469     0.3669   181.4400    21.3654    -0.0183
  569   11.360   5453.05    22.1169     0.0832    -0.2740     0.1136    22.0016     0.3801   181.7600    21.8198    -0.0178
  570   11.380   5454.00    22.2887     0.0881    -0.2738     0.1138    22.1737     0.3952   182.0800    21.9916    -0.0176
  571   11.400   5454.95    22.2220     0.0887    -0.2714     0.1140    22.1075     0.3990   182.4000    21.9251    -0.0176
  572   11.420   5455.91    22.2559     0.0936    -0.2673     0.1142    22.1431     0.4206   182.7200    21.9604    -0.0174
  573   11.440   5456.85    22.3779     0.0958    -0.2635     0.1144    22.2667     0.4286   183.0400    22.0836    -0.0172
  574   11.460   5457.77    22.5734     0.1013    -0.2612     0.1146    22.4634     0.4497   183.3600    22.2800    -0.0169
  575   11.480   5458.72    23.1111     0.1062    -0.2556     0.1148    23.0026     0.4615   183.6800    22.8189    -0.0164
  576   11.500   5459.74    24.7290     0.1003    -0.2460     0.1150    24.6244     0.4130   184.0000    24.4404    -0.0149
  577   11.520   5460.70    27.1630     0.0971    -0.2346     0.1152    27.0628     0.3659   184.3200    26.8785    -0.0132
  578   11.540   5461.73    29.6399     0.0973    -0.2201     0.1154    29.5451     0.3363   184.6400    29.3604    -0.0116
  579   11.560   5462.69    31.8731     0.0984    -0.1923     0.1156    31.7864     0.3159   184.9600    31.6015    -0.0102
  580   11.580   5463.70    33.3622     0.0977    -0.1766     0.1158    33.2866     0.2960   185.2800    33.1013    -0.0089
  581   11.600   5464.68    33.5790     0.1040    -0.1650     0.1160    33.5080     0.3099   185.6000    33.3224    -0.0086
  582   11.620   5465.60    33.0921     0.1208    -0.1511     0.1162    33.0277     0.3631   185.9200    32.8418    -0.0082
  583   11.640   5466.56    31.9710     0.1211    -0.1467     0.1164    31.9079     0.3746   186.2400    31.7217    -0.0084
  584   11.660   5467.47    31.0100     0.1255    -0.1303     0.1166    30.9529     0.4033   186.5600    30.7663    -0.0082
  585   11.680   5468.48    31.4001     0.1175    -0.1117     0.1168    31.3501     0.3772   186.8800    31.1632    -0.0076
  586   11.700   5469.48    33.0020     0.1072    -0.0711     0.1170    32.9646     0.3322   187.2000    32.7774    -0.0063
  587   11.720   5470.46    35.3124     0.0951    -0.0351     0.1172    35.2973     0.2768   187.5200    35.1098    -0.0044
  588   11.740   5471.43    36.0387     0.0898    -0.0796     0.1174    36.0112     0.2584   187.8400    35.8233    -0.0051
  589   11.760   5472.36    35.2431     0.0861    -0.1284     0.1176    35.1925     0.2480   188.1600    35.0043    -0.0068
  590   11.780   5473.34    33.3883     0.0841    -0.1624     0.1178    33.3207     0.2447   188.4800    33.1322    -0.0084
  591   11.800   5474.24    30.8768     0.0944    -0.1713     0.1180    30.8068     0.2940   188.8000    30.6180    -0.0093
  592   11.820   5475.17    28.2358     0.1079    -0.1673     0.1182    28.1653     0.3648   189.1200    27.9762    -0.0102
  593   11.840   5481.59    25.9500     0.1057    -0.1071     0.1184    25.8939     0.3698   189.4400    25.7045    -0.0096
  594   11.860   5495.21    24.2615     0.1034    -0.0304     0.1186    24.2376     0.3748   189.7600    24.0479    -0.0070
  595   11.880   5508.83    22.5729     0.1016     0.0384     0.1188    22.5812     0.3869   190.0800    22.3912    -0.0043
  596   11.900   5512.41    22.6350     0.1164     0.0589     0.1190    22.6571     0.5176   190.4000    22.4667    -0.0030
  597   11.920   5513.40    22.5390     0.1330     0.0154     0.1192    22.5553     0.5873   190.7200    22.3646    -0.0036
  598   11.940   5515.62    20.9400     0.1468     0.0307     0.1194    20.9507     0.6597   191.0400    20.7597    -0.0045
  599   11.960   5518.40    19.0512     0.1586     0.0460     0.1196    19.0682     0.7130   191.3600    18.8769    -0.0041
  600   11.980   5521.18    17.1624     0.1544     0.0613     0.1198    17.1859     0.6939   191.6800    16.9942    -0.0037
  601   12.000   5522.86    16.7703     0.1421     0.1146     0.1200    16.8113     0.8652   192.0000    16.6193    -0.0014
  602   12.020   5523.84    20.0123     0.1262     0.1732     0.1202    20.0769     0.6732   192.3200    19.8846     0.0017
  603   12.040   5524.84    23.6443     0.1061     0.0686     0.1204    23.6933     0.4818   192.6400    23.5007    -0.0001
  604   12.060   5525.79    25.5550     0.0887    -0.1277     0.1206    25.5322     0.3563   192.9600    25.3392    -0.0069
  605   12.080   5526.72    25.5271     0.0611    -0.1771     0.1208    25.4551     0.2381   193.2800    25.2618    -0.0116
  606   12.100   5527.69    24.3755     0.0527    -0.1833     0.1210    24.2983     0.2151   193.6000    24.1047    -0.0126
  607   12.120   5528.61    22.7084     0.0586    -0.1828     0.1212    22.6321     0.2563   193.9200    22.4381    -0.0135
  608   12.140   5529.56    20.3503     0.0694    -0.1870     0.1214    20.2721     0.3388   194.2400    20.0779    -0.0153
  609   12.160   5530.48    17.9117     0.0954    -0.1812     0.1216    17.8343     0.4964   194.5600    17.6397    -0.0174
  610   12.180   5531.35    15.5568     0.1091    -0.1738     0.1218    15.4826     0.6512   194.8800    15.2877    -0.0195
  611   12.200   5532.27    13.4521     0.1415    -0.1563     0.1220    13.3836     1.0069   195.2000    13.1884    -0.0216
  612   12.220   5533.17    11.8128     0.1632    -0.1319     0.1222    11.7547     1.3537   195.5200    11.5592    -0.0225
  613   12.240   5534.11    10.7995     0.1677    -0.1026     0.1224    10.7512     1.5462   195.8400    10.5554    -0.0225
  614   12.260   5535.11     9.7879     0.1510    -0.0884     0.1226     9.7508     1.5299   196.1600     9.5547    -0.0221
  615   12.280   5536.01     8.8206     0.1369    -0.0291     0.1228     8.7897     1.5431   196.4800     8.5933    -0.0228
  616   12.300   5537.04     8.4969     0.1289     0.1312     0.1230     8.5367     1.5330   196.8000     8.3399    -0.0035
  617   12.320   5538.16    10.9476     0.1151     0.1776     0.1232    11.0029     1.1108   197.1200    10.8057     0.0008
  618   12.340   5539.16    15.3031     0.1008     0.2393     0.1234    15.4324     0.7412   197.4400    15.2350     0.0121
  619   12.360   5540.15    20.6516     0.0856     0.0208     0.1236    20.7134     0.4552   197.7600    20.5157     0.0012
  620   12.380   5541.12    24.5094     0.0761    -0.0974     0.1238    24.4740     0.3286   198.0800    24.2759    -0.0086
  621   12.400   5542.07    26.5623     0.0682    -0.1240     0.1240    26.5142     0.2610   198.4000    26.3158    -0.0091
  622   12.420   5543.08    27.5250     0.0647    -0.1381     0.1242    27.4683     0.2354   198.7200    27.2696    -0.0095
  623   12.440   5544.03    27.3735     0.0745    -0.1398     0.1244    27.3144     0.2717   199.0400    27.1154    -0.0098
  624   12.460   5544.94    26.1645     0.0859    -0.1377     0.1246    26.1064     0.3266   199.3600    25.9071    -0.0102
  625   12.480   5545.85    24.0409     0.0842    -0.1372     0.1248    23.9833     0.3479   199.6800    23.7836    -0.0110
  626   12.500   5546.73    21.0925     0.0785    -0.1337     0.1250    21.0346     0.3465   200.0000    20.8346    -0.0126
  627   12.520   5547.63    18.4687     0.0773    -0.1251     0.1252    18.4144     0.3920   200.3200    18.2140    -0.0140
  628   12.540   5548.55    15.8760     0.0786    -0.1141     0.1254    15.8261     0.4656   200.6400    15.6255    -0.0157
  629   12.560   5549.51    13.3595     0.0812    -0.0975     0.1256    13.3165     0.5701   200.9600    13.1155    -0.0174
  630   12.580   5550.41    11.4864     0.0829    -0.0800     0.1258    11.4495     0.6961   201.2800    11.2483    -0.0190
  631   12.600   5551.38     9.8286     0.0891    -0.0541     0.1260     9.8013     0.8728   201.6000     9.5997    -0.0199
  632   12.620   5552.33     8.4980     0.0926    -0.0094     0.1262     8.4865     1.0601   201.9200     8.2846    -0.0185
  633   12.640   5553.31     7.4718     0.0959     0.0186     0.1264     7.4756     1.2498   202.2400     7.2733    -0.0161
  634   12.660   5554.30     6.8663     0.1010     0.0451     0.1266     6.8812     1.4430   202.5600     6.6786    -0.0137
  635   12.680   5555.31     6.2817     0.1065     0.1094     0.1268     6.3220     1.6508   202.8800     6.1191    -0.0050
  636   12.700   5556.29     5.3803     0.1090     0.0995     0.1270     5.4222     1.9402   203.2000     5.2190    -0.0053
  637   12.720   5557.27     4.3031     0.1054     0.1119     0.1272     4.3512     2.3300   203.5200     4.1477    -0.0031
  638   12.740   5558.19     3.3586     0.0916     0.1290     0.1274     3.4017     2.6063   203.8400     3.1979    -0.0077
  639   12.760   5559.18     2.7413     0.0791     0.2387     0.1276     2.8195     2.7931   204.1600     2.6153     0.0225
  640   12.780   5560.14     2.3196     0.0750     0.3525     0.1278     2.4636     3.1470   204.4800     2.2591     0.0954
  641   12.800   5561.17     2.2853     0.0727     0.4326     0.1280     2.4562     3.1809   204.8000     2.2514     0.1239
  642   12.820   5562.12     2.3195     0.0579     0.4082     0.1282     2.5031     2.5023   205.1200     2.2980     0.1345
  643   12.840   5563.11     2.2749     0.0451     0.3299     0.1284     2.4258     1.9653   205.4400     2.2204     0.1039
  644   12.860   5564.12     2.1453     0.0531     0.2965     0.1286     2.2699     2.4456   205.7600     2.0641     0.0813
  645   12.880   5565.06     2.2778     0.0699     0.3936     0.1288     2.4229     3.1567   206.0800     2.2168     0.0974
  646   12.900   5566.05     2.9398     0.0779     0.4554     0.1290     3.1277     2.7635   206.4000     2.9213     0.1092
  647   12.920   5567.10     3.3552     0.0788     0.2553     0.1292     3.5149     2.3794   206.7200     3.3082     0.0759
  648   12.940   5568.07     3.3521     0.0924     0.0801     0.1294     3.3925     2.7407   207.0400     3.1854    -0.0105
  649   12.960   5569.03     3.1748     0.0915     0.0711     0.1296     3.2072     2.8575   207.3600     2.9999    -0.0175
  650   12.980   5570.03     2.8076     0.0841     0.0923     0.1298     2.8400     2.9616   207.6800     2.6323    -0.0199
  651   13.000   5571.00     2.4838     0.0863     0.1463     0.1300     2.5356     3.4337   208.0000     2.3276    -0.0028
  652   13.020   5571.99     2.3991     0.0793     0.2363     0.1302     2.4823     3.3540   208.3200     2.2739     0.0296
  653   13.040   5573.00     3.0931     0.0698     0.3735     0.1304     3.2447     2.3840   208.6400     3.0360     0.0753
  654   13.060   5574.02     4.2335     0.0812     0.2248     0.1306     4.3591     1.9552   208.9600     4.1501     0.0410
  655   13.080   5575.03     4.9756     0.0866    -0.0085     0.1308     4.9895     1.7924   209.2800     4.7802    -0.0201
  656   13.100   5576.05     5.4097     0.0850    -0.0128     0.1310     5.4016     1.5914   209.6000     5.1920    -0.0290
  657   13.120   5576.98     5.8285     0.0971    -0.0105     0.1312     5.8280     1.7018   209.9200     5.6181    -0.0236
  658   13.140   5578.01     6.2665     0.1269    -0.0663     0.1314     6.2473     2.0314   210.2400     6.0371    -0.0293
  659   13.160   5579.00     6.2396     0.1461    -0.1308     0.1316     6.1885     2.3185   210.5600     5.9779    -0.0424
  660   13.180   5580.01     5.6119     0.1396    -0.1450     0.1318     5.5538     2.4125   210.8800     5.3429    -0.0507
  661   13.200   5580.96     4.8229     0.1200    -0.1330     0.1320     4.7632     2.3938   211.2000     4.5520    -0.0603
  662   13.220   5581.93     3.9778     0.1036    -0.0935     0.1322     3.9330     2.5040   211.5200     3.7215    -0.0642
  663   13.240   5582.88     3.2155     0.1135    -0.0275     0.1324     3.1904     3.3473   211.8400     2.9785    -0.0644
  664   13.260   5583.86     2.9424     0.1206     0.1032     0.1326     2.9754     4.0833   212.1600     2.7632    -0.0195
  665   13.280   5584.86     3.0945     0.1042     0.1246     0.1328     3.1406     3.4027   212.4800     2.9281    -0.0080
  666   13.300   5585.87     3.4937     0.0830     0.0513     0.1330     3.5246     2.4049   212.8000     3.3118    -0.0178
  667   13.320   5586.85     3.4857     0.0721    -0.0321     0.1332     3.4816     2.0629   213.1200     3.2685    -0.0438
  668   13.340   5587.83     3.4283     0.0836     0.0456     0.1334     3.4300     2.4364   213.4400     3.2166    -0.0402
  669   13.360   5588.78     3.4810     0.0822     0.1033     0.1336     3.5189     2.3974   213.7600     3.3052    -0.0132
  670   13.380   5589.82     4.2446     0.0825     0.2331     0.1338     4.3287     1.9966   214.0800     4.1147     0.0160
  671   13.400   5590.82     5.2578     0.0718     0.2505     0.1340     5.3651     1.3880   214.4000     5.1507     0.0237
  672   13.420   5591.84     6.7456     0.0674     0.0164     0.1342     6.7993     1.0206   214.7200     6.5846    -0.0005
  673   13.440   5592.87     8.0268     0.0623    -0.0089     0.1344     8.0203     0.7958   215.0400     7.8052    -0.0192
  674   13.460   5593.85     8.9826     0.0543    -0.0321     0.1346     8.9758     0.6109   215.3600     8.7604    -0.0172
  675   13.480   5594.81     9.8463     0.0685    -0.0330     0.1348     9.8354     0.6984   215.6800     9.6198    -0.0167
  676   13.500   5595.84     9.6935     0.0827    -0.0728     0.1350     9.6699     0.8416   216.0000     9.4539    -0.0202
  677   13.520   5596.87     8.6275     0.0985    -0.0737     0.1352     8.5963     1.1023   216.3200     8.3800    -0.0250
  678   13.540   5597.81     7.2795     0.1146    -0.0690     0.1354     7.2496     1.5231   216.6400     7.0329    -0.0294
  679   13.560   5598.83     6.2008     0.1342    -0.0524     0.1356     6.1763     2.1131   216.9600     5.9594    -0.0326
  680   13.580   5599.82     5.7021     0.1522     0.0010     0.1358     5.6909     2.6503   217.2800     5.4736    -0.0296
  681   13.600   5600.74     5.3976     0.1528     0.0146     0.1360     5.4057     2.8065   217.6000     5.1881    -0.0225
  682   13.620   5601.75     4.6340     0.1505     0.0687     0.1362     4.6525     3.1605   217.9200     4.4346    -0.0207
  683   13.640   5602.74     3.9015     0.1403     0.0089     0.1364     3.9082     3.4993   218.2400     3.6899    -0.0327
  684   13.660   5603.78     3.4807     0.1283     0.0881     0.1366     3.5010     3.6768   218.5600     3.2825    -0.0269
  685   13.680   5604.75     3.7372     0.1069     0.1383     0.1368     3.7894     2.9187   218.8800     3.5705    -0.0036
  686   13.700   5605.75     4.3203     0.1012     0.1504     0.1370     4.3811     2.3676   219.2000     4.1619     0.0018
  687   13.720   5606.73     4.6028     0.0965     0.0467     0.1372     4.6451     2.1134   219.5200     4.4256    -0.0082
  688   13.740   5607.69     4.9755     0.0976     0.0051     0.1374     4.9786     1.9784   219.8400     4.7588    -0.0273
  689   13.760   5608.74     5.4066     0.0946     0.0083     0.1376     5.4138     1.7596   220.1600     5.1936    -0.0232
  690   13.780   5609.75     6.3153     0.1133    -0.0301     0.1378     6.3091     1.8154   220.4800     6.0886    -0.0250
  691   13.800   5610.71     7.4440     0.1299    -0.0775     0.1380     7.4179     1.8929   220.8000     7.1971    -0.0278
  692   13.820   5611.68     7.9500     0.1283    -0.0947     0.1382     7.9106     1.6144   221.1200     7.6895    -0.0301
  693   13.840   5612.66     7.7274     0.1216    -0.1216     0.1384     7.6800     1.5704   221.4400     7.4586    -0.0337
  694   13.860   5613.71     7.7990     0.1200    -0.0855     0.1386     7.7568     1.4420   221.7600     7.5351    -0.0318
  695   13.880   5614.82    10.6862     0.1220    -0.0572     0.1388    10.6616     1.2727   222.0800    10.4395    -0.0190
  696   13.900   5615.81    13.5391     0.1298    -0.0536     0.1390    13.5139     1.0568   222.4000    13.2915    -0.0150
  697   13.920   5616.80    15.8869     0.1350    -0.1054     0.1392    15.8571     0.9051   222.7200    15.6344    -0.0134
  698   13.940   5617.74    16.7156     0.1397    -0.1564     0.1394    16.6528     0.8434   223.0400    16.4297    -0.0176
  699   13.960   5624.16    16.5996     0.1454    -0.0224     0.1396    16.5675     0.8762   223.3600    16.3442    -0.0132
  700   13.980   5635.48    16.6182     0.1528     0.0909     0.1398    16.6518     0.9206   223.6800    16.4282    -0.0036
  701   14.000   5648.47    17.2755     0.1655     0.1145     0.1400    17.3202     0.9958   224.0000    17.0962    -0.0020
  702   14.020   5657.51    17.9718     0.1662     0.1286     0.1402    18.0237     0.9346   224.3200    17.7994    -0.0009
  703   14.040   5658.52    19.1293     0.1625     0.1279     0.1404    19.1859     0.8690   224.6400    18.9613    -0.0003
  704   14.060   5659.46    20.2598     0.1501     0.0996     0.1406    20.3069     0.7569   224.9600    20.0819    -0.0014
  705   14.080   5660.42    21.7247     0.1417    -0.0271     0.1408    21.7349     0.6690   225.2800    21.5097    -0.0054
  706   14.100   5661.40    22.7211     0.1304    -0.1199     0.1410    22.6791     0.5814   225.6000    22.4535    -0.0107
  707   14.120   5662.37    23.2979     0.1242    -0.1508     0.1412    23.2384     0.5387   225.9200    23.0125    -0.0123
  708   14.140   5663.34    23.5353     0.1276    -0.1564     0.1414    23.4706     0.5436   226.2400    23.2444    -0.0127
  709   14.160   5664.24    23.5021     0.1511    -0.1616     0.1416    23.4341     0.6418   226.5600    23.2075    -0.0131
  710   14.180   5665.18    23.2846     0.1779    -0.1677     0.1418    23.2145     0.7620   226.8800    22.9876    -0.0134
  711   14.200   5666.16    23.2155     0.1939    -0.1561     0.1420    23.1486     0.8353   227.2000    22.9214    -0.0131
  712   14.220   5667.08    23.2365     0.1982    -0.1506     0.1422    23.1734     0.8537   227.5200    22.9458    -0.0127
  713   14.240   5668.02    23.5221     0.2038    -0.1503     0.1424    23.4577     0.8704   227.8400    23.2299    -0.0127
  714   14.260   5669.01    23.6168     0.2001    -0.1342     0.1426    23.5582     0.8474   228.1600    23.3300    -0.0121
  715   14.280   5669.96    23.5096     0.1959    -0.1254     0.1428    23.4557     0.8316   228.4800    23.2272    -0.0117
  716   14.300   5670.96    23.3967     0.1868    -0.1146     0.1430    23.3471     0.7951   228.8000    23.1183    -0.0113
  717   14.320   5671.86    22.6645     0.1732    -0.1074     0.1432    22.6196     0.7507   229.1200    22.3904    -0.0112
  718   14.340   5672.78    21.7379     0.1678    -0.0963     0.1434    21.6937     0.7589   229.4400    21.4643    -0.0116
  719   14.360   5673.72    20.9920     0.1671    -0.0863     0.1436    20.9558     0.7860   229.7600    20.7260    -0.0111
  720   14.380   5674.63    20.3509     0.1657    -0.0764     0.1438    20.3183     0.8069   230.0800    20.0882    -0.0110
  721   14.400   5675.59    20.0814     0.1618    -0.0685     0.1440    20.0510     0.8038   230.4000    19.8206    -0.0109
  722   14.420   5676.55    20.3936     0.1436    -0.0538     0.1442    20.3678     0.7116   230.7200    20.1371    -0.0102
  723   14.440   5677.52    21.3556     0.1247    -0.0229     0.1444    21.3415     0.5979   231.0400    21.1105    -0.0084
  724   14.460   5678.46    22.2847     0.1120     0.0046     0.1446    22.2834     0.5109   231.3600    22.0520    -0.0067
  725   14.480   5679.42    22.6466     0.0983    -0.0037     0.1448    22.6481     0.4358   231.6800    22.4165    -0.0063
  726   14.500   5680.37    22.2969     0.0908    -0.0818     0.1450    22.2715     0.4054   232.0000    22.0395    -0.0093
  727   14.520   5681.31    21.8279     0.0924    -0.1111     0.1452    21.7882     0.4192   232.3200    21.5558    -0.0111
  728   14.540   5682.24    21.5192     0.1192    -0.1275     0.1454    21.4680     0.5536   232.6400    21.2353    -0.0126
  729   14.560   5683.18    21.0091     0.1713    -0.1383     0.1456    20.9535     0.8006   232.9600    20.7206    -0.0134
  730   14.580   5684.08    19.4895     0.2387    -0.1361     0.1458    19.4316     1.1803   233.2800    19.1984    -0.0148
  731   14.600   5685.00    17.6023     0.3226    -0.1249     0.1460    17.5475     1.7459   233.6000    17.3139    -0.0160
  732   14.620   5685.94    14.9810     0.3617    -0.1133     0.1462    14.9326     2.3015   233.9200    14.6987    -0.0178
  733   14.640   5686.84    13.1259     0.3371    -0.1026     0.1464    13.0794     2.4575   234.2400    12.8452    -0.0200
  734   14.660   5687.79    11.7424     0.2949    -0.0381     0.1466    11.7144     2.3611   234.5600    11.4798    -0.0186
  735   14.680   5688.73    10.6321     0.2526     0.0222     0.1468    10.6293     2.2647   234.8800    10.3944    -0.0148
  736   14.700   5689.67    10.2077     0.2009     0.2867     0.1470    10.2775     1.9651   235.2000    10.0423     0.0019
  737   14.720   5690.76    11.0468     0.1942     0.6761     0.1472    11.2568     1.8388   235.5200    11.0212     0.0317
  738   14.740   5691.91    18.0418     0.1668     0.9481     0.1474    18.4982     1.0466   235.8400    18.2623     0.0540
  739   14.760   5693.88    24.9384     0.1395     0.5467     0.1476    25.2262     0.8084   236.1600    24.9900     0.0334
  740   14.780   5695.85    31.8354     0.1067     0.1453     0.1478    31.9546     0.6184   236.4800    31.7181     0.0129
  741   14.800   5697.82    38.3619     0.0882    -0.1064     0.1480    38.3226     0.4256   236.8000    38.0858    -0.0063
  742   14.820   5700.67    34.6864     0.0933    -0.0695     0.1482    34.6594     0.2782   237.1200    34.4223    -0.0062
  743   14.840   5701.70    37.5053     0.1062    -0.0765     0.1484    37.4734     0.2804   237.4400    37.2359    -0.0060
  744   14.860   5702.63    35.8725     0.1109    -0.0723     0.1486    35.8415     0.3033   237.7600    35.6037    -0.0062
  745   14.880   5703.56    34.4943     0.0998    -0.0618     0.1488    34.4662     0.2849   238.0800    34.2281    -0.0063
  746   14.900   5704.48    33.0971     0.0800    -0.0426     0.1490    33.0752     0.2378   238.4000    32.8368    -0.0061
  747   14.920   5705.43    31.8150     0.0611    -0.0099     0.1492    31.8097     0.1896   238.7200    31.5709    -0.0051
  748   14.940   5706.41    30.8513     0.0642    -0.0657     0.1494    30.8308     0.2064   239.0400    30.5918    -0.0065
  749   14.960   5707.36    30.0280     0.0734    -0.1077     0.1496    29.9837     0.2433   239.3600    29.7443    -0.0086
  750   14.980   5708.31    29.5918     0.0770    -0.1346     0.1498    29.5378     0.2591   239.6800    29.2981    -0.0095
  751   15.000   5709.29    29.2962     0.0739    -0.1521     0.1500    29.2347     0.2518   240.0000    28.9947    -0.0102
  752   15.020   5710.23    29.1950     0.0779    -0.1455     0.1502    29.1315     0.2671   240.3200    28.8911    -0.0104
  753   15.040   5711.21    30.7386     0.0745    -0.1437     0.1504    30.6801     0.2478   240.6400    30.4395    -0.0095
  754   15.060   5712.24    33.6661     0.0725    -0.1077     0.1506    33.6078     0.2222   240.9600    33.3668    -0.0087
  755   15.080   5713.19    35.9176     0.0624    -0.1352     0.1508    35.8678     0.1765   241.2800    35.6265    -0.0076
  756   15.100   5714.16    35.8514     0.0570    -0.2028     0.1510    35.7743     0.1582   241.6000    35.5327    -0.0094
  757   15.120   5715.10    34.5381     0.0508    -0.2402     0.1512    34.4386     0.1442   241.9200    34.1967    -0.0114
  758   15.140   5716.06    33.0746     0.0389    -0.2285     0.1514    32.9776     0.1164   242.2400    32.7354    -0.0117
  759   15.160   5717.03    32.4977     0.0333    -0.2180     0.1516    32.4044     0.1019   242.5600    32.1618    -0.0116
  760   15.180   5717.97    32.3726     0.0429    -0.2102     0.1518    32.2833     0.1325   242.8800    32.0404    -0.0114
  761   15.200   5718.93    32.0385     0.0569    -0.2048     0.1520    31.9522     0.1767   243.2000    31.7090    -0.0113
  762   15.220   5719.84    31.5128     0.0685    -0.1992     0.1522    31.4286     0.2166   243.5200    31.1850    -0.0113
  763   15.240   5720.82    31.8137     0.0733    -0.1917     0.1524    31.7326     0.2320   243.8400    31.4887    -0.0110
  764   15.260   5721.77    32.6817     0.0727    -0.1840     0.1526    32.6032     0.2249   244.1600    32.3591    -0.0105
  765   15.280   5722.77    33.2956     0.0680    -0.1696     0.1528    33.2225     0.2049   244.4800    32.9781    -0.0099
  766   15.300   5723.75    33.5737     0.0647    -0.1438     0.1530    33.5088     0.1935   244.8000    33.2640    -0.0092
  767   15.320   5724.67    34.0161     0.0602    -0.1339     0.1532    33.9596     0.1777   245.1200    33.7145    -0.0085
  768   15.340   5725.65    33.5492     0.0575    -0.1097     0.1534    33.5016     0.1706   245.4400    33.2562    -0.0080
  769   15.360   5726.57    33.0383     0.0610    -0.0864     0.1536    32.9973     0.1837   245.7600    32.7515    -0.0077
  770   15.380   5727.53    33.1155     0.0715    -0.0556     0.1538    33.0877     0.2166   246.0800    32.8416    -0.0067
  771   15.400   5728.51    34.0287     0.0812    -0.0344     0.1540    34.0120     0.2403   246.4000    33.7656    -0.0057
  772   15.420   5729.51    35.0839     0.0905    -0.0122     0.1542    35.0755     0.2598   246.7200    34.8288    -0.0050
  773   15.440   5730.50    35.8305     0.0979     0.0058     0.1544    35.8314     0.2747   247.0400    35.5843    -0.0043
  774   15.460   5731.46    36.2180     0.1014     0.0092     0.1546    36.2209     0.2807   247.3600    35.9735    -0.0041
  775   15.480   5732.42    36.1242     0.0993     0.0238     0.1548    36.1322     0.2741   247.6800    35.8845    -0.0038
  776   15.500   5733.39    35.5954     0.0969     0.0253     0.1550    35.6044     0.2705   248.0000    35.3564    -0.0038
  777   15.520   5734.37    34.9714     0.0966     0.0609     0.1552    34.9963     0.2736   248.3200    34.7480    -0.0028
  778   15.540   5735.38    33.5915     0.0962     0.0523     0.1554    33.6153     0.2797   248.6400    33.3666    -0.0030
  779   15.560   5736.30    32.4654     0.0957     0.0673     0.1556    32.4918     0.2919   248.9600    32.2428    -0.0029
  780   15.580   5737.22    32.1396     0.0974     0.0757     0.1558    32.1705     0.3029   249.2800    31.9212    -0.0026
  781   15.600   5738.14    31.4501     0.1028     0.0874     0.1560    31.4870     0.3257   249.6000    31.2374    -0.0022
  782   15.620   5739.05    29.6670     0.1263     0.0767     0.1562    29.7020     0.4232   249.9200    29.4521    -0.0025
  783   15.640   5740.01    27.3569     0.1452     0.0596     0.1564    27.3826     0.5275   250.2400    27.1324    -0.0035
  784   15.660   5740.94    24.5206     0.1609     0.0727     0.1566    24.5495     0.6467   250.5600    24.2989    -0.0036
  785   15.680   5741.80    21.0552     0.1834     0.0638     0.1568    21.0823     0.8036   250.8800    20.8314    -0.0044
  786   15.700   5742.71    15.7650     0.1981     0.0693     0.1570    15.7905     1.1342   251.2000    15.5393    -0.0062
  787   15.720   5743.59    11.3667     0.2028     0.0934     0.1572    11.4009     1.6465   251.5200    11.1493    -0.0068
  788   15.740   5744.54     9.3257     0.2072     0.1669     0.1574     9.3852     2.1537   251.8400     9.1334    -0.0016
  789   15.760   5745.47     8.2102     0.2033     0.1823     0.1576     8.2871     2.5153   252.1600     8.0349     0.0032
  790   15.780   5746.48     6.9491     0.1995     0.1730     0.1578     7.0253     2.8769   252.4800     6.7728     0.0035
  791   15.800   5747.47     5.2163     0.1950     0.1653     0.1580     5.2818     3.7449   252.8000     5.0290    -0.0004
  792   15.820   5751.38     4.3445     0.1835     0.2372     0.1582     4.4337     4.0985   253.1200     4.1806     0.0159
  793   15.840   5756.03     3.7683     0.1485     0.3091     0.1584     3.8877     3.3158   253.4400     3.6343     0.0366
  794   15.860   5764.28     3.2920     0.1138     0.3431     0.1586     3.4312     3.1942   253.7600     3.1775     0.0573
  795   15.880   5774.51     2.8709     0.0861     0.3767     0.1588     3.0243     2.4151   254.0800     2.7702     0.0780
  796   15.900   5782.03     2.4217     0.0626     0.5045     0.1590     2.6086     2.4667   254.4000     2.3542     0.1223
  797   15.920   5782.98     2.0602     0.0547     0.7331     0.1592     2.3378     2.4180   254.7200     2.0831     0.2421
  798   15.940   5783.97     1.8631     0.0468     0.7550     0.1594     2.1728     2.3693   255.0400     1.9178     0.3016
  799   15.960   5784.96     1.7852     0.0342     0.7793     0.1596     2.1125     1.8977   255.3600     1.8571     0.3337
  800   15.980   5785.98     1.7574     0.0302     0.7773     0.1598     2.0821     1.7151   255.6800     1.8264     0.3359
  801   16.000   5786.95     1.7339     0.0271     0.7955     0.1600     2.0665     1.5566   256.0000     1.8105     0.3490
  802   16.020   5795.08     1.6710     0.0271     0.7968     0.1602     2.0054     1.5700   256.3200     1.7491     0.3647
  803   16.040   5805.65     1.5984     0.0265     0.7981     0.1604     1.9335     1.5367   256.6400     1.6768     0.3811
  804   16.060   5814.82     1.5251     0.0270     0.8464     0.1606     1.8666     1.7519   256.9600     1.6097     0.4054
  805   16.080   5815.83     1.4634     0.0277     0.8843     0.1608     1.8324     1.8828   257.2800     1.5752     0.4558
  806   16.100   5816.79     1.4301     0.0262     0.8993     0.1610     1.8047     1.8255   257.6000     1.5471     0.4725
  807   16.120   5817.77     1.4219     0.0202     0.9110     0.1612     1.8035     1.4193   257.9200     1.5456     0.4835
  808   16.140   5818.76     1.4322     0.0100     0.9420     0.1614     1.8236     0.7022   258.2400     1.5653     0.4922
  809   16.160   5819.79     1.4653     0.0070     0.9685     0.1616     1.8715     0.4766   258.5600     1.6129     0.4993
  810   16.180   5820.77     1.5647     0.0112     0.9842     0.1618     1.9746     0.7428   258.8800     1.7157     0.4773
  811   16.200   5821.77     3.3245     0.0187     1.0343     0.1620     3.7481     0.6804   259.2000     3.4889     0.2451
  812   16.220   5822.74     6.6324     0.0295     0.8123     0.1622     7.0346     0.5330   259.5200     6.7751     0.1189
  813   16.240   5823.78     9.8329     0.0497     0.3239     0.1624    10.0630     0.5334   259.8400     9.8032     0.0395
  814   16.260   5824.77     9.8772     0.0762     0.1599     0.1626     9.9485     0.7597   260.1600     9.6884     0.0007
  815   16.280   5825.69     8.3458     0.1101     0.1231     0.1628     8.4004     1.2637   260.4800     8.1399    -0.0040
  816   16.300   5826.67     6.4263     0.1219     0.1260     0.1630     6.4763     1.7791   260.8000     6.2155    -0.0071
  817   16.320   5827.59     5.0262     0.1260     0.1473     0.1632     5.0839     2.4156   261.1200     4.8228    -0.0053
  818   16.340   5828.62     3.9915     0.1234     0.1758     0.1634     4.0627     2.9572   261.4400     3.8013     0.0017
  819   16.360   5829.60     3.4191     0.1127     0.1787     0.1636     3.4941     3.1909   261.7600     3.2323     0.0046
  820   16.380   5830.57     2.8657     0.0971     0.1777     0.1638     2.9404     3.2310   262.0800     2.6783     0.0052
  821   16.400   5831.56     2.2578     0.0840     0.2511     0.1640     2.3411     3.5475   262.4000     2.0787     0.0168
  822   16.420   5832.50     1.8573     0.0685     0.4832     0.1642     2.0270     3.5138   262.7200     1.7643     0.1378
  823   16.440   5833.53     1.4907     0.0519     0.6630     0.1644     1.7457     3.3272   263.0400     1.4826     0.2998
  824   16.460   5834.46     1.3321     0.0439     0.7874     0.1646     1.6490     3.2562   263.3600     1.3856     0.4258
  825   16.480   5835.46     1.2975     0.0309     0.8330     0.1648     1.6415     2.3866   263.6800     1.3779     0.4749
  826   16.500   5836.44     1.3310     0.0260     0.8528     0.1650     1.6886     1.9655   264.0000     1.4246     0.4818
  827   16.520   5837.43     1.3550     0.0239     0.8236     0.1652     1.7046     1.7680   264.3200     1.4403     0.4632
  828   16.540   5838.39     1.4277     0.0246     0.8341     0.1654     1.7811     1.7563   264.6400     1.5165     0.4460
  829   16.560   5839.36     1.4981     0.0267     0.7851     0.1656     1.8332     1.7886   264.9600     1.5682     0.4031
  830   16.580   5840.35     1.5677     0.0283     0.7118     0.1658     1.8721     1.8267   265.2800     1.6068     0.3480
  831   16.600   5841.37     1.7216     0.0424     0.7083     0.1660     2.0163     2.5483   265.6000     1.7507     0.3066
  832   16.620   5842.34     2.0354     0.0428     0.6283     0.1662     2.3049     2.1314   265.9200     2.0390     0.2334
  833   16.640   5843.32     2.3060     0.0516     0.5221     0.1664     2.5397     2.2681   266.2400     2.2735     0.1719
  834   16.660   5844.27     2.5618     0.0549     0.4423     0.1666     2.7670     2.1588   266.5600     2.5004     0.1289
  835   16.680   5845.25     2.8826     0.0540     0.3704     0.1668     3.0463     1.9012   266.8800     2.7794     0.0803
  836   16.700   5846.28     3.8723     0.0511     0.3072     0.1670     4.0036     1.4221   267.2000     3.7364     0.0393
  837   16.720   5847.30     6.3146     0.0489     0.1522     0.1672     6.4243     0.8522   267.5200     6.1568     0.0161
  838   16.740   5848.30     8.3646     0.0469    -0.0219     0.1674     8.3778     0.5899   267.8400     8.1099    -0.0167
  839   16.760   5849.31     9.2715     0.0547    -0.0764     0.1676     9.2398     0.6003   268.1600     8.9716    -0.0271
  840   16.780   5850.28     9.3013     0.0774    -0.0956     0.1678     9.2662     0.8260   268.4800     8.9978    -0.0279
  841   16.800   5851.25     8.2611     0.1043    -0.1283     0.1680     8.2097     1.2229   268.8000     7.9409    -0.0366
  842   16.820   5852.23     6.6024     0.1199    -0.1269     0.1682     6.5480     1.7481   269.1200     6.2789    -0.0474
  843   16.840   5853.23     5.1607     0.1153    -0.1249     0.1684     5.1084     2.1338   269.4400     4.8390    -0.0606
  844   16.860   5854.21     4.2860     0.1103    -0.1151     0.1686     4.2350     2.4963   269.7600     3.9653    -0.0732
  845   16.880   5855.15     3.8234     0.1046    -0.0663     0.1688     3.7851     2.6994   270.0800     3.5150    -0.0739
  846   16.900   5856.13     3.7429     0.1078     0.0457     0.1690     3.7487     2.8766   270.4000     3.4783    -0.0447
  847   16.920   5857.15     3.7690     0.1068     0.0394     0.1692     3.7854     2.8659   270.7200     3.5147    -0.0371
  848   16.940   5858.13     4.0606     0.1166     0.0250     0.1694     4.0811     2.9220   271.0400     3.8100    -0.0317
  849   16.960   5859.09     3.7921     0.1253     0.0018     0.1696     3.7916     3.2958   271.3600     3.5203    -0.0485
  850   16.980   5860.09     3.8503     0.1287     0.0058     0.1698     3.8538     3.3482   271.6800     3.5821    -0.0450
  851   17.000   5861.07     4.1284     0.1268     0.0687     0.1700     4.1469     3.1009   272.0000     3.8749    -0.0325
  852   17.020   5862.08     3.6859     0.1310     0.2447     0.1702     3.7594     3.5248   272.3200     3.4871     0.0015
  853   17.040   5863.09     4.0520     0.1298     0.3307     0.1704     4.1942     3.2747   272.6400     3.9216     0.0426
  854   17.060   5864.11     5.0471     0.1184     0.0743     0.1706     5.1103     2.4315   272.9600     4.8374    -0.0037
  855   17.080   5865.10     5.5921     0.1008    -0.0296     0.1708     5.5829     1.8275   273.2800     5.3096    -0.0362
  856   17.100   5866.03     6.0330     0.0927    -0.0204     0.1710     6.0209     1.5568   273.6000     5.7473    -0.0347
  857   17.120   5867.06     5.9537     0.0759    -0.0272     0.1712     5.9469     1.2617   273.9200     5.6730    -0.0331
  858   17.140   5868.10     5.5929     0.0698    -0.0541     0.1714     5.5750     1.2343   274.2400     5.3008    -0.0404
  859   17.160   5869.06     5.3728     0.0738    -0.0529     0.1716     5.3484     1.3548   274.5600     5.0738    -0.0453
  860   17.180   5870.03     5.1407     0.0834    -0.0287     0.1718     5.1252     1.6124   274.8800     4.8504    -0.0430
  861   17.200   5871.00     5.1368     0.0970    -0.0145     0.1720     5.1270     1.8879   275.2000     4.8518    -0.0403
  862   17.220   5872.00     5.0798     0.1104     0.0342     0.1722     5.0874     2.1649   275.5200     4.8119    -0.0320
  863   17.240   5872.97     4.7190     0.1124     0.0635     0.1724     4.7439     2.3247   275.8400     4.4681    -0.0253
  864   17.260   5873.97     3.9946     0.1028     0.0531     0.1726     4.0196     2.4862   276.1600     3.7434    -0.0304
  865   17.280   5874.92     3.3948     0.0905     0.0971     0.1728     3.4276     2.6040   276.4800     3.1512    -0.0300
  866   17.300   5875.90     3.0390     0.0821     0.2241     0.1730     3.1151     2.6751   276.8000     2.8383     0.0030
  867   17.320   5876.90     3.2469     0.0805     0.2177     0.1732     3.3330     2.5493   277.1200     3.0558     0.0102
  868   17.340   5877.92     4.4022     0.0704     0.2415     0.1734     4.5113     1.6867   277.4400     4.2339     0.0207
  869   17.360   5878.91     5.3890     0.0629     0.1611     0.1736     5.4664     1.1840   277.7600     5.1886     0.0021
  870   17.380   5879.90     5.8919     0.0515     0.0071     0.1738     5.9094     0.8804   278.0800     5.6313    -0.0234
  871   17.400   5880.85     6.2117     0.0548    -0.0397     0.1740     6.2010     0.8888   278.4000     5.9226    -0.0337
  872   17.420   5881.85     6.9263     0.0669    -0.0157     0.1742     6.9156     0.9759   278.7200     6.6369    -0.0301
  873   17.440   5882.87     7.5996     0.0847    -0.0073     0.1744     7.5882     1.1247   279.0400     7.3092    -0.0276
  874   17.460   5883.85     7.4897     0.0902    -0.0112     0.1746     7.4861     1.1955   279.3600     7.2067    -0.0255
  875   17.480   5884.86     6.8979     0.0970    -0.0300     0.1748     6.8901     1.3756   279.6800     6.6104    -0.0293
  876   17.500   5885.88     6.1273     0.0999    -0.0418     0.1750     6.1100     1.6014   280.0000     5.8300    -0.0371
  877   17.520   5886.85     5.6002     0.0956    -0.0141     0.1752     5.5870     1.6964   280.3200     5.3067    -0.0389
  878   17.540   5887.81     5.3523     0.0927     0.0822     0.1754     5.3758     1.7315   280.6400     5.0952    -0.0234
  879   17.560   5888.79     5.7442     0.0995     0.0499     0.1756     5.7778     1.7571   280.9600     5.4968    -0.0174
  880   17.580   5889.81     6.6682     0.1100    -0.0344     0.1758     6.6576     1.6690   281.2800     6.3763    -0.0315
  881   17.600   5890.82     7.4225     0.1227    -0.0320     0.1760     7.4070     1.6631   281.6000     7.1254    -0.0299
  882   17.620   5891.88     7.9933     0.1597    -0.0558     0.1762     7.9734     2.0225   281.9200     7.6915    -0.0291
  883   17.640   5892.84     7.8922     0.1610    -0.0485     0.1764     7.8663     2.0003   282.2400     7.5840    -0.0314
  884   17.660   5893.80     6.4433     0.1671     0.0263     0.1766     6.4422     2.4510   282.5600     6.1596    -0.0290
  885   17.680   5894.76     4.7440     0.1537    -0.0120     0.1768     4.7400     3.0401   282.8800     4.4571    -0.0420
  886   17.700   5895.79     3.8190     0.1191     0.1170     0.1770     3.8346     3.0298   283.2000     3.5514    -0.0391
  887   17.720   5896.79     3.3279     0.0948     0.1951     0.1772     3.4177     2.5337   283.5200     3.1342     0.0116
  888   17.740   5897.77     2.7829     0.0875     0.2758     0.1774     2.8692     2.1457   283.8400     2.5853     0.0109
  889   17.760   5898.71     2.8683     0.0802     0.5125     0.1776     3.0599     1.7578   284.1600     2.7758     0.1003
  890   17.780   5899.71     4.9475     0.0729     0.5328     0.1778     5.1768     1.3699   284.4800     4.8924     0.0755
  891   17.800   5900.74     7.0971     0.0678     0.2876     0.1780     7.2911     1.0275   284.8000     7.0063     0.0405
  892   17.820   5902.49     6.9555     0.0649     0.1173     0.1782     7.0058     0.9209   285.1200     6.7207    -0.0087
  893   17.840   5914.02     6.8463     0.0595     0.1101     0.1784     6.8935     0.8551   285.4400     6.6081    -0.0100
  894   17.860   5925.55     6.7370     0.0557     0.1029     0.1786     6.7813     0.7996   285.7600     6.4956    -0.0114
  895   17.880   5937.08     6.6278     0.0535     0.0957     0.1788     6.6691     0.7677   286.0800     6.3830    -0.0127
  896   17.900   5948.61     6.5186     0.0588     0.0875     0.1790     6.5568     0.8441   286.4000     6.2704    -0.0141
  897   17.920   5951.49     6.0878     0.0605     0.0613     0.1792     6.1206     0.9569   286.7200     5.8339    -0.0173
  898   17.940   5954.05     4.0693     0.0536     0.0496     0.1794     4.0897     1.1646   287.0400     3.8027    -0.0343
  899   17.960   5955.16     4.7299     0.0503     0.0491     0.1796     4.7494     1.0482   287.3600     4.4620    -0.0299
  900   17.980   5956.14     4.2173     0.0659     0.0437     0.1798     4.2350     1.5415   287.6800     3.9473    -0.0349
  901   18.000   5957.16     3.8445     0.0681     0.0714     0.1800     3.8707     1.7637   288.0000     3.5827    -0.0328
  902   18.020   5958.09     3.8726     0.0614     0.0948     0.1802     3.9165     1.6128   288.3200     3.6282    -0.0209
  903   18.040   5959.11     4.1668     0.0584     0.1011     0.1804     4.2024     1.4405   288.6400     3.9138    -0.0244
  904   18.060   5960.11     5.2387     0.0578     0.0767     0.1806     5.2802     1.2828   288.9600     4.9912    -0.0164
  905   18.080   5961.14     7.0273     0.0610     0.0293     0.1808     7.0438     0.9920   289.2800     6.7545    -0.0209
  906   18.100   5962.16     9.1251     0.0602    -0.0651     0.1810     9.1095     0.7559   289.6000     8.8199    -0.0247
  907   18.120   5963.16    11.6422     0.0600    -0.0859     0.1812    11.6056     0.5226   289.9200    11.3157    -0.0237
  908   18.140   5964.21    14.3878     0.0627    -0.0156     0.1814    14.3671     0.4441   290.2400    14.0768    -0.0164
  909   18.160   5965.26    16.8465     0.0636     0.0620     0.1816    16.8621     0.3874   290.5600    16.5715    -0.0088
  910   18.180   5966.26    19.9128     0.0698     0.0335     0.1818    19.9239     0.3599   290.8800    19.6330    -0.0079
  911   18.200   5967.24    22.9601     0.0778     0.0130     0.1820    22.9872     0.3456   291.2000    22.6960    -0.0052
  912   18.220   5968.24    26.2402     0.0854     0.0151     0.1822    26.2492     0.3324   291.5200    25.9577    -0.0062
  913   18.240   5969.21    29.4329     0.0909     0.0357     0.1824    29.4409     0.3177   291.8400    29.1491    -0.0056
  914   18.260   5970.19    32.6926     0.0948     0.1220     0.1826    32.7446     0.2979   292.1600    32.4525    -0.0018
  915   18.280   5971.19    35.0243     0.0990     0.1382     0.1828    35.0857     0.2882   292.4800    34.7932    -0.0011
  916   18.300   5972.25    36.3867     0.1017     0.1064     0.1830    36.4327     0.2817   292.8000    36.1399    -0.0020
  917   18.320   5973.21    36.1541     0.1021     0.1010     0.1832    36.1929     0.2811   293.1200    35.8998    -0.0025
  918   18.340   5974.14    35.2516     0.1044     0.1302     0.1834    35.3105     0.2923   293.4400    35.0170    -0.0012
  919   18.360   5975.07    33.5295     0.1055     0.1144     0.1836    33.5791     0.3098   293.7600    33.2853    -0.0020
  920   18.380   5975.99    31.8944     0.1100     0.1248     0.1838    31.9446     0.3396   294.0800    31.6505    -0.0020
  921   18.400   5976.96    30.7355     0.1084     0.1226     0.1840    30.7831     0.3518   294.4000    30.4887    -0.0023
  922   18.420   5977.93    31.0484     0.1054     0.1336     0.1842    31.1021     0.3415   294.7200    30.8073    -0.0018
  923   18.440   5978.85    31.6527     0.0989     0.1520     0.1844    31.7154     0.3139   295.0400    31.4204    -0.0011
  924   18.460   5979.85    31.5105     0.0916     0.1201     0.1846    31.5638     0.2897   295.3600    31.2684    -0.0018
  925   18.480   5980.81    31.4381     0.0792     0.0816     0.1848    31.4741     0.2515   295.6800    31.1784    -0.0032
  926   18.500   5981.76    31.1158     0.0746     0.0709     0.1850    31.1454     0.2381   296.0000    30.8494    -0.0037
  927   18.520   5982.71    30.4806     0.0693     0.0825     0.1852    30.5147     0.2253   296.3200    30.2184    -0.0034
  928   18.540   5983.71    30.0759     0.0715     0.1078     0.1854    30.1209     0.2370   296.6400    29.8242    -0.0026
  929   18.560   5984.64    29.9118     0.0698     0.0880     0.1856    29.9513     0.2328   296.9600    29.6543    -0.0031
  930   18.580   5985.56    29.2118     0.0672     0.0811     0.1858    29.2446     0.2268   297.2800    28.9473    -0.0037
  931   18.600   5986.51    28.1122     0.0701     0.1104     0.1860    28.1539     0.2460   297.6000    27.8563    -0.0031
  932   18.620   5987.45    27.6166     0.0728     0.1129     0.1862    27.6656     0.2629   297.9200    27.3677    -0.0025
  933   18.640   5988.40    27.7705     0.0690     0.1187     0.1864    27.8230     0.2491   298.2400    27.5247    -0.0022
  934   18.660   5989.40    28.0547     0.0660     0.1271     0.1866    28.1052     0.2355   298.5600    27.8067    -0.0024
  935   18.680   5990.34    27.9624     0.0611     0.1302     0.1868    28.0198     0.2177   298.8800    27.7210    -0.0018
  936   18.700   5991.23    26.7962     0.0576     0.1177     0.1870    26.8528     0.2129   299.2000    26.5536    -0.0020
  937   18.720   5992.17    24.7337     0.0613     0.0912     0.1872    24.7749     0.2456   299.5200    24.4754    -0.0036
  938   18.740   5993.09    22.0300     0.0848     0.0874     0.1874    22.0657     0.3675   299.8400    21.7659    -0.0047
  939   18.760   5993.95    19.2538     0.1105     0.0997     0.1876    19.2947     0.5394   300.1600    18.9945    -0.0048
  940   18.780   5994.87    16.1866     0.1338     0.0927     0.1878    16.2262     0.7711   300.4800    15.9257    -0.0059
  941   18.800   5995.76    13.7176     0.1680     0.1265     0.1880    13.7640     1.1716   300.8000    13.4632    -0.0057
  942   18.820   5996.74    11.5175     0.1989     0.1519     0.1882    11.5786     1.6936   301.1200    11.2774    -0.0038
  943   18.840   5997.66     9.6957     0.2190     0.1698     0.1884     9.7680     2.2312   301.4400     9.4665    -0.0017
  944   18.860   5998.66     9.1908     0.2126     0.2009     0.1886     9.2696     2.3122   301.7600     8.9679    -0.0001
  945   18.880   5999.64     9.4725     0.1895     0.2109     0.1888     9.5607     2.0262   302.0800     9.2586     0.0023
  946   18.900   6000.62     8.9999     0.1679     0.1786     0.1890     9.0850     1.7770   302.4000     8.7826     0.0015
  947   18.920   6001.66     8.7029     0.1481    -0.0041     0.1892     8.6954     1.7074   302.7200     8.3927    -0.0247
  948   18.940   6002.73     9.9190     0.1293     0.0537     0.1894     9.9417     1.3692   303.0400     9.6386    -0.0141
  949   18.960   6003.72    13.6020     0.1046    -0.0472     0.1896    13.6035     0.8679   303.3600    13.3001    -0.0140
  950   18.980   6004.74    19.6111     0.0930    -0.1338     0.1898    19.5674     0.5271   303.6800    19.2638    -0.0152
  951   19.000   6005.71    23.4157     0.0873    -0.2198     0.1900    23.3385     0.3909   304.0000    23.0345    -0.0162
  952   19.020   6006.70    23.7942     0.0765    -0.2579     0.1902    23.6867     0.3205   304.3200    23.3824    -0.0191
  953   19.040   6007.65    22.5936     0.0621    -0.2580     0.1904    22.4845     0.2684   304.6400    22.1798    -0.0203
  954   19.060   6008.56    21.8850     0.0582    -0.2486     0.1906    21.7790     0.2629   304.9600    21.4740    -0.0206
  955   19.080   6009.53    22.4227     0.0751    -0.2335     0.1908    22.3219     0.3419   305.2800    22.0166    -0.0196
  956   19.100   6010.49    23.4498     0.0911    -0.2114     0.1910    23.3581     0.3945   305.6000    23.0525    -0.0178
  957   19.120   6011.45    23.8692     0.1035    -0.1802     0.1912    23.7878     0.4332   305.9200    23.4819    -0.0164
  958   19.140   6012.36    23.1390     0.0985    -0.1451     0.1914    23.0730     0.4187   306.2400    22.7668    -0.0153
  959   19.160   6013.29    22.0344     0.0875    -0.1098     0.1916    21.9864     0.3913   306.5600    21.6798    -0.0141
  960   19.180   6014.24    21.7073     0.0821    -0.0394     0.1918    21.6822     0.3795   306.8800    21.3753    -0.0118
  961   19.200   6015.21    23.3398     0.0840     0.0205     0.1920    23.3456     0.3738   307.2000    23.0384    -0.0077
  962   19.220   6016.20    25.4358     0.0818    -0.1183     0.1922    25.4160     0.3330   307.5200    25.1085    -0.0095
  963   19.240   6017.16    27.3188     0.0829    -0.1761     0.1924    27.2431     0.3104   307.8400    26.9353    -0.0138
  964   19.260   6018.10    27.8399     0.0754    -0.1730     0.1926    27.7686     0.2717   308.1600    27.4605    -0.0132
  965   19.280   6019.06    28.1084     0.0709    -0.1794     0.1928    28.0335     0.2533   308.4800    27.7251    -0.0134
  966   19.300   6019.99    28.0984     0.0831    -0.1834     0.1930    28.0216     0.2958   308.8000    27.7128    -0.0136
  967   19.320   6020.93    28.2477     0.0948    -0.1783     0.1932    28.1718     0.3363   309.1200    27.8627    -0.0134
  968   19.340   6021.90    28.3851     0.1036    -0.1637     0.1934    28.3137     0.3658   309.4400    28.0043    -0.0130
  969   19.360   6022.87    28.4625     0.1059    -0.1448     0.1936    28.4001     0.3718   309.7600    28.0903    -0.0122
  970   19.380   6023.79    28.2099     0.1056    -0.1246     0.1938    28.1545     0.3728   310.0800    27.8445    -0.0117
  971   19.400   6024.71    27.9430     0.1026    -0.1006     0.1940    27.8964     0.3666   310.4000    27.5860    -0.0111
  972   19.420   6025.65    27.6460     0.0989    -0.0751     0.1942    27.6094     0.3565   310.7200    27.2987    -0.0103
  973   19.440   6026.67    27.3118     0.0981    -0.0508     0.1944    27.2857     0.3580   311.0400    26.9747    -0.0095
  974   19.460   6027.59    27.4211     0.1027    -0.0180     0.1946    27.4095     0.3755   311.3600    27.0982    -0.0082
  975   19.480   6028.58    27.5641     0.1022     0.0054     0.1948    27.5632     0.3717   311.6800    27.2516    -0.0072
  976   19.500   6029.48    27.6256     0.0954     0.0460     0.1950    27.6375     0.3454   312.0000    27.3255    -0.0061
  977   19.520   6030.47    27.4871     0.0965     0.0805     0.1952    27.5170     0.3505   312.3200    27.2046    -0.0046
  978   19.540   6031.40    27.6134     0.0994     0.0882     0.1954    27.6500     0.3613   312.6400    27.3374    -0.0040
  979   19.560   6032.33    28.1950     0.0958     0.1010     0.1956    28.2324     0.3427   312.9600    27.9194    -0.0038
  980   19.580   6033.36    29.3395     0.0908     0.1250     0.1958    29.3905     0.3144   313.2800    29.0772    -0.0026
  981   19.600   6034.35    30.4077     0.0890     0.1445     0.1960    30.4662     0.2965   313.6000    30.1526    -0.0019
  982   19.620   6035.31    31.0647     0.0910     0.1511     0.1962    31.1264     0.2949   313.9200    30.8125    -0.0016
  983   19.640   6036.25    31.2694     0.0914     0.1436     0.1964    31.3296     0.2929   314.2400    31.0154    -0.0017
  984   19.660   6037.21    31.0523     0.0909     0.1293     0.1966    31.1092     0.2917   314.5600    30.7946    -0.0020
  985   19.680   6038.12    30.7374     0.0886     0.1459     0.1968    30.7963     0.2877   314.8800    30.4814    -0.0019
  986   19.700   6039.05    30.7506     0.0870     0.1684     0.1970    30.8182     0.2835   315.2000    30.5030    -0.0012
  987   19.720   6040.07    31.0137     0.0874     0.1610     0.1972    31.0821     0.2825   315.5200    30.7666    -0.0011
  988   19.740   6041.06    31.2746     0.1002     0.1603     0.1974    31.3420     0.3207   315.8400    31.0261    -0.0012
  989   19.760   6041.97    31.5751     0.1115     0.1472     0.1976    31.6404     0.3534   316.1600    31.3242    -0.0013
  990   19.780   6042.97    31.1336     0.1149     0.1618     0.1978    31.1960     0.3670   316.4800    30.8795    -0.0016
  991   19.800   6043.87    29.8960     0.1123     0.1518     0.1980    29.9640     0.3745   316.8000    29.6472    -0.0012
  992   19.820   6044.84    29.2551     0.1187     0.1566     0.1982    29.3189     0.4055   317.1200    29.0018    -0.0016
  993   19.840   6051.69    30.3206     0.1154     0.1285     0.1984    30.3829     0.3857   317.4400    30.0654    -0.0016
  994   19.860   6084.74    32.5948     0.0904     0.0708     0.1986    32.6329     0.3023   317.7600    32.3151    -0.0032
  995   19.880   6110.42    34.4724     0.0781    -0.0209     0.1988    34.4806     0.2330   318.0800    34.1625    -0.0052
  996   19.900   6111.40    34.1876     0.0658    -0.1176     0.1990    34.1472     0.1915   318.4000    33.8288    -0.0087
  997   19.920   6112.38    33.3536     0.0534    -0.1442     0.1992    33.2969     0.1589   318.7200    32.9782    -0.0101
  998   19.940   6113.34    32.7275     0.0510    -0.1651     0.1994    32.6591     0.1549   319.0400    32.3400    -0.0112
  999   19.960   6114.28    32.5144     0.0571    -0.1799     0.1996    32.4403     0.1757   319.3600    32.1209    -0.0117
 1000   19.980   6115.25    32.9410     0.0682    -0.1914     0.1998    32.8606     0.2077   319.6800    32.5409    -0.0120
 1001   20.000   6116.22    33.3450     0.0815    -0.1997     0.2000    33.2630     0.2449   320.0000    32.9430    -0.0120
 1002   20.020   6117.17    33.3997     0.0973    -0.2023     0.2002    33.3149     0.2914   320.3200    32.9946    -0.0122
 1003   20.040   6118.11    33.5048     0.1044    -0.2004     0.2004    33.4203     0.3126   320.6400    33.0997    -0.0121
 1004   20.060   6119.15    33.8783     0.1098    -0.1966     0.2006    33.7945     0.3253   320.9600    33.4735    -0.0120
 1005   20.080   6120.17    34.2699     0.1175    -0.1825     0.2008    34.1918     0.3438   321.2800    33.8705    -0.0114
 1006   20.100   6121.09    34.2986     0.1220    -0.1662     0.2010    34.2258     0.3555   321.6000    33.9042    -0.0110
 1007   20.120   6122.05    34.3026     0.1222    -0.1461     0.2012    34.2386     0.3560   321.9200    33.9167    -0.0104
 1008   20.140   6122.97    34.1719     0.1225    -0.1161     0.2014    34.1175     0.3577   322.2400    33.7953    -0.0098
 1009   20.160   6123.94    33.6926     0.1221    -0.0909     0.2016    33.6526     0.3609   322.5600    33.3300    -0.0089
 1010   20.180   6124.95    33.6057     0.1295    -0.0644     0.2018    33.5742     0.3858   322.8800    33.2514    -0.0083
 1011   20.200   6125.96    33.8460     0.1329    -0.0275     0.2020    33.8291     0.3935   323.2000    33.5059    -0.0072
 1012   20.220   6126.92    33.6344     0.1384     0.0098     0.2022    33.6346     0.4100   323.5200    33.3111    -0.0060
 1013   20.240   6127.85    33.2803     0.1454     0.0352     0.2024    33.2912     0.4356   323.8400    32.9673    -0.0054
 1014   20.260   6128.80    33.2618     0.1522     0.0688     0.2026    33.2824     0.4580   324.1600    32.9583    -0.0047
 1015   20.280   6129.75    33.3332     0.1604     0.0912     0.2028    33.3668     0.4811   324.4800    33.0424    -0.0037
 1016   20.300   6130.72    33.1699     0.1691     0.1216     0.2030    33.2158     0.5097   324.8000    32.8910    -0.0029
 1017   20.320   6131.67    32.8784     0.1713     0.1242     0.2032    32.9288     0.5191   325.1200    32.6037    -0.0026
 1018   20.340   6132.68    32.3574     0.1706     0.1419     0.2034    32.4123     0.5242   325.4400    32.0869    -0.0023
 1019   20.360   6133.62    31.7690     0.1661     0.1426     0.2036    31.8296     0.5191   325.7600    31.5039    -0.0019
 1020   20.380   6134.61    31.2287     0.1625     0.1532     0.2038    31.2929     0.5187   326.0800    30.9668    -0.0016
 1021   20.400   6135.57    30.9277     0.1587     0.1454     0.2040    30.9896     0.5118   326.4000    30.6632    -0.0018
 1022   20.420   6136.51    30.7892     0.1535     0.1503     0.2042    30.8508     0.4978   326.7200    30.5241    -0.0019
 1023   20.440   6137.42    30.6095     0.1504     0.1467     0.2044    30.6725     0.4906   327.0400    30.3455    -0.0018
 1024   20.460   6138.44    30.4204     0.1490     0.1607     0.2046    30.4859     0.4893   327.3600    30.1585    -0.0016
 1025   20.480   6139.42    30.5113     0.1471     0.1583     0.2048    30.5774     0.4827   327.6800    30.2497    -0.0016
 1026   20.500   6140.44    30.4973     0.1441     0.1678     0.2050    30.5675     0.4718   328.0000    30.2395    -0.0012
 1027   20.520   6141.39    30.1129     0.1491     0.1572     0.2052    30.1806     0.4914   328.3200    29.8523    -0.0015
 1028   20.540   6142.38    29.5364     0.1741     0.1605     0.2054    29.6042     0.5859   328.6400    29.2756    -0.0015
 1029   20.560   6143.30    28.8097     0.2109     0.1564     0.2056    28.8772     0.7248   328.9600    28.5482    -0.0016
 1030   20.580   6144.20    27.1449     0.2548     0.1653     0.2058    27.2148     0.9074   329.2800    26.8855    -0.0015
 1031   20.600   6145.16    23.9166     0.2924     0.1687     0.2060    23.9845     1.1556   329.6000    23.6549    -0.0019
 1032   20.620   6146.07    20.1946     0.3243     0.1906     0.2062    20.2701     1.4993   329.9200    19.9402    -0.0013
 1033   20.640   6147.00    17.4501     0.3599     0.2291     0.2064    17.5406     1.9629   330.2400    17.2104     0.0005
 1034   20.660   6147.98    16.5506     0.3624     0.3166     0.2066    16.6695     2.1502   330.5600    16.3390     0.0047
 1035   20.680   6148.90    15.6651     0.4078     0.2855     0.2068    15.7986     2.5355   330.8800    15.4677     0.0072
 1036   20.700   6149.86    14.8993     0.4435     0.2859     0.2070    15.0252     2.9542   331.2000    14.6940     0.0063
 1037   20.720   6150.81    14.7673     0.4465     0.3288     0.2072    14.8898     3.0268   331.5200    14.5583     0.0058
 1038   20.740   6151.73    15.2057     0.4148     0.0507     0.2074    15.2443     2.7506   331.8400    14.9125    -0.0077
 1039   20.760   6152.63    14.6459     0.3293     0.0331     0.2076    14.6416     2.2278   332.1600    14.3094    -0.0152
 1040   20.780   6153.64    15.6389     0.2716     0.3923     0.2078    15.7389     1.7765   332.4800    15.4065     0.0018
 1041   20.800   6154.68    18.5514     0.2154     0.3681     0.2080    18.7748     1.2237   332.8000    18.4420     0.0176
 1042   20.820   6155.68    22.0376     0.1675    -0.0383     0.2082    22.0689     0.7996   333.1200    21.7358    -0.0061
 1043   20.840   6156.64    24.5059     0.1092    -0.1542     0.2084    24.4481     0.4624   333.4400    24.1147    -0.0143
 1044   20.860   6157.61    25.6321     0.0630    -0.1872     0.2086    25.5567     0.2479   333.7600    25.2229    -0.0154
 1045   20.880   6158.55    26.1251     0.0677    -0.1978     0.2088    26.0431     0.2605   334.0800    25.7090    -0.0157
 1046   20.900   6159.53    26.2937     0.0755    -0.1932     0.2090    26.2111     0.2877   334.4000    25.8767    -0.0157
 1047   20.920   6160.48    26.3538     0.0842    -0.1783     0.2092    26.2763     0.3190   334.7200    25.9416    -0.0152
 1048   20.940   6161.41    26.2958     0.0871    -0.1560     0.2094    26.2268     0.3314   335.0400    25.8918    -0.0144
 1049   20.960   6162.41    26.4166     0.0877    -0.1313     0.2096    26.3576     0.3331   335.3600    26.0222    -0.0135
 1050   20.980   6163.37    26.7667     0.0872    -0.1080     0.2098    26.7182     0.3273   335.6800    26.3825    -0.0123
 1051   21.000   6164.28    27.0100     0.0890    -0.0845     0.2100    26.9711     0.3304   336.0000    26.6351    -0.0114
 1052   21.020   6165.27    26.9697     0.0915    -0.0596     0.2102    26.9417     0.3386   336.3200    26.6054    -0.0104
 1053   21.040   6166.24    26.8116     0.0927    -0.0334     0.2104    26.7931     0.3447   336.6400    26.4564    -0.0096
 1054   21.060   6167.19    26.5877     0.0916    -0.0028     0.2106    26.5831     0.3437   336.9600    26.2461    -0.0084
 1055   21.080   6168.13    25.9769     0.0921     0.0100     0.2108    25.9803     0.3497   337.2800    25.6431    -0.0079
 1056   21.100   6169.06    24.9022     0.0879     0.0386     0.2110    24.9131     0.3454   337.6000    24.5755    -0.0075
 1057   21.120   6170.00    23.8607     0.0845     0.0684     0.2112    23.8849     0.3467   337.9200    23.5470    -0.0065
 1058   21.140   6170.96    22.8624     0.0826     0.1063     0.2114    22.9027     0.3536   338.2400    22.5645    -0.0051
 1059   21.160   6171.86    22.1145     0.0782     0.1253     0.2116    22.1627     0.3491   338.5600    21.8241    -0.0044
 1060   21.180   6172.77    21.5850     0.0751     0.1225     0.2118    21.6362     0.3442   338.8800    21.2973    -0.0042
 1061   21.200   6173.74    21.2578     0.0721     0.1381     0.2120    21.3145     0.3380   339.2000    20.9753    -0.0037
 1062   21.220   6174.68    21.2861     0.0683     0.1673     0.2122    21.3544     0.3214   339.5200    21.0148    -0.0024
 1063   21.240   6175.64    21.4490     0.0657     0.1440     0.2124    21.5105     0.3078   339.8400    21.1706    -0.0031
 1064   21.260   6176.59    21.3880     0.0614     0.1330     0.2126    21.4428     0.2861   340.1600    21.1027    -0.0039
 1065   21.280   6177.55    21.0897     0.0596     0.1347     0.2128    21.1466     0.2802   340.4800    20.8062    -0.0037
 1066   21.300   6178.46    20.6372     0.0610     0.1582     0.2130    20.6997     0.2924   340.8000    20.3589    -0.0031
 1067   21.320   6179.38    20.1877     0.0616     0.1676     0.2132    20.2557     0.3022   341.1200    19.9146    -0.0026
 1068   21.340   6180.30    19.7601     0.0621     0.1650     0.2134    19.8332     0.3111   341.4400    19.4917    -0.0020
 1069   21.360   6181.23    19.3523     0.0620     0.1750     0.2136    19.4237     0.3176   341.7600    19.0820    -0.0023
 1070   21.380   6182.24    18.9232     0.0622     0.1938     0.2138    19.0059     0.3270   342.0800    18.6639    -0.0009
 1071   21.400   6183.21    18.8756     0.0621     0.1917     0.2140    18.9537     0.3289   342.4000    18.6113    -0.0015
 1072   21.420   6184.11    18.9035     0.0605     0.1922     0.2142    18.9844     0.3209   342.7200    18.6416    -0.0012
 1073   21.440   6185.04    19.0414     0.0582     0.1876     0.2144    19.1215     0.3073   343.0400    18.7785    -0.0013
 1074   21.460   6185.94    19.3987     0.0531     0.1859     0.2146    19.4762     0.2754   343.3600    19.1328    -0.0016
 1075   21.480   6186.87    19.9779     0.0530     0.1787     0.2148    20.0568     0.2688   343.6800    19.7131    -0.0014
 1076   21.500   6187.90    20.8379     0.0550     0.1912     0.2150    20.9137     0.2693   344.0000    20.5697    -0.0017
 1077   21.520   6188.87    21.6430     0.0585     0.1769     0.2152    21.7181     0.2749   344.3200    21.3737    -0.0017
 1078   21.540   6189.81    21.6529     0.0625     0.1829     0.2154    21.7312     0.2882   344.6400    21.3865    -0.0014
 1079   21.560   6190.75    21.2571     0.0669     0.1749     0.2156    21.3318     0.3112   344.9600    20.9868    -0.0018
 1080   21.580   6191.65    20.6137     0.0703     0.1781     0.2158    20.6871     0.3375   345.2800    20.3418    -0.0020
 1081   21.600   6192.57    20.1567     0.0671     0.1940     0.2160    20.2367     0.3302   345.6000    19.8911    -0.0013
 1082   21.620   6193.49    19.9353     0.0667     0.1890     0.2162    20.0160     0.3327   345.9200    19.6701    -0.0012
 1083   21.640   6194.43    19.5984     0.0748     0.1961     0.2164    19.6776     0.3793   346.2400    19.3313    -0.0014
 1084   21.660   6195.42    19.4581     0.0758     0.1984     0.2166    19.5414     0.3885   346.5600    19.1949    -0.0009
 1085   21.680   6196.38    19.3970     0.0661     0.1962     0.2168    19.4808     0.3404   346.8800    19.1339    -0.0009
 1086   21.700   6197.29    19.4836     0.0620     0.1789     0.2170    19.5614     0.3194   347.2000    19.2142    -0.0017
 1087   21.720   6198.26    20.4548     0.0548     0.1344     0.2172    20.5175     0.2691   347.5200    20.1700    -0.0034
 1088   21.740   6199.20    22.0683     0.0544     0.0682     0.2174    22.1126     0.2578   347.8400    21.7648    -0.0051
 1089   21.760   6200.10    23.1091     0.0530    -0.0188     0.2176    23.1085     0.2330   348.1600    22.7604    -0.0096
 1090   21.780   6201.02    22.4056     0.0673    -0.0734     0.2178    22.3846     0.2997   348.4800    22.0361    -0.0122
 1091   21.800   6201.96    20.2917     0.1065    -0.1144     0.2180    20.2467     0.5081   348.8000    19.8979    -0.0164
 1092   21.820   6202.92    17.8772     0.1490    -0.1141     0.2182    17.8277     0.7846   349.1200    17.4786    -0.0192
 1093   21.840   6203.80    16.0644     0.1959    -0.0854     0.2184    16.0222     1.1806   349.4400    15.6727    -0.0203
 1094   21.860   6204.75    14.5186     0.2313    -0.0601     0.2186    14.4882     1.5895   349.7600    14.1385    -0.0206
 1095   21.880   6205.62    13.2093     0.2667    -0.0367     0.2188    13.1895     1.9985   350.0800    12.8394    -0.0207
 1096   21.900   6206.56    11.5196     0.2807     0.1156     0.2190    11.5485     2.3638   350.4000    11.1981    -0.0132
 1097   21.920   6207.56    10.2324     0.2813    -0.0003     0.2192    10.2521     2.7316   350.7200     9.9014    -0.0175
 1098   21.940   6208.55     9.3681     0.3083    -0.0015     0.2194     9.3605     3.2695   351.0400     9.0095    -0.0263
 1099   21.960   6223.74     9.1152     0.2860     0.0611     0.2196     9.1318     3.1159   351.3600     8.7804    -0.0205
 1100   21.980   6242.74     9.0355     0.2614     0.1237     0.2198     9.0784     2.8478   351.6800     8.7267    -0.0134
 1101   22.000   6256.48     8.6568     0.2448     0.1469     0.2200     8.7205     2.8016   352.0000     8.3685    -0.0082
 1102   22.020   6257.55     8.1967     0.2465     0.2103     0.2202     8.2712     3.0053   352.3200     7.9189    -0.0054
 1103   22.040   6258.54     9.3106     0.2317     0.3743     0.2204     9.4281     2.5245   352.6400     9.0755     0.0065
 1104   22.060   6259.60    11.8750     0.2108     0.5753     0.2206    12.1358     1.9623   352.9600    11.7829     0.0336
 1105   22.080   6260.58    16.8194     0.1961     0.2001     0.2208    16.9458     1.2292   353.2800    16.5926     0.0052
 1106   22.100   6261.53    20.2071     0.1744     0.1786     0.2210    20.2886     0.8916   353.6000    19.9350    -0.0014
 1107   22.120   6262.54    22.6145     0.1725    -0.0934     0.2212    22.6034     0.7740   353.9200    22.2495    -0.0111
 1108   22.140   6263.52    23.6225     0.1468    -0.1243     0.2214    23.5712     0.6261   354.2400    23.2170    -0.0148
 1109   22.160   6264.48    24.8776     0.0969    -0.1247     0.2216    24.8247     0.3950   354.5600    24.4701    -0.0142
 1110   22.180   6265.48    27.1736     0.0938    -0.1015     0.2218    27.1268     0.3536   354.8800    26.7719    -0.0125
 1111   22.200   6266.43    29.8457     0.0931    -0.0749     0.2220    29.8104     0.3177   355.2000    29.4552    -0.0104
 1112   22.220   6267.45    32.8930     0.0912    -0.0419     0.2222    32.8690     0.2844   355.5200    32.5134    -0.0086
 1113   22.240   6268.47    35.4874     0.0815    -0.0246     0.2224    35.4760     0.2333   355.8400    35.1202    -0.0071
 1114   22.260   6269.42    36.3794     0.0768    -0.0349     0.2226    36.3676     0.2118   356.1600    36.0114    -0.0070
 1115   22.280   6270.40    36.2998     0.0765    -0.0325     0.2228    36.2840     0.2104   356.4800    35.9275    -0.0072
 1116   22.300   6271.38    35.7478     0.0801    -0.0284     0.2230    35.7337     0.2223   356.8000    35.3769    -0.0073
 1117   22.320   6272.36    34.5800     0.0844    -0.0346     0.2232    34.5668     0.2396   357.1200    34.2097    -0.0074
 1118   22.340   6273.28    33.1860     0.0873    -0.0216     0.2234    33.1779     0.2576   357.4400    32.8204    -0.0074
 1119   22.360   6274.25    31.7365     0.0915    -0.0065     0.2236    31.7324     0.2824   357.7600    31.3747    -0.0074
 1120   22.380   6275.12    30.1366     0.0907     0.0063     0.2238    30.1388     0.2934   358.0800    29.7807    -0.0073
 1121   22.400   6276.07    28.5439     0.0921     0.0153     0.2240    28.5483     0.3157   358.4000    28.1899    -0.0076
 1122   22.420   6277.00    27.3045     0.0916     0.0409     0.2242    27.3183     0.3296   358.7200    26.9596    -0.0071
 1123   22.440   6277.97    26.4337     0.0886     0.0542     0.2244    26.4531     0.3310   359.0400    26.0940    -0.0068
 1124   22.460   6278.90    26.0017     0.0878     0.0522     0.2246    26.0243     0.3356   359.3600    25.6649    -0.0067
 1125   22.480   6279.84    25.6490     0.0897     0.0649     0.2248    25.6753     0.3478   359.6800    25.3156    -0.0064
 1126   22.500   6280.85    25.4637     0.0909     0.0798     0.2250    25.4947     0.3561   360.0000    25.1347    -0.0060
 1127   22.520   6281.78    25.2530     0.0899     0.1013     0.2252    25.2932     0.3544   360.3200    24.9329    -0.0052
 1128   22.540   6282.67    24.9527     0.0880     0.1099     0.2254    25.0008     0.3511   360.6400    24.6401    -0.0045
 1129   22.560   6283.62    24.4470     0.0888     0.1221     0.2256    24.4955     0.3603   360.9600    24.1345    -0.0046
 1130   22.580   6284.58    24.1734     0.0894     0.1527     0.2258    24.2320     0.3692   361.2800    23.8707    -0.0036
 1131   22.600   6285.56    24.2044     0.0853     0.1668     0.2260    24.2727     0.3526   361.6000    23.9111    -0.0026
 1132   22.620   6286.50    24.1956     0.0826     0.1772     0.2262    24.2684     0.3411   361.9200    23.9065    -0.0022
 1133   22.640   6287.45    24.2628     0.0839     0.1919     0.2264    24.3437     0.3463   362.2400    23.9815    -0.0014
 1134   22.660   6288.42    24.8199     0.0863     0.2011     0.2266    24.9044     0.3518   362.5600    24.5419    -0.0010
 1135   22.680   6289.35    25.9605     0.0923     0.2089     0.2268    26.0456     0.3599   362.8800    25.6828    -0.0009
 1136   22.700   6290.34    27.4236     0.0968     0.2152     0.2270    27.5115     0.3564   363.2000    27.1483    -0.0007
 1137   22.720   6291.31    28.4597     0.1020     0.2144     0.2272    28.5459     0.3610   363.5200    28.1823    -0.0008
 1138   22.740   6292.27    29.3300     0.1059     0.2155     0.2274    29.4187     0.3643   363.8400    29.0549    -0.0006
 1139   22.760   6293.27    30.3877     0.1116     0.2196     0.2276    30.4816     0.3713   364.1600    30.1175    -0.0001
 1140   22.780   6294.27    31.4783     0.1204     0.2123     0.2278    31.5686     0.3880   364.4800    31.2041    -0.0004
 1141   22.800   6295.22    32.3816     0.1301     0.2218     0.2280    32.4690     0.4059   364.8000    32.1042    -0.0006
 1142   22.820   6296.22    32.8608     0.1352     0.2148     0.2282    32.9555     0.4117   365.1200    32.5904    -0.0001
 1143   22.840   6297.15    32.1937     0.1401     0.2212     0.2284    32.2865     0.4303   365.4400    31.9211    -0.0002
 1144   22.860   6298.08    30.8696     0.1421     0.2060     0.2286    30.9561     0.4541   365.7600    30.5904    -0.0007
 1145   22.880   6299.00    29.3807     0.1358     0.2004     0.2288    29.4678     0.4559   366.0800    29.1017    -0.0007
 1146   22.900   6299.96    28.3926     0.1221     0.1906     0.2290    28.4762     0.4263   366.4000    28.1098    -0.0011
 1147   22.920   6300.94    27.6887     0.1132     0.2081     0.2292    27.7738     0.4050   366.7200    27.4071    -0.0010
 1148   22.940   6301.93    27.3205     0.1110     0.2031     0.2294    27.4052     0.4056   367.0400    27.0381    -0.0010
 1149   22.960   6302.91    27.7047     0.1103     0.1856     0.2296    27.7857     0.4012   367.3600    27.4184    -0.0013
 1150   22.980   6303.86    28.2984     0.1076     0.1952     0.2298    28.3814     0.3817   367.6800    28.0137    -0.0011
 1151   23.000   6304.82    28.1812     0.1059     0.2034     0.2300    28.2680     0.3745   368.0000    27.9000    -0.0008
 1152   23.020   6305.75    27.6879     0.1049     0.2030     0.2302    27.7743     0.3759   368.3200    27.4059    -0.0009
 1153   23.040   6306.74    27.1846     0.1047     0.2183     0.2304    27.2702     0.3833   368.6400    26.9015    -0.0010
 1154   23.060   6307.74    26.4822     0.1082     0.2172     0.2306    26.5769     0.4071   368.9600    26.2079    -0.0002
 1155   23.080   6308.70    25.6255     0.1117     0.2164     0.2308    25.7134     0.4309   369.2800    25.3441    -0.0009
 1156   23.100   6309.62    24.8672     0.1110     0.2219     0.2310    24.9614     0.4415   369.6000    24.5918    -0.0003
 1157   23.120   6310.56    24.1802     0.1068     0.2090     0.2312    24.2679     0.4392   369.9200    23.8980    -0.0009
 1158   23.140   6311.48    24.0631     0.1002     0.2138     0.2314    24.1541     0.4175   370.2400    23.7838    -0.0006
 1159   23.160   6314.51    25.6650     0.0904     0.2162     0.2316    25.7555     0.3746   370.5600    25.3850    -0.0007
 1160   23.180   6318.31    27.7332     0.0944     0.2187     0.2318    27.8247     0.3908   370.8800    27.4539    -0.0005
 1161   23.200   6321.84    29.8768     0.0855     0.2247     0.2320    29.9696     0.3420   371.2000    29.5984    -0.0004
 1162   23.220   6322.88    33.1265     0.0855     0.2207     0.2322    33.2183     0.2599   371.5200    32.8468    -0.0004
 1163   23.240   6323.89    36.0102     0.0890     0.2215     0.2324    36.1041     0.2506   371.8400    35.7323    -0.0002
 1164   23.260   6324.94    38.3179     0.0929     0.2260     0.2326    38.4103     0.2439   372.1600    38.0382    -0.0003
 1165   23.280   6325.93    38.8430     0.1062     0.2063     0.2328    38.9323     0.2725   372.4800    38.5598    -0.0005
 1166   23.300   6326.91    37.8337     0.1067     0.1994     0.2330    37.9210     0.2792   372.8000    37.5482    -0.0007
 1167   23.320   6327.91    36.2543     0.1113     0.1993     0.2332    36.3381     0.3015   373.1200    35.9650    -0.0009
 1168   23.340   6328.85    34.3378     0.1169     0.2062     0.2334    34.4224     0.3348   373.4400    34.0489    -0.0009
 1169   23.360   6329.82    32.6113     0.1184     0.2144     0.2336    32.6987     0.3572   373.7600    32.3250    -0.0008
 1170   23.380   6330.81    30.8965     0.1206     0.2060     0.2338    30.9820     0.3821   374.0800    30.6079    -0.0010
 1171   23.400   6331.72    29.4006     0.1231     0.2031     0.2340    29.4841     0.4129   374.4000    29.1097    -0.0012
 1172   23.420   6332.69    28.2316     0.1264     0.2042     0.2342    28.3257     0.4443   374.7200    27.9510    -0.0004
 1173   23.440   6333.64    27.6741     0.1218     0.1900     0.2344    27.7571     0.4390   375.0400    27.3821    -0.0013
 1174   23.460   6334.62    27.4167     0.1113     0.1623     0.2346    27.4920     0.4045   375.3600    27.1166    -0.0020
 1175   23.480   6335.57    27.3141     0.1085     0.0795     0.2348    27.3574     0.3976   375.6800    26.9817    -0.0049
 1176   23.500   6336.55    27.7608     0.0945     0.0438     0.2350    27.7854     0.3436   376.0000    27.4094    -0.0064
 1177   23.520   6337.53    27.9774     0.0851    -0.0829     0.2352    27.9652     0.3046   376.3200    27.5889    -0.0096
 1178   23.540   6338.52    27.9644     0.1026    -0.1060     0.2354    27.9159     0.3690   376.6400    27.5392    -0.0127
 1179   23.560   6339.51    27.8739     0.1531    -0.1418     0.2356    27.8221     0.5463   376.9600    27.4452    -0.0131
 1180   23.580   6340.44    27.2851     0.2141    -0.1547     0.2358    27.2247     0.7747   377.2800    26.8474    -0.0141
 1181   23.600   6341.37    26.1057     0.2504    -0.1722     0.2360    26.0378     0.9346   377.6000    25.6602    -0.0155
 1182   23.620   6342.29    23.4091     0.2570    -0.1819     0.2362    23.3298     1.0508   377.9200    22.9519    -0.0185
 1183   23.640   6343.18    20.0087     0.2678    -0.1898     0.2364    19.9297     1.2718   378.2400    19.5514    -0.0217
 1184   23.660   6344.10    17.1568     0.2863    -0.1263     0.2366    17.0886     1.5078   378.5600    16.7101    -0.0239
 1185   23.680   6345.10    16.6515     0.3030     0.0651     0.2368    16.6443     1.6982   378.8800    16.2654    -0.0156
 1186   23.700   6346.04    17.8330     0.3122     0.3822     0.2370    17.9882     1.8152   379.2000    17.6090     0.0072
 1187   23.720   6347.06    19.1460     0.2887    -0.0689     0.2372    19.1524     1.5422   379.5200    18.7729    -0.0118
 1188   23.740   6348.00    18.3657     0.2502    -0.1365     0.2374    18.3124     1.3531   379.8400    17.9326    -0.0203
 1189   23.760   6355.30    18.7007     0.1946    -0.1108     0.2376    18.6455     1.0752   380.1600    18.2654    -0.0205
 1190   23.780   6385.82    21.3187     0.1591    -0.0514     0.2378    21.2885     0.8772   380.4800    20.9081    -0.0156
 1191   23.800   6416.35    23.9370     0.1286    -0.0335     0.2380    23.9318     0.6527   380.8000    23.5510    -0.0107
 1192   23.820   6419.64    24.8858     0.1261    -0.1066     0.2382    24.8464     0.5138   381.1200    24.4653    -0.0136
 1193   23.840   6420.62    26.0592     0.1137    -0.1277     0.2384    26.0074     0.4428   381.4400    25.6260    -0.0141
 1194   23.860   6421.55    26.4287     0.1172    -0.1248     0.2386    26.3749     0.4425   381.7600    25.9931    -0.0141
 1195   23.880   6422.56    25.7566     0.1293    -0.1108     0.2388    25.7078     0.4958   382.0800    25.3257    -0.0140
 1196   23.900   6423.52    24.6057     0.1327    -0.0919     0.2390    24.5648     0.5292   382.4000    24.1824    -0.0139
 1197   23.920   6424.45    23.8247     0.1210    -0.0708     0.2392    23.7911     0.5042   382.7200    23.4084    -0.0136
 1198   23.940   6425.41    24.6382     0.1062    -0.0336     0.2394    24.6171     0.4390   383.0400    24.2341    -0.0120
 1199   23.960   6426.36    26.0760     0.0961     0.0298     0.2396    26.0799     0.3754   383.3600    25.6965    -0.0090
 1200   23.980   6427.26    27.0204     0.0843     0.0435     0.2398    27.0364     0.3159   383.6800    26.6527    -0.0076
 1201   24.000   6428.24    27.4558     0.0729     0.0618     0.2400    27.4810     0.2661   384.0000    27.0970    -0.0066
 1202   24.020   6429.19    27.1418     0.0695     0.0179     0.2402    27.1518     0.2538   384.3200    26.7675    -0.0081
 1203   24.040   6430.18    26.4674     0.0722     0.0037     0.2404    26.4701     0.2689   384.6400    26.0855    -0.0090
 1204   24.060   6431.16    25.3837     0.0802    -0.0022     0.2406    25.3832     0.3098   384.9600    24.9983    -0.0097
 1205   24.080   6432.09    24.3298     0.0905     0.0093     0.2408    24.3302     0.3636   385.2800    23.9450    -0.0100
 1206   24.100   6432.97    22.8806     0.1088     0.0307     0.2410    22.8918     0.4620   385.6000    22.5062    -0.0095
 1207   24.120   6433.88    21.3556     0.1168     0.0570     0.2412    21.3752     0.5329   385.9200    20.9892    -0.0093
 1208   24.140   6434.85    19.9227     0.1149     0.0616     0.2414    19.9475     0.5640   386.2400    19.5613    -0.0093
 1209   24.160   6435.80    19.3157     0.1053     0.0934     0.2416    19.3493     0.5417   386.5600    18.9627    -0.0085
 1210   24.180   6436.76    19.2160     0.0953     0.1358     0.2418    19.2666     0.4974   386.8800    18.8797    -0.0064
 1211   24.200   6437.73    20.0814     0.0885     0.1611     0.2420    20.1468     0.4495   387.2000    19.7596    -0.0044
 1212   24.220   6438.69    22.0177     0.0825     0.1819     0.2422    22.0962     0.3852   387.5200    21.7086    -0.0026
 1213   24.240   6439.66    23.8299     0.0711     0.0769     0.2424    23.8729     0.3040   387.8400    23.4851    -0.0059
 1214   24.260   6440.66    25.0243     0.0586     0.0417     0.2426    25.0543     0.2367   388.1600    24.6662    -0.0069
 1215   24.280   6441.58    25.5975     0.0584    -0.0110     0.2428    25.6011     0.2294   388.4800    25.2126    -0.0093
 1216   24.300   6442.52    26.2211     0.0586    -0.0664     0.2430    26.1994     0.2256   388.8000    25.8106    -0.0114
 1217   24.320   6443.48    26.7486     0.0774    -0.0701     0.2432    26.7159     0.2900   389.1200    26.3267    -0.0122
 1218   24.340   6444.49    26.5484     0.1045    -0.0566     0.2434    26.5226     0.3913   389.4400    26.1332    -0.0117
 1219   24.360   6445.50    25.8200     0.1063    -0.0346     0.2436    25.8018     0.4074   389.7600    25.4121    -0.0113
 1220   24.380   6446.47    25.6534     0.0971    -0.0077     0.2438    25.6466     0.3783   390.0800    25.2565    -0.0103
 1221   24.400   6447.42    25.0416     0.0994     0.0608     0.2440    25.0538     0.3935   390.4000    24.6634    -0.0087
 1222   24.420   6448.34    24.7277     0.1011     0.0981     0.2442    24.7685     0.4094   390.7200    24.3778    -0.0060
 1223   24.440   6449.30    25.4786     0.0866     0.0274     0.2444    25.5105     0.3445   391.0400    25.1195    -0.0067
 1224   24.460   6450.28    26.9102     0.0667    -0.0020     0.2446    26.9150     0.2515   391.3600    26.5236    -0.0088
 1225   24.480   6451.25    27.4588     0.0524    -0.0741     0.2448    27.4330     0.1911   391.6800    27.0413    -0.0113
 1226   24.500   6452.26    27.5649     0.0425    -0.0890     0.2450    27.5303     0.1547   392.0000    27.1383    -0.0121
 1227   24.520   6453.22    27.8960     0.0500    -0.1148     0.2452    27.8510     0.1798   392.3200    27.4587    -0.0128
 1228   24.540   6454.21    27.2913     0.0664    -0.1223     0.2454    27.2370     0.2408   392.6400    26.8444    -0.0140
 1229   24.560   6455.12    25.9069     0.0766    -0.1233     0.2456    25.8569     0.2870   392.9600    25.4639    -0.0143
 1230   24.580   6456.08    24.0111     0.0853    -0.1221     0.2458    23.9589     0.3508   393.2800    23.5656    -0.0157
 1231   24.600   6457.01    22.4280     0.0961    -0.1083     0.2460    22.3795     0.4277   393.6000    21.9859    -0.0164
 1232   24.620   6457.93    21.3791     0.1099    -0.0843     0.2462    21.3406     0.5072   393.9200    20.9467    -0.0161
 1233   24.640   6458.89    21.0495     0.1417    -0.0527     0.2464    21.0226     0.6731   394.2400    20.6283    -0.0150
 1234   24.660   6459.79    20.9437     0.1909    -0.0509     0.2466    20.9218     0.9081   394.5600    20.5273    -0.0146
 1235   24.680   6460.73    20.3114     0.2203    -0.0481     0.2468    20.2918     1.0621   394.8800    19.8969    -0.0147
 1236   24.700   6461.64    18.7368     0.2158    -0.0591     0.2470    18.7128     1.1007   395.2000    18.3176    -0.0166
 1237   24.720   6462.57    16.0336     0.1961    -0.0408     0.2472    16.0122     1.1316   395.5200    15.6167    -0.0191
 1238   24.740   6463.50    13.1679     0.1793     0.0191     0.2474    13.1644     1.2445   395.8400    12.7685    -0.0200
 1239   24.760   6464.45    12.2365     0.1645     0.1711     0.2476    12.2800     1.3507   396.1600    11.8839    -0.0122
 1240   24.780   6465.42    13.8100     0.1528     0.2993     0.2478    13.9331     1.1870   396.4800    13.5366     0.0033
 1241   24.800   6466.33    16.2577     0.1643     0.2168     0.2480    16.3678     1.0855   396.8000    15.9710     0.0009
 1242   24.820   6467.30    17.3603     0.1897    -0.0230     0.2482    17.3685     1.1070   397.1200    16.9714    -0.0135
 1243   24.840   6468.22    15.2941     0.2140    -0.0685     0.2484    15.2685     1.3021   397.4400    14.8710    -0.0208
 1244   24.860   6469.14    12.0044     0.2199    -0.0761     0.2486    11.9718     1.7228   397.7600    11.5741    -0.0283
 1245   24.880   6470.07     9.4307     0.2111    -0.0375     0.2488     9.4073     2.1620   398.0800     9.0092    -0.0339
 1246   24.900   6471.01     7.9077     0.1976     0.0914     0.2490     7.9195     2.4880   398.4000     7.5211    -0.0292
 1247   24.920   6472.03     7.2953     0.2090     0.3118     0.2492     7.3987     2.8464   398.7200     7.0000    -0.0003
 1248   24.940   6472.97     7.0082     0.2394     0.4029     0.2494     7.1679     3.4136   399.0400     6.7689     0.0193
 1249   24.960   6473.98     7.4227     0.2549     0.3752     0.2496     7.5792     3.4996   399.3600     7.1799     0.0173
 1250   24.980   6475.02     8.7424     0.2304     0.3841     0.2498     8.9289     2.6809   399.6800     8.5293     0.0228
 1251   25.000   6476.06     9.4633     0.2306     0.0482     0.2500     9.5102     2.4465   400.0000     9.1102    -0.0152
 1252   25.020   6477.04     9.0210     0.2137     0.0376     0.2502     9.0321     2.3481   400.3200     8.6318    -0.0259
 1253   25.040   6478.01     9.2888     0.1850     0.1415     0.2504     9.3326     2.0130   400.6400     8.9319    -0.0165
 1254   25.060   6478.97    10.8575     0.1650     0.0525     0.2506    10.9016     1.5951   400.9600    10.5007    -0.0137
 1255   25.080   6479.98    13.2610     0.1498     0.0022     0.2508    13.2558     1.1724   401.2800    12.8545    -0.0205
 1256   25.100   6481.02    17.3073     0.1435     0.0962     0.2510    17.3502     0.8997   401.6000    16.9486    -0.0089
 1257   25.120   6482.06    22.4926     0.1321    -0.0221     0.2512    22.5012     0.6188   401.9200    22.0993    -0.0104
 1258   25.140   6483.06    25.0568     0.1211    -0.0689     0.2514    25.0308     0.4929   402.2400    24.6285    -0.0127
 1259   25.160   6483.97    25.0029     0.1041    -0.0705     0.2516    24.9725     0.4127   402.5600    24.5699    -0.0132
 1260   25.180   6484.91    24.0997     0.1124    -0.0650     0.2518    24.0713     0.4621   402.8800    23.6684    -0.0135
 1261   25.200   6485.88    23.7653     0.1291    -0.0457     0.2520    23.7451     0.5438   403.2000    23.3419    -0.0129
 1262   25.220   6486.88    24.1767     0.1255    -0.0056     0.2522    24.1702     0.5231   403.5200    23.7667    -0.0113
 1263   25.240   6487.83    24.3081     0.1199     0.0191     0.2524    24.3129     0.4924   403.8400    23.9090    -0.0101
 1264   25.260   6488.80    23.5969     0.1128     0.0333     0.2526    23.6060     0.4700   404.1600    23.2018    -0.0100
 1265   25.280   6489.71    23.0966     0.1052     0.0739     0.2528    23.1191     0.4522   404.4800    22.7146    -0.0088
 1266   25.300   6490.72    23.2407     0.0978     0.1278     0.2530    23.2828     0.4236   404.8000    22.8780    -0.0067
 1267   25.320   6491.65    24.0654     0.0987     0.1803     0.2532    24.1378     0.4158   405.1200    23.7327    -0.0034
 1268   25.340   6492.56    24.5740     0.1104     0.1770     0.2534    24.6478     0.4506   405.4400    24.2424    -0.0032
 1269   25.360   6493.53    24.2692     0.1289     0.1196     0.2536    24.3323     0.5244   405.7600    23.9266    -0.0043
 1270   25.380   6494.49    22.9608     0.1468     0.0899     0.2538    23.0009     0.6224   406.0800    22.5949    -0.0070
 1271   25.400   6495.46    21.3155     0.1575     0.0818     0.2540    21.3461     0.7167   406.4000    20.9397    -0.0086
 1272   25.420   6496.39    19.8080     0.1602     0.1007     0.2542    19.8500     0.7869   406.7200    19.4432    -0.0079
 1273   25.440   6497.33    18.3541     0.1607     0.1539     0.2544    18.4113     0.8474   407.0400    18.0043    -0.0066
 1274   25.460   6498.24    18.5143     0.1610     0.2196     0.2546    18.5949     0.8759   407.3600    18.1875    -0.0035
 1275   25.480   6499.20    19.4629     0.1583     0.2614     0.2548    19.5784     0.8170   407.6800    19.1708     0.0011
 1276   25.500   6500.16    18.6543     0.1741     0.1364     0.2550    18.7253     0.9286   408.0000    18.3173    -0.0047
 1277   25.520   6503.61    15.9818     0.1909     0.1395     0.2552    16.0369     1.2140   408.3200    15.6285    -0.0079
 1278   25.540   6510.25    13.3415     0.1880     0.1637     0.2554    13.4067     1.4455   408.6400    12.9981    -0.0076
 1279   25.560   6516.89    10.7012     0.1850     0.1974     0.2556    10.7766     1.6769   408.9600    10.3677    -0.0073
 1280   25.580   6518.17     8.9614     0.1910     0.2626     0.2558     9.0655     2.0925   409.2800     8.6562    -0.0009
 1281   25.600   6519.25     7.4541     0.2020     0.2723     0.2560     7.5670     2.7242   409.6000     7.1574     0.0018
 1282   25.620   6520.28     6.1985     0.2130     0.2652     0.2562     6.3122     3.3561   409.9200     5.9023     0.0024
 1283   25.640   6530.15     6.0755     0.2134     0.2492     0.2564     6.1825     3.4417   410.2400     5.7723    -0.0004
 1284   25.660   6540.02     5.9526     0.1929     0.2333     0.2566     6.0529     3.1946   410.5600     5.6423    -0.0032
 1285   25.680   6547.06     5.5863     0.1716     0.1564     0.2568     5.6583     2.9572   410.8800     5.2474    -0.0167
 1286   25.700   6554.83     4.7705     0.1503     0.2520     0.2570     4.8625     2.7197   411.2000     4.4513    -0.0033
 1287   25.720   6564.04     3.9684     0.1375     0.3476     0.2572     4.1006     2.5318   411.5200     3.6891     0.0207
 1288   25.740   6569.66     3.3221     0.1303     0.5039     0.2574     3.4968     3.8405   411.8400     3.0849     0.0515
 1289   25.760   6571.89     3.3295     0.1064     0.6011     0.2576     3.5779     3.3421   412.1600     3.1657     0.1058
 1290   25.780   6576.09     3.7014     0.0735     0.6294     0.2578     3.9616     2.3089   412.4800     3.5492     0.1027
 1291   25.800   6580.29     4.0733     0.0614     0.6578     0.2580     4.3455     1.9289   412.8000     3.9327     0.0997
 1292   25.820   6583.56     4.9658     0.0587     0.7439     0.2582     5.2468     1.2950   413.1200     4.8337     0.0857
 1293   25.840   6584.63     7.9818     0.0721     1.0612     0.2584     8.4183     1.0446   413.4400     8.0049     0.0972
 1294   25.860   6585.68    10.6364     0.0942     0.5514     0.2586    10.9741     0.9801   413.7600    10.5603     0.0520
 1295   25.880   6586.62    12.1922     0.1121     0.1155     0.2588    12.2746     0.9382   414.0800    11.8606    -0.0052
 1296   25.900   6587.59    11.6263     0.1316     0.0835     0.2590    11.6598     1.1058   414.4000    11.2454    -0.0159
 1297   25.920   6588.50    10.6402     0.1552     0.1209     0.2592    10.6843     1.4231   414.7200    10.2696    -0.0150
 1298   25.940   6589.40     8.4845     0.1770     0.1663     0.2594     8.5505     2.0097   415.0400     8.1354    -0.0126
 1299   25.960   6590.36     7.8048     0.2012     0.2047     0.2596     7.8804     2.5839   415.3600     7.4651    -0.0107
 1300   25.980   6591.40     8.0254     0.1979     0.2840     0.2598     8.1397     2.4773   415.6800     7.7240     0.0016
 1301   26.000   6592.38     7.4920     0.2124     0.1936     0.2600     7.5851     2.7511   416.0000     7.1691    -0.0055
 1302   26.020   6593.41     6.5926     0.2210     0.2770     0.2602     6.6934     3.3159   416.3200     6.2771    -0.0032
 1303   26.040   6594.42     6.8919     0.1941     0.3252     0.2604     7.0273     2.8526   416.6400     6.6107     0.0094
 1304   26.060   6595.37     6.6690     0.1926     0.1818     0.2606     6.7763     2.8319   416.9600     6.3593    -0.0011
 1305   26.080   6596.34     5.4734     0.1897     0.1287     0.2608     5.5426     3.3326   417.2800     5.1253    -0.0190
 1306   26.100   6597.29     4.9452     0.1631     0.2251     0.2610     5.0198     3.2876   417.6000     4.6022    -0.0181
 1307   26.120   6598.31     4.6814     0.1530     0.3979     0.2612     4.8608     3.1986   417.9200     4.4428     0.0373
 1308   26.140   6599.31     4.1246     0.1692     0.1709     0.2614     4.2295     4.0125   418.2400     3.8113    -0.0034
 1309   26.160   6600.35     3.7528     0.1715     0.3432     0.2616     3.8654     4.5394   418.5600     3.4468     0.0019
 1310   26.180   6601.29     3.8591     0.1528     0.4234     0.2618     4.0131     3.9978   418.8800     3.5942     0.0291
 1311   26.200   6602.28     3.7897     0.1303     0.2264     0.2620     3.9298     3.3789   419.2000     3.5106     0.0198
 1312   26.220   6603.25     3.4271     0.1089     0.1891     0.2622     3.4830     3.1266   419.5200     3.0635    -0.0421
 1313   26.240   6604.26     2.9663     0.1040     0.3140     0.2624     3.0870     3.4866   419.8400     2.6672     0.0094
 1314   26.260   6605.23     2.4007     0.0998     0.6230     0.2626     2.6245     4.1389   420.1600     2.2043     0.1226
 1315   26.280   6606.20     2.3288     0.0767     0.8136     0.2628     2.6386     3.2906   420.4800     2.2182     0.2141
 1316   26.300   6607.22     2.5749     0.0525     0.8340     0.2630     2.9293     2.0591   420.8000     2.5085     0.2317
 1317   26.320   6608.19     2.7851     0.0526     0.9801     0.2632     3.1558     1.8908   421.1200     2.7346     0.2265
 1318   26.340   6609.25     3.8190     0.0537     0.8565     0.2634     4.1834     1.4773   421.4400     3.7620     0.1612
 1319   26.360   6610.28     6.3180     0.0656     0.7329     0.2636     6.6711     1.1361   421.7600     6.2494     0.0938
 1320   26.380   6611.29     9.1380     0.0833     0.2951     0.2638     9.2893     0.9464   422.0800     8.8672     0.0110
 1321   26.400   6612.31    10.2713     0.1171     0.0246     0.2640    10.3072     1.1539   422.4000     9.8848    -0.0181
 1322   26.420   6613.30    10.1711     0.1388     0.0018     0.2642    10.1708     1.3540   422.7200     9.7481    -0.0272
 1323   26.440   6614.30     9.2820     0.1439     0.0269     0.2644     9.2873     1.5162   423.0400     8.8643    -0.0284
 1324   26.460   6615.27     8.2785     0.1512     0.0887     0.2646     8.3062     1.7898   423.3600     7.8828    -0.0252
 1325   26.480   6616.21     7.3012     0.1568     0.2089     0.2648     7.3711     2.1097   423.6800     6.9474    -0.0142
 1326   26.500   6617.22     6.4184     0.1823     0.3077     0.2650     6.5409     2.8126   424.0000     6.1169     0.0044
 1327   26.520   6618.19     6.4434     0.1962     0.2679     0.2652     6.5608     3.0607   424.3200     6.1364     0.0023
 1328   26.540   6619.23     7.2141     0.1897     0.2577     0.2654     7.3313     2.6416   424.6400     6.9066     0.0020
 1329   26.560   6620.21     7.3699     0.1670     0.1568     0.2656     7.4746     2.2643   424.9600     7.0497    -0.0023
 1330   26.580   6621.21     6.7925     0.1671     0.0838     0.2658     6.8130     2.4073   425.2800     6.3877    -0.0340
 1331   26.600   6622.25     6.0075     0.1751     0.2471     0.2660     6.1030     2.8477   425.6000     5.6774    -0.0068
 1332   26.620   6623.21     6.5660     0.1746     0.4833     0.2662     6.6992     2.7155   425.9200     6.2733     0.0081
 1333   26.640   6624.18     7.2534     0.1689     0.3031     0.2664     7.4134     2.3662   426.2400     6.9872     0.0165
 1334   26.660   6625.15     6.9030     0.1624     0.0739     0.2666     6.9436     2.3166   426.5600     6.5171    -0.0262
 1335   26.680   6626.17     6.3907     0.1499     0.1570     0.2668     6.4374     2.3203   426.8800     6.0106    -0.0258
 1336   26.700   6627.17     6.1778     0.1471     0.2260     0.2670     6.2732     2.3651   427.2000     5.8460    -0.0068
 1337   26.720   6628.14     5.7770     0.1621     0.2504     0.2672     5.8770     2.7730   427.5200     5.4495    -0.0053
 1338   26.740   6629.15     5.1264     0.1421     0.2565     0.2674     5.2403     2.7048   427.8400     4.8125     0.0008
 1339   26.760   6630.14     5.0086     0.1399     0.3261     0.2676     5.1220     2.7957   428.1600     4.6939     0.0005
 1340   26.780   6631.12     4.9317     0.1443     0.3885     0.2678     5.0933     2.9342   428.4800     4.6648     0.0250
 1341   26.800   6632.12     5.3056     0.1430     0.4539     0.2680     5.4855     2.7058   428.8000     5.0567     0.0317
 1342   26.820   6633.12     5.9761     0.1410     0.3657     0.2682     6.1525     2.3767   429.1200     5.7234     0.0267
 1343   26.840   6634.11     7.2621     0.1458     0.2516     0.2684     7.3764     2.0198   429.4400     6.9470     0.0007
 1344   26.860   6635.13     9.0188     0.1537     0.2249     0.2686     9.1232     1.7502   429.7600     8.6934    -0.0023
 1345   26.880   6636.14    11.0012     0.1600     0.2439     0.2688    11.0929     1.5096   430.0800    10.6628    -0.0048
 1346   26.900   6637.17    12.1221     0.1564     0.2692     0.2690    12.2370     1.3186   430.4000    11.8066     0.0004
 1347   26.920   6638.17    13.8063     0.1480     0.1625     0.2692    13.8918     1.1150   430.7200    13.4611    -0.0049
 1348   26.940   6639.18    15.7357     0.1473     0.1089     0.2694    15.7832     0.9864   431.0400    15.3522    -0.0102
 1349   26.960   6640.16    17.8211     0.1451     0.1472     0.2696    17.8716     0.8247   431.3600    17.4402    -0.0086
 1350   26.980   6641.12    19.1886     0.1485     0.1862     0.2698    19.2713     0.7872   431.6800    18.8397    -0.0039
 1351   27.000   6642.06    18.9198     0.1557     0.0956     0.2700    18.9707     0.8071   432.0000    18.5387    -0.0081
 1352   27.020   6642.96    17.2651     0.1509     0.0912     0.2702    17.3013     0.8451   432.3200    16.8690    -0.0109
 1353   27.040   6643.91    15.9872     0.1406     0.1214     0.2704    16.0329     0.8651   432.6400    15.6003    -0.0104
 1354   27.060   6644.88    15.7364     0.1398     0.1613     0.2706    15.7987     0.8900   432.9600    15.3657    -0.0080
 1355   27.080   6645.87    16.4652     0.1340     0.2407     0.2708    16.5559     0.8334   433.2800    16.1226    -0.0034
 1356   27.100   6646.84    18.2715     0.1242     0.2381     0.2710    18.3753     0.7208   433.6000    17.9417    -0.0013
 1357   27.120   6647.82    20.0477     0.1176     0.1990     0.2712    20.1282     0.5873   433.9200    19.6942    -0.0040
 1358   27.140   6648.73    20.5268     0.1273     0.1265     0.2714    20.5926     0.6226   434.2400    20.1584    -0.0057
 1359   27.160   6649.67    19.5779     0.1412     0.0526     0.2716    19.6169     0.6971   434.5600    19.1823    -0.0093
 1360   27.180   6650.59    17.8318     0.1404    -0.0435     0.2718    17.8231     0.7518   434.8800    17.3882    -0.0169
 1361   27.200   6651.51    15.8240     0.1319    -0.0636     0.2720    15.7981     0.7912   435.2000    15.3629    -0.0218
 1362   27.220   6652.45    13.8181     0.1448    -0.0322     0.2722    13.7997     0.9857   435.5200    13.3642    -0.0237
 1363   27.240   6653.37    12.6478     0.1496     0.0234     0.2724    12.6459     1.1584   435.8400    12.2100    -0.0227
 1364   27.260   6654.36    13.5888     0.1440     0.1564     0.2726    13.6286     1.0964   436.1600    13.1925    -0.0135
 1365   27.280   6655.29    14.9179     0.1429     0.2071     0.2728    15.0054     1.0029   436.4800    14.5689    -0.0044
 1366   27.300   6656.25    15.2393     0.1582     0.1596     0.2730    15.3129     1.0330   436.8000    14.8761    -0.0066
 1367   27.320   6657.16    14.4013     0.1619     0.1028     0.2732    14.4511     1.0914   437.1200    14.0140    -0.0110
 1368   27.340   6658.11    13.6752     0.1590     0.0985     0.2734    13.7119     1.1327   437.4400    13.2744    -0.0140
 1369   27.360   6659.01    12.4413     0.1686     0.1495     0.2736    12.4978     1.2982   437.7600    12.0600    -0.0115
 1370   27.380   6659.93    10.9111     0.1806     0.1872     0.2738    10.9829     1.5908   438.0800    10.5448    -0.0097
 1371   27.400   6660.93     9.9431     0.1915     0.2381     0.2740    10.0360     1.9154   438.4000     9.5976    -0.0055
 1372   27.420   6661.87     9.9996     0.1993     0.2473     0.2742    10.1039     2.0339   438.7200     9.6652    -0.0027
 1373   27.440   6662.87     9.6774     0.2042     0.2959     0.2744     9.7974     2.1455   439.0400     9.3584     0.0012
 1374   27.460   6663.79     9.1357     0.2090     0.1538     0.2746     9.2344     2.2570   439.3600     8.7950    -0.0046
 1375   27.480   6664.78     7.7713     0.2215     0.0747     0.2748     7.8013     2.7036   439.6800     7.3616    -0.0276
 1376   27.500   6665.80     6.9692     0.2136     0.2126     0.2750     7.0307     2.9929   440.0000     6.5907    -0.0195
 1377   27.520   6667.09     6.2087     0.1987     0.2754     0.2752     6.3204     3.1014   440.3200     5.8801    -0.0015
 1378   27.540   6677.14     5.3308     0.1705     0.3025     0.2754     5.4539     2.7329   440.6400     5.0133     0.0056
 1379   27.560   6687.20     4.4529     0.1387     0.3296     0.2756     4.5874     2.3517   440.9600     4.1465     0.0127
 1380   27.580   6694.09     3.6978     0.1249     0.5209     0.2758     3.8752     2.4820   441.2800     3.4339     0.0432
 1381   27.600   6695.15     3.3374     0.1111     0.8823     0.2760     3.6621     2.6122   441.6000     3.2205     0.1542
 1382   27.620   6696.13     4.4997     0.1148     1.0180     0.2762     4.9268     2.6539   441.9200     4.4849     0.1658
 1383   27.640   6697.16     7.3193     0.1634     0.8664     0.2764     7.7219     2.4701   442.2400     7.2796     0.0940
 1384   27.660   6698.16     9.3188     0.2131     0.5425     0.2766     9.5675     2.3751   442.5600     9.1249     0.0347
 1385   27.680   6701.53     8.1351     0.2386     0.4266     0.2768     8.3311     2.5490   442.8800     7.8882     0.0192
 1386   27.700   6704.95     6.8767     0.2123     0.3108     0.2770     7.0240     2.2675   443.2000     6.5808     0.0050
 1387   27.720   6708.38     5.6182     0.1817     0.2328     0.2772     5.7169     2.5686   443.5200     5.2733    -0.0092
 1388   27.740   6729.95     4.8241     0.1693     0.2766     0.2774     4.9339     3.0885   443.8400     4.4901    -0.0019
 1389   27.760   6753.73     4.0863     0.1747     0.3066     0.2776     4.2145     3.7284   444.1600     3.7704     0.0079
 1390   27.780   6758.08     4.4007     0.1803     0.3726     0.2778     4.5356     4.2307   444.4800     4.0911     0.0104
 1391   27.800   6759.10     6.2989     0.1824     0.6732     0.2780     6.5317     3.0500   444.8000     6.0869     0.0446
 1392   27.820   6760.06     8.4148     0.1723     0.6608     0.2782     8.7262     2.0943   445.1200     8.2810     0.0562
 1393   27.840   6761.08     9.6906     0.1539     0.3281     0.2784     9.8597     1.6257   445.4400     9.4142     0.0135
 1394   27.860   6762.06    11.3826     0.1515     0.2972     0.2786    11.5129     1.3959   445.7600    11.0671     0.0029
 1395   27.880   6763.06    14.2221     0.1465     0.2677     0.2788    14.3403     1.0965   446.0800    13.8943     0.0002
 1396   27.900   6764.08    18.0884     0.1244     0.1508     0.2790    18.1647     0.7443   446.4000    17.7183    -0.0054
 1397   27.920   6765.10    21.3615     0.1082     0.1019     0.2792    21.4135     0.5294   446.7200    20.9668    -0.0074
 1398   27.940   6766.07    22.8608     0.0819     0.0536     0.2794    22.8859     0.3609   447.0400    22.4389    -0.0098
 1399   27.960   6766.95    22.7904     0.0707     0.0393     0.2796    22.8127     0.3092   447.3600    22.3653    -0.0101
 1400   27.980   6767.91    22.0915     0.0635    -0.0152     0.2798    22.0955     0.2839   447.6800    21.6478    -0.0125
 1401   28.000   6768.91    21.3723     0.0675    -0.0515     0.2800    21.3537     0.3126   448.0000    20.9057    -0.0155
 1402   28.020   6769.88    21.3188     0.0715    -0.0322     0.2802    21.3005     0.3375   448.3200    20.8521    -0.0155
 1403   28.040   6770.86    22.6387     0.0749     0.0113     0.2804    22.6362     0.3383   448.6400    22.1875    -0.0129
 1404   28.060   6771.80    23.1423     0.0763     0.0727     0.2806    23.1659     0.3308   448.9600    22.7169    -0.0099
 1405   28.080   6772.71    22.7766     0.0714     0.1385     0.2808    22.8183     0.3109   449.2800    22.3690    -0.0081
 1406   28.100   6773.67    22.3752     0.0658     0.1723     0.2810    22.4455     0.2914   449.6000    21.9959    -0.0052
 1407   28.120   6774.68    21.9493     0.0636     0.1859     0.2812    22.0265     0.2878   449.9200    21.5766    -0.0045
 1408   28.140   6775.67    21.5494     0.0639     0.1832     0.2814    21.6265     0.2947   450.2400    21.1763    -0.0046
 1409   28.160   6776.60    21.3482     0.0679     0.1884     0.2816    21.4258     0.3167   450.5600    20.9752    -0.0046
 1410   28.180   6777.58    21.1171     0.0736     0.2051     0.2818    21.2015     0.3469   450.8800    20.7506    -0.0039
 1411   28.200   6778.51    20.6442     0.0730     0.2022     0.2820    20.7296     0.3493   451.2000    20.2784    -0.0039
 1412   28.220   6779.44    19.9406     0.0697     0.2128     0.2822    20.0278     0.3448   451.5200    19.5763    -0.0038
 1413   28.240   6780.38    19.3907     0.0728     0.2283     0.2824    19.4852     0.3723   451.8400    19.0334    -0.0030
 1414   28.260   6781.32    18.9749     0.0778     0.2431     0.2826    19.0743     0.4080   452.1600    18.6221    -0.0025
 1415   28.280   6782.30    18.9435     0.0819     0.2443     0.2828    19.0462     0.4324   452.4800    18.5937    -0.0021
 1416   28.300   6783.31    19.2564     0.0849     0.2557     0.2830    19.3602     0.4442   452.8000    18.9074    -0.0019
 1417   28.320   6784.24    19.7659     0.0740     0.2655     0.2832    19.8771     0.3767   453.1200    19.4240    -0.0009
 1418   28.340   6785.22    20.5233     0.0682     0.2494     0.2834    20.6327     0.3372   453.4400    20.1793    -0.0011
 1419   28.360   6786.14    21.3823     0.0638     0.2101     0.2836    21.4750     0.3018   453.7600    21.0212    -0.0030
 1420   28.380   6787.09    21.9202     0.0588     0.1829     0.2838    22.0024     0.2705   454.0800    21.5483    -0.0041
 1421   28.400   6788.09    22.4161     0.0549     0.1252     0.2840    22.4760     0.2466   454.4000    22.0216    -0.0064
 1422   28.420   6789.09    22.4799     0.0541     0.1160     0.2842    22.5296     0.2397   454.7200    22.0749    -0.0075
 1423   28.440   6790.02    21.9877     0.0543     0.1469     0.2844    22.0418     0.2458   455.0400    21.5867    -0.0072
 1424   28.460   6790.96    21.4948     0.0535     0.1766     0.2846    21.5667     0.2471   455.3600    21.1113    -0.0054
 1425   28.480   6791.94    20.8536     0.0535     0.1976     0.2848    20.9329     0.2543   455.6800    20.4772    -0.0047
 1426   28.500   6792.88    20.3842     0.0584     0.2178     0.2850    20.4733     0.2849   456.0000    20.0173    -0.0036
 1427   28.520   6793.84    20.4618     0.0455     0.2029     0.2852    20.5479     0.2235   456.3200    20.0916    -0.0040
 1428   28.540   6794.85    20.9606     0.0475     0.2065     0.2854    21.0463     0.2286   456.6400    20.5897    -0.0040
 1429   28.560   6795.82    21.3009     0.0484     0.1940     0.2856    21.3860     0.2280   456.9600    20.9291    -0.0040
 1430   28.580   6796.75    21.2748     0.0575     0.1844     0.2858    21.3522     0.2699   457.2800    20.8949    -0.0049
 1431   28.600   6797.76    20.8587     0.0614     0.2011     0.2860    20.9406     0.2911   457.6000    20.4830    -0.0044
 1432   28.620   6798.65    20.3002     0.0683     0.2202     0.2862    20.3892     0.3305   457.9200    19.9313    -0.0037
 1433   28.640   6799.56    19.2421     0.0863     0.2333     0.2864    19.3388     0.4379   458.2400    18.8806    -0.0030
 1434   28.660   6800.55    18.2556     0.0989     0.2264     0.2866    18.3514     0.5343   458.5600    17.8929    -0.0033
 1435   28.680   6801.52    18.0330     0.1070     0.2382     0.2868    18.1323     0.5936   458.8800    17.6735    -0.0028
 1436   28.700   6802.44    17.1988     0.1305     0.2220     0.2870    17.2945     0.7587   459.2000    16.8353    -0.0035
 1437   28.720   6803.36    16.0541     0.1661     0.2433     0.2872    16.1537     0.9981   459.5200    15.6941    -0.0032
 1438   28.740   6804.28    14.5724     0.1887     0.2463     0.2874    14.6745     1.2410   459.8400    14.2147    -0.0031
 1439   28.760   6805.22    12.9824     0.2132     0.2084     0.2876    13.0769     1.5405   460.1600    12.6168    -0.0050
 1440   28.780   6806.15    10.8984     0.2269     0.2042     0.2878    10.9853     1.9442   460.4800    10.5249    -0.0077
 1441   28.800   6807.05     9.1664     0.2238     0.2019     0.2880     9.2488     2.3539   460.8000     8.7880    -0.0105
 1442   28.820   6808.01     7.2600     0.2074     0.2707     0.2882     7.3615     2.7305   461.1200     6.9003    -0.0066
 1443   28.840   6808.97     5.8561     0.1845     0.3360     0.2884     5.9877     3.0324   461.4400     5.5262     0.0046
 1444   28.860   6809.94     4.8335     0.1543     0.4144     0.2886     4.9997     3.0661   461.7600     4.5380     0.0239
 1445   28.880   6810.92     4.1476     0.1273     0.7464     0.2888     4.4260     3.0529   462.0800     3.9640     0.0945
 1446   28.900   6811.99     3.9772     0.1249     1.1068     0.2890     4.3945     3.1387   462.4000     3.9321     0.1790
 1447   28.920   6812.94     4.0457     0.1162     1.1830     0.2892     4.5441     2.8846   462.7200     4.0814     0.2199
 1448   28.940   6813.93     3.8881     0.1056     1.1913     0.2894     4.3829     2.7121   463.0400     3.9199     0.2269
 1449   28.960   6814.90     3.5093     0.0913     1.1218     0.2896     4.0041     2.5605   463.3600     3.5408     0.2508
 1450   28.980   6815.93     3.4458     0.0744     1.1170     0.2898     3.9305     2.1612   463.6800     3.4669     0.2493
 1451   29.000   6817.00     3.5761     0.0824     1.1472     0.2900     3.9983     2.3168   464.0000     3.5343     0.2015
 1452   29.020   6818.03     5.4692     0.0890     1.2864     0.2902     6.0039     1.7526   464.3200     5.5396     0.1817
 1453   29.040   6819.03     9.1934     0.0974     0.9947     0.2904     9.6764     1.0803   464.6400     9.2118     0.0951
 1454   29.060   6819.98    12.8903     0.1090     0.5170     0.2906    13.1793     0.8580   464.9600    12.7143     0.0325
 1455   29.080   6821.03    17.4466     0.1194     0.1408     0.2908    17.5482     0.6986   465.2800    17.0829    -0.0026
 1456   29.100   6822.02    20.0774     0.1338     0.0879     0.2910    20.1087     0.6808   465.6000    19.6431    -0.0110
 1457   29.120   6823.08    21.5223     0.1417     0.1401     0.2912    21.5709     0.6729   465.9200    21.1050    -0.0083
 1458   29.140   6824.10    22.7020     0.1512     0.2418     0.2914    22.7924     0.6851   466.2400    22.3262    -0.0034
 1459   29.160   6825.08    23.8157     0.1817     0.2528     0.2916    23.9261     0.7636   466.5600    23.4595    -0.0012
 1460   29.180   6826.03    22.4568     0.2195     0.1881     0.2918    22.5419     0.9738   466.8800    22.0750    -0.0041
 1461   29.200   6826.97    20.4299     0.2283     0.1647     0.2920    20.5054     1.1121   467.2000    20.0382    -0.0056
 1462   29.220   6827.84    16.9449     0.2157     0.0951     0.2922    16.9930     1.1420   467.5200    16.5255    -0.0108
 1463   29.240   6828.74    14.6326     0.1911     0.1863     0.2924    14.6989     1.2222   467.8400    14.2310    -0.0095
 1464   29.260   6829.63    12.0748     0.1770     0.2432     0.2926    12.1726     1.3468   468.1600    11.7045    -0.0051
 1465   29.280   6830.62    10.7363     0.1613     0.3002     0.2928    10.8544     1.4592   468.4800    10.3860    -0.0011
 1466   29.300   6831.57    12.1848     0.1360     0.3516     0.2930    12.3276     1.2039   468.8000    11.8588     0.0039
 1467   29.320   6832.53    14.9654     0.1007     0.2590     0.2932    15.0943     0.7326   469.1200    14.6251     0.0010
 1468   29.340   6833.45    16.4779     0.0795     0.0810     0.2934    16.5366     0.4966   469.4400    16.0671    -0.0095
 1469   29.360   6834.40    16.7838     0.0570     0.0661     0.2936    16.8138     0.3413   469.7600    16.3440    -0.0136
 1470   29.380   6835.40    16.9933     0.0368     0.0910     0.2938    17.0264     0.2181   470.0800    16.5563    -0.0130
 1471   29.400   6836.34    17.0359     0.0364     0.1299     0.2940    17.0839     0.2127   470.4000    16.6135    -0.0108
 1472   29.420   6837.26    17.0615     0.0389     0.1730     0.2942    17.1313     0.2277   470.7200    16.6606    -0.0077
 1473   29.440   6838.18    17.0640     0.0380     0.2252     0.2944    17.1579     0.2231   471.0400    16.6868    -0.0043
 1474   29.460   6839.09    16.9613     0.0337     0.2437     0.2946    17.0600     0.1989   471.3600    16.5887    -0.0036
 1475   29.480   6840.04    16.8047     0.0334     0.2708     0.2948    16.9128     0.2001   471.6800    16.4411    -0.0023
 1476   29.500   6841.06    17.8958     0.0311     0.2473     0.2950    18.0108     0.1788   472.0000    17.5388    -0.0012
 1477   29.520   6842.02    19.6581     0.0300     0.2026     0.2952    19.7481     0.1577   472.3200    19.2758    -0.0042
 1478   29.540   6843.00    21.6142     0.0283     0.1933     0.2954    21.6894     0.1348   472.6400    21.2167    -0.0055
 1479   29.560   6843.95    22.9143     0.0301     0.2273     0.2956    23.0025     0.1333   472.9600    22.5296    -0.0038
 1480   29.580   6844.91    24.0863     0.0347     0.2318     0.2958    24.1824     0.1467   473.2800    23.7091    -0.0028
 1481   29.600   6845.83    24.8390     0.0395     0.2418     0.2960    24.9352     0.1610   473.6000    24.4616    -0.0027
 1482   29.620   6846.79    25.3070     0.0445     0.2540     0.2962    25.4090     0.1770   473.9200    24.9351    -0.0021
 1483   29.640   6847.83    25.8010     0.0499     0.2671     0.2964    25.9095     0.1959   474.2400    25.4352    -0.0015
 1484   29.660   6848.81    25.9032     0.0553     0.2752     0.2966    26.0186     0.2148   474.5600    25.5440    -0.0009
 1485   29.680   6861.99    26.2532     0.0606     0.2763     0.2968    26.3691     0.2332   474.8800    25.8942    -0.0008
 1486   29.700   6885.06    26.7555     0.0637     0.2775     0.2970    26.8719     0.2454   475.2000    26.3967    -0.0008
 1487   29.720   6908.13    27.2578     0.0660     0.2789     0.2972    27.3747     0.2495   475.5200    26.8992    -0.0007
 1488   29.740   6913.13    28.6684     0.0645     0.2810     0.2974    28.7861     0.2364   475.8400    28.3103    -0.0006
 1489   29.760   6917.62    30.1039     0.0640     0.2831     0.2976    30.2225     0.2347   476.1600    29.7464    -0.0005
 1490   29.780   6922.12    31.5393     0.0622     0.2856     0.2978    31.6588     0.2260   476.4800    31.1823    -0.0004
 1491   29.800   6924.04    32.9253     0.0626     0.2858     0.2980    33.0458     0.1917   476.8000    32.5690    -0.0003
 1492   29.820   6925.01    33.8627     0.0653     0.2900     0.2982    33.9839     0.1945   477.1200    33.5067    -0.0003
 1493   29.840   6926.01    34.1894     0.0688     0.2848     0.2984    34.3104     0.2010   477.4400    33.8329    -0.0003
 1494   29.860   6926.99    33.9839     0.0708     0.2798     0.2986    34.1013     0.2083   477.7600    33.6236    -0.0006
 1495   29.880   6927.89    34.3273     0.0727     0.2902     0.2988    34.4434     0.2129   478.0800    33.9653    -0.0007
 1496   29.900   6928.90    34.3597                0.2734     0.2990    34.4750              478.4000    33.9966    -0.0007
 1497   29.920   6929.89    34.1099                0.2727     0.2992    34.2237              478.7200    33.7449    -0.0008
 1498   29.940   6930.91    34.7770                0.2499     0.2994    34.8834              479.0400    34.4044    -0.0013
 1499   29.960   6931.91    37.2235                0.2622     0.2996    37.3291              479.3600    36.8497    -0.0013
 1500   29.980   6933.31    44.0406                0.2711     0.2998    44.1508              479.6800    43.6711    -0.0009
 1501   30.000   6935.05    50.7149                           0.3000    50.8331              480.0000    50.3531    -0.0004
 
 
