

 Program UNIPLOT                         version 05.36.02
 _______________
 (c) Fugro Netherlands Marine, Nootdorp, The Netherlands


 ASCII representation of data plotted on a graph.

 This ASCII file presents data interpolated to values per fixed depth interval.
 The data are corrected for the depth-offset differences between the various 
 transducers in the penetrometer.

 The records at the start of penetration may include no values or anomalous
 values where a depth offset implies incomplete penetration of a particular
 sensor into the ground.

 The records at the end of penetration may include no values for data channels
 where the transducer did not reach this depth.

 The reference level for test values is (1) the ground surface for onshore tests and (2) the seafloor for nearshore and offshore tests.

 UNICAS data file          : CPT-1037(S).002                         
 Output using command file : PlotASCII.cmd

 ASCII file created at : date          :24-May-2022
                         time          :16:07:24
 Project number                        :20024805                                                                                            
 Date of testing                       :23-Apr-2022                                                                                         
 Location                              :Hong Kong Offshore Wind Farm Project                                                                
 Test name                             :CPT-1037(S)
 Penetrometer                          :F7.5CKE2X3S\B\2753
 Serial no                             :1701-2753

 Table description:
 Column ID                             :Parameter name
 ___________________________________________________________________________________
 Rec                                   :Record ID, Record ID [-]
 Depth                                 :Depth, Depth [m]
 Time                                  :Time, Time [s]
 Cone                                  :Cone Resistance, Cone Resistance [MPa]
 Friction                              :Sleeve Friction, Sleeve Friction [MPa]
 Pore 2                                :Porewater Pressure, Porewater Pressure at Shoulder [MPa]
 HydroPress                            :Hydrostatic Pressure, Hydrostatic Pressure [MPa]
 qt                                    :Total Cone Resistance, Total Cone Resistance [MPa]
 Fric_ratio                            :Friction Ratio, Friction Ratio [%]
 SigmaVert                             :Vertical stress, Vertical stress [kPa] as specified in ground model
 Qnet                                  :Net Cone Resistance, Net Cone Resistance [MPa], unit weight as specified in ground model
 Bq                                    :Porewater Pressure Ratio, Porewater Pressure Ratio [-], unit weight as specified in ground model


 Data table:
  Rec    Depth      Time       Cone   Friction     Pore 2 HydroPress         qt Fric_ratio  SigmaVert       Qnet         Bq
   No        m         s        MPa        MPa        MPa        MPa        MPa          %        kPa        MPa          -
    1    0.000   1302.50     0.0000                           0.0000     0.0000                0.0000     0.0000           
    2    0.020   1358.38     0.0014                           0.0002     0.0014                0.3200     0.0011    -0.3454
    3    0.040   1442.81     0.0030                0.0007     0.0004     0.0032                0.6400     0.0026     0.0023
    4    0.060   1454.47     0.0043                0.0010     0.0006     0.0047                0.9600     0.0037     0.1118
    5    0.080   1459.47     0.0052     0.0004     0.0011     0.0008     0.0056    10.4678     1.2800     0.0043     0.0699
    6    0.100   1464.47     0.0061     0.0005     0.0011     0.0010     0.0066    11.6463     1.6000     0.0050     0.0281
    7    0.120   1467.90     0.0064     0.0006     0.0015     0.0012     0.0070     8.7337     1.9200     0.0050     0.0310
    8    0.140   1470.71     0.0067     0.0006     0.0019     0.0014     0.0074     8.9310     2.2400     0.0052     0.0708
    9    0.160   1475.53     0.0071     0.0006     0.0024     0.0016     0.0080     9.0240     2.5600     0.0055     0.1114
   10    0.180   1478.09     0.0071     0.0007     0.0029     0.0018     0.0083     9.8053     2.8800     0.0054     0.1702
   11    0.200   1479.07     0.0079     0.0007     0.0032     0.0020     0.0092     9.5922     3.2000     0.0060     0.1943
   12    0.220   1480.03     0.0088     0.0008     0.0038     0.0022     0.0103     9.2353     3.5200     0.0067     0.1906
   13    0.240   1480.96     0.0094     0.0008     0.0045     0.0024     0.0112     9.4492     3.8400     0.0074     0.2541
   14    0.260   1481.93     0.0098     0.0008     0.0046     0.0026     0.0117     8.5621     4.1600     0.0075     0.2584
   15    0.280   1482.89     0.0087     0.0008     0.0043     0.0028     0.0106     8.8456     4.4800     0.0061     0.2835
   16    0.300   1483.85     0.0097     0.0009     0.0039     0.0030     0.0113     9.9772     4.8000     0.0065     0.1249
   17    0.320   1484.79     0.0100     0.0009     0.0044     0.0032     0.0117     9.0233     5.1200     0.0066     0.1574
   18    0.340   1485.74     0.0116     0.0011     0.0061     0.0034     0.0139     9.8164     5.4400     0.0084     0.2409
   19    0.360   1486.73     0.0144     0.0012     0.0063     0.0036     0.0170     9.2497     5.7600     0.0112     0.2398
   20    0.380   1487.66     0.0169     0.0013     0.0068     0.0038     0.0196     8.1708     6.0800     0.0135     0.1978
   21    0.400   1488.59     0.0168     0.0014     0.0039     0.0040     0.0198     8.4401     6.4000     0.0134     0.2315
   22    0.420   1489.56     0.0180     0.0015     0.0039     0.0042     0.0192     8.4123     6.7200     0.0125    -0.0994
   23    0.440   1490.52     0.0188     0.0015     0.0051     0.0044     0.0208     8.1623     7.0400     0.0137     0.0248
   24    0.460   1491.49     0.0173     0.0016     0.0067     0.0046     0.0199     9.1850     7.3600     0.0125     0.1349
   25    0.480   1492.46     0.0162     0.0016     0.0075     0.0048     0.0192     9.8218     7.6800     0.0116     0.2116
   26    0.500   1493.42     0.0148     0.0017     0.0078     0.0050     0.0180    10.7223     8.0000     0.0100     0.2748
   27    0.520   1494.36     0.0140     0.0016     0.0080     0.0052     0.0173    11.3910     8.3200     0.0090     0.3040
   28    0.540   1495.33     0.0141     0.0017     0.0084     0.0054     0.0175    12.0993     8.6400     0.0089     0.3152
   29    0.560   1496.28     0.0139     0.0017     0.0090     0.0056     0.0176    12.5130     8.9600     0.0086     0.3708
   30    0.580   1497.22     0.0142     0.0018     0.0100     0.0058     0.0182    12.8102     9.2800     0.0090     0.4226
   31    0.600   1498.18     0.0150     0.0018     0.0106     0.0060     0.0195    12.5411     9.6000     0.0099     0.4602
   32    0.620   1499.12     0.0162     0.0018     0.0104     0.0062     0.0206    12.1173     9.9200     0.0107     0.3979
   33    0.640   1500.05     0.0164     0.0019     0.0103     0.0064     0.0207    11.6935    10.2400     0.0105     0.3766
   34    0.660   1501.01     0.0163     0.0020     0.0109     0.0066     0.0207    12.0353    10.5600     0.0102     0.3991
   35    0.680   1501.98     0.0169     0.0022     0.0114     0.0068     0.0217    11.1869    10.8800     0.0108     0.4140
   36    0.700   1502.95     0.0313     0.0023     0.0106     0.0070     0.0362     8.6633    11.2000     0.0250     0.1853
   37    0.720   1507.21     0.0699     0.0023     0.0072     0.0072     0.0734     7.0446    11.5200     0.0619     0.1010
   38    0.740   1511.66     0.1097     0.0020     0.0038     0.0074     0.1118     6.1031    11.8400     0.0999     0.0205
   39    0.760   1515.25     0.1370     0.0020    -0.0013     0.0076     0.1381     1.9723    12.1600     0.1259    -0.0404
   40    0.780   1522.74     0.1045     0.0022    -0.0115     0.0078     0.0978     1.9177    12.4800     0.0854    -0.2662
   41    0.800   1554.01     0.0830     0.0019     0.0012     0.0080     0.0817     1.7022    12.8000     0.0689    -0.1283
   42    0.820   1580.66     0.0638     0.0017     0.0093     0.0082     0.0672     2.2814    13.1200     0.0541    -0.0017
   43    0.840   1581.62     0.0657     0.0018     0.0097     0.0084     0.0694     2.7398    13.4400     0.0559     0.0074
   44    0.860   1582.58     0.0336     0.0020     0.0036     0.0086     0.0379     4.8368    13.7600     0.0241     0.0393
   45    0.880   1583.56     0.0251     0.0020     0.0151     0.0088     0.0331     7.4190    14.0800     0.0190     0.5390
   46    0.900   1584.53     0.0245     0.0020     0.0145     0.0090     0.0317     7.6195    14.4000     0.0173     0.4660
   47    0.920   1585.45     0.0251     0.0018     0.0174     0.0092     0.0319     7.2008    14.7200     0.0172     0.4012
   48    0.940   1586.42     0.0242     0.0018     0.0196     0.0094     0.0323     7.1207    15.0400     0.0172     0.5639
   49    0.960   1587.39     0.0245     0.0019     0.0203     0.0096     0.0330     7.6806    15.3600     0.0176     0.5982
   50    0.980   1588.35     0.0260     0.0020     0.0211     0.0098     0.0347     7.9460    15.6800     0.0190     0.5784
   51    1.000   1589.29     0.0280     0.0021     0.0214     0.0100     0.0371     7.7110    16.0000     0.0211     0.5438
   52    1.020   1590.22     0.0299     0.0022     0.0207     0.0102     0.0387     7.6161    16.3200     0.0224     0.4798
   53    1.040   1591.19     0.0304     0.0024     0.0210     0.0104     0.0393     7.8111    16.6400     0.0226     0.4765
   54    1.060   1592.12     0.0298     0.0024     0.0205     0.0106     0.0385     7.9633    16.9600     0.0215     0.4663
   55    1.080   1593.09     0.0304     0.0024     0.0208     0.0108     0.0390     7.7832    17.2800     0.0217     0.4533
   56    1.100   1594.06     0.0314     0.0023     0.0221     0.0110     0.0405     7.6055    17.6000     0.0229     0.4629
   57    1.120   1595.03     0.0321     0.0023     0.0243     0.0112     0.0421     7.1724    17.9200     0.0242     0.5235
   58    1.140   1596.00     0.0335     0.0022     0.0244     0.0114     0.0439     6.4958    18.2400     0.0257     0.5187
   59    1.160   1596.92     0.0353     0.0022     0.0226     0.0116     0.0447     6.3084    18.5600     0.0261     0.4118
   60    1.180   1597.90     0.0363     0.0023     0.0233     0.0118     0.0461     6.3592    18.8800     0.0272     0.4246
   61    1.200   1598.82     0.0355     0.0023     0.0234     0.0120     0.0453     6.5095    19.2000     0.0261     0.4341
   62    1.220   1599.79     0.0336     0.0024     0.0230     0.0122     0.0434     6.8724    19.5200     0.0239     0.4620
   63    1.240   1600.74     0.0330     0.0024     0.0230     0.0124     0.0427     7.2489    19.8400     0.0229     0.4643
   64    1.260   1601.69     0.0321     0.0024     0.0200     0.0126     0.0413     7.3649    20.1600     0.0212     0.4364
   65    1.280   1602.63     0.0308     0.0024     0.0237     0.0128     0.0409     7.5644    20.4800     0.0204     0.5486
   66    1.300   1603.59     0.0309     0.0024     0.0273     0.0130     0.0420     7.6776    20.8000     0.0212     0.6335
   67    1.320   1604.56     0.0300     0.0024     0.0288     0.0132     0.0420     7.9259    21.1200     0.0209     0.7360
   68    1.340   1605.48     0.0303     0.0023     0.0294     0.0134     0.0426     7.7313    21.4400     0.0212     0.7517
   69    1.360   1606.45     0.0314     0.0024     0.0298     0.0136     0.0438     7.6475    21.7600     0.0220     0.7262
   70    1.380   1607.43     0.0329     0.0024     0.0300     0.0138     0.0454     7.5169    22.0800     0.0234     0.6868
   71    1.400   1608.40     0.0341     0.0024     0.0311     0.0140     0.0470     6.9352    22.4000     0.0246     0.6856
   72    1.420   1609.37     0.0339     0.0024     0.0317     0.0142     0.0471     6.9072    22.7200     0.0244     0.7045
   73    1.440   1610.32     0.0324     0.0024     0.0314     0.0144     0.0458     7.4776    23.0400     0.0228     0.7737
   74    1.460   1611.24     0.0314     0.0024     0.0304     0.0146     0.0441     7.7035    23.3600     0.0208     0.7515
   75    1.480   1612.21     0.0299     0.0025     0.0322     0.0148     0.0429     8.3508    23.6800     0.0192     0.8335
   76    1.500   1613.18     0.0302     0.0024     0.0341     0.0150     0.0440     8.1290    24.0000     0.0200     0.8981
   77    1.520   1614.15     0.0313     0.0024     0.0338     0.0152     0.0458     7.5991    24.3200     0.0215     0.8974
   78    1.540   1615.11     0.0331     0.0024     0.0326     0.0154     0.0468     7.2406    24.6400     0.0222     0.7814
   79    1.560   1616.03     0.0357     0.0025     0.0347     0.0156     0.0498     7.0478    24.9600     0.0248     0.7218
   80    1.580   1617.01     0.0375     0.0025     0.0352     0.0158     0.0527     6.6831    25.2800     0.0274     0.7391
   81    1.600   1617.98     0.0370     0.0026     0.0332     0.0160     0.0508     6.8858    25.6000     0.0252     0.6701
   82    1.620   1618.90     0.0368     0.0026     0.0331     0.0162     0.0507     6.8943    25.9200     0.0248     0.6834
   83    1.640   1619.87     0.0351     0.0026     0.0338     0.0164     0.0492     7.4077    26.2400     0.0230     0.7467
   84    1.660   1620.85     0.0358     0.0026     0.0349     0.0166     0.0502     7.3955    26.5600     0.0237     0.7543
   85    1.680   1621.82     0.0390     0.0026     0.0365     0.0168     0.0541     6.9750    26.8800     0.0272     0.6987
   86    1.700   1622.77     0.0423     0.0025     0.0382     0.0170     0.0581     6.0572    27.2000     0.0309     0.6732
   87    1.720   1623.72     0.0431     0.0026     0.0376     0.0172     0.0590     6.0068    27.5200     0.0315     0.6591
   88    1.740   1624.67     0.0418     0.0027     0.0352     0.0174     0.0571     6.3467    27.8400     0.0293     0.6515
   89    1.760   1625.67     0.0395     0.0027     0.0350     0.0176     0.0540     6.7517    28.1600     0.0259     0.6615
   90    1.780   1626.63     0.0375     0.0029     0.0353     0.0178     0.0524     7.5913    28.4800     0.0239     0.7386
   91    1.800   1627.56     0.0374     0.0028     0.0374     0.0180     0.0530     7.4810    28.8000     0.0242     0.7847
   92    1.820   1628.53     0.0388     0.0028     0.0387     0.0182     0.0549     7.2334    29.1200     0.0258     0.7818
   93    1.840   1629.50     0.0398     0.0025     0.0401     0.0184     0.0565     6.4437    29.4400     0.0270     0.7887
   94    1.860   1630.47     0.0443     0.0027     0.0405     0.0186     0.0614     6.5429    29.7600     0.0316     0.6953
   95    1.880   1631.40     0.0447     0.0028     0.0399     0.0188     0.0614     6.1562    30.0800     0.0313     0.6700
   96    1.900   1632.41     0.0441     0.0028     0.0397     0.0190     0.0608     6.4139    30.4000     0.0304     0.6861
   97    1.920   1633.38     0.0443     0.0028     0.0369     0.0192     0.0608     6.2442    30.7200     0.0301     0.6680
   98    1.940   1634.35     0.0478     0.0030     0.0355     0.0194     0.0623     6.4180    31.0400     0.0312     0.4801
   99    1.960   1635.29     0.0457     0.0032     0.0398     0.0196     0.0619     6.7054    31.3600     0.0305     0.6230
  100    1.980   1636.26     0.0444     0.0032     0.0418     0.0198     0.0616     7.3043    31.6800     0.0299     0.7055
  101    2.000   1637.23     0.0466     0.0032     0.0422     0.0200     0.0640     6.8897    32.0000     0.0320     0.6709
  102    2.020   1638.17     0.0494     0.0031     0.0447     0.0202     0.0678     6.3752    32.3200     0.0355     0.6614
  103    2.040   1639.08     0.0521     0.0031     0.0454     0.0204     0.0709     6.0441    32.6400     0.0382     0.6383
  104    2.060   1640.05     0.0531     0.0031     0.0480     0.0206     0.0728     5.8227    32.9600     0.0399     0.6610
  105    2.080   1641.03     0.0536     0.0031     0.0494     0.0208     0.0747     5.8376    33.2800     0.0415     0.7108
  106    2.100   1642.00     0.0557     0.0032     0.0491     0.0210     0.0761     5.7477    33.6000     0.0425     0.6527
  107    2.120   1642.97     0.0562     0.0032     0.0479     0.0212     0.0765     5.7883    33.9200     0.0425     0.6386
  108    2.140   1643.94     0.0560     0.0031     0.0465     0.0214     0.0756     5.4778    34.2400     0.0413     0.6082
  109    2.160   1644.91     0.0546     0.0031     0.0492     0.0216     0.0747     5.6261    34.5600     0.0402     0.6560
  110    2.180   1645.89     0.0527     0.0031     0.0523     0.0218     0.0745     5.7004    34.8800     0.0396     0.7582
  111    2.200   1646.84     0.0507     0.0031     0.0556     0.0220     0.0733     5.9879    35.2000     0.0381     0.8380
  112    2.220   1647.76     0.0519     0.0030     0.0584     0.0222     0.0763     6.0179    35.5200     0.0408     0.8807
  113    2.240   1648.73     0.0610     0.0033     0.0556     0.0224     0.0849     5.6251    35.8400     0.0491     0.7050
  114    2.260   1649.73     0.0700     0.0035     0.0503     0.0226     0.0923     5.0786    36.1600     0.0561     0.5416
  115    2.280   1650.70     0.0742     0.0036     0.0495     0.0228     0.0951     4.9460    36.4800     0.0586     0.4617
  116    2.300   1651.67     0.0727     0.0038     0.0450     0.0230     0.0934     5.3179    36.8000     0.0566     0.4661
  117    2.320   1652.60     0.0722     0.0040     0.0444     0.0232     0.0882     5.7333    37.1200     0.0511     0.2929
  118    2.340   1653.57     0.0673     0.0042     0.0522     0.0234     0.0878     6.1258    37.4400     0.0504     0.5070
  119    2.360   1654.55     0.0667     0.0040     0.0586     0.0236     0.0904     6.1301    37.7600     0.0527     0.6238
  120    2.380   1655.56     0.0665     0.0038     0.0626     0.0238     0.0926     5.7109    38.0800     0.0545     0.7033
  121    2.400   1657.56     0.0664     0.0035     0.0630     0.0240     0.0928     5.2361    38.4000     0.0544     0.7153
  122    2.420   1660.53     0.0669     0.0033     0.0632     0.0242     0.0934     5.0233    38.7200     0.0547     0.7122
  123    2.440   1663.49     0.0674     0.0033     0.0632     0.0244     0.0940     4.9702    39.0400     0.0550     0.7091
  124    2.460   1664.81     0.0669     0.0033     0.0619     0.0246     0.0932     4.8605    39.3600     0.0539     0.7053
  125    2.480   1665.82     0.0683     0.0032     0.0602     0.0248     0.0938     4.7626    39.6800     0.0541     0.6629
  126    2.500   1666.79     0.0690     0.0033     0.0585     0.0250     0.0936     4.8165    40.0000     0.0536     0.6257
  127    2.520   1667.71     0.0688     0.0033     0.0601     0.0252     0.0941     4.8743    40.3200     0.0538     0.6501
  128    2.540   1668.62     0.0675     0.0035     0.0625     0.0254     0.0931     5.3898    40.6400     0.0524     0.6777
  129    2.560   1669.59     0.0631     0.0038     0.0615     0.0256     0.0887     5.9054    40.9600     0.0477     0.7384
  130    2.580   1670.56     0.0660     0.0038     0.0623     0.0258     0.0926     5.9922    41.2800     0.0513     0.7301
  131    2.600   1671.53     0.0706     0.0039     0.0627     0.0260     0.0976     5.4909    41.6000     0.0560     0.6837
  132    2.620   1672.46     0.0708     0.0038     0.0645     0.0262     0.0983     5.4074    41.9200     0.0564     0.6956
  133    2.640   1691.17     0.0797     0.0038     0.0601     0.0264     0.1056     5.3311    42.2400     0.0633     0.5777
  134    2.660   1710.76     0.0890     0.0038     0.0558     0.0266     0.1130     5.3879    42.5600     0.0705     0.4493
  135    2.680   1721.96     0.0948     0.0039     0.0622     0.0268     0.1195     4.0891    42.8800     0.0766     0.4162
  136    2.700   1722.93     0.0966     0.0039     0.0678     0.0270     0.1248     4.1169    43.2000     0.0816     0.4929
  137    2.720   1723.91     0.0979     0.0038     0.0700     0.0272     0.1271     3.8444    43.5200     0.0836     0.5080
  138    2.740   1724.85     0.0982     0.0036     0.0709     0.0274     0.1279     3.7081    43.8400     0.0840     0.5135
  139    2.760   1725.81     0.0981     0.0036     0.0708     0.0276     0.1278     3.6694    44.1600     0.0836     0.5144
  140    2.780   1726.78     0.0995     0.0036     0.0733     0.0278     0.1300     3.6221    44.4800     0.0856     0.5248
  141    2.800   1727.73     0.0997     0.0034     0.0747     0.0280     0.1309     3.3772    44.8000     0.0861     0.5382
  142    2.820   1728.68     0.1006     0.0033     0.0723     0.0282     0.1311     3.3035    45.1200     0.0859     0.5171
  143    2.840   1729.65     0.0994     0.0034     0.0699     0.0284     0.1298     3.3675    45.4400     0.0843     0.5211
  144    2.860   1730.64     0.0998     0.0034     0.0696     0.0286     0.1288     3.3871    45.7600     0.0830     0.4865
  145    2.880   1731.61     0.1029     0.0035     0.0666     0.0288     0.1313     3.4277    46.0800     0.0852     0.4553
  146    2.900   1732.57     0.0991     0.0033     0.0598     0.0290     0.1254     3.3184    46.4000     0.0790     0.4237
  147    2.920   1733.50     0.0986     0.0033     0.0536     0.0292     0.1228     3.3425    46.7200     0.0761     0.3739
  148    2.940   1734.52     0.0966     0.0034     0.0538     0.0294     0.1199     3.5122    47.0400     0.0729     0.3587
  149    2.960   1735.44     0.0909     0.0032     0.0518     0.0296     0.1123     3.4415    47.3600     0.0650     0.3286
  150    2.980   1736.37     0.0770     0.0032     0.0501     0.0298     0.0992     3.9301    47.6800     0.0515     0.4493
  151    3.000   1737.38     0.0734     0.0032     0.0504     0.0300     0.0942     4.3892    48.0000     0.0462     0.4190
  152    3.020   1738.35     0.0769     0.0033     0.0467     0.0302     0.0969     4.4901    48.3200     0.0485     0.3590
  153    3.040   1739.29     0.0787     0.0034     0.0530     0.0304     0.0998     4.2222    48.6400     0.0512     0.3907
  154    3.060   1740.26     0.0767     0.0032     0.0579     0.0306     0.1004     4.1636    48.9600     0.0514     0.5003
  155    3.080   1741.24     0.0737     0.0031     0.0534     0.0308     0.0970     4.1965    49.2800     0.0477     0.5150
  156    3.100   1742.18     0.0719     0.0030     0.0485     0.0310     0.0919     4.1550    49.6000     0.0423     0.3904
  157    3.120   1743.14     0.0685     0.0033     0.0577     0.0312     0.0913     4.7526    49.9200     0.0414     0.5606
  158    3.140   1744.07     0.0678     0.0035     0.0651     0.0314     0.0944     5.0983    50.2400     0.0441     0.7209
  159    3.160   1745.04     0.0724     0.0036     0.0641     0.0316     0.0984     5.2216    50.5600     0.0478     0.6318
  160    3.180   1746.01     0.0878     0.0034     0.0669     0.0318     0.1162     4.1236    50.8800     0.0653     0.5501
  161    3.200   1747.03     0.1068     0.0034     0.0647     0.0320     0.1325     3.4225    51.2000     0.0813     0.3594
  162    3.220   1747.95     0.1152     0.0035     0.0755     0.0322     0.1450     3.0321    51.5200     0.0935     0.4132
  163    3.240   1748.92     0.1179     0.0035     0.0820     0.0324     0.1516     3.0274    51.8400     0.0998     0.4807
  164    3.260   1749.85     0.1143     0.0035     0.0875     0.0326     0.1507     3.0551    52.1600     0.0985     0.5484
  165    3.280   1750.83     0.1143     0.0037     0.0812     0.0328     0.1493     3.2410    52.4800     0.0969     0.5233
  166    3.300   1751.80     0.1161     0.0036     0.0802     0.0330     0.1497     3.1647    52.8000     0.0969     0.4858
  167    3.320   1752.80     0.1203     0.0037     0.0813     0.0332     0.1540     3.1536    53.1200     0.1009     0.4678
  168    3.340   1753.74     0.1242     0.0038     0.0858     0.0334     0.1601     3.0822    53.4400     0.1066     0.4867
  169    3.360   1754.72     0.1270     0.0039     0.0819     0.0336     0.1618     3.0710    53.7600     0.1080     0.4549
  170    3.380   1755.66     0.1252     0.0041     0.0790     0.0338     0.1585     3.2925    54.0800     0.1044     0.4350
  171    3.400   1756.63     0.1286     0.0044     0.0815     0.0340     0.1625     3.4208    54.4000     0.1081     0.4303
  172    3.420   1757.59     0.1294     0.0045     0.0823     0.0342     0.1647     3.4662    54.7200     0.1099     0.4536
  173    3.440   1758.57     0.1340     0.0045     0.0795     0.0344     0.1669     3.3988    55.0400     0.1119     0.3942
  174    3.460   1759.54     0.1347     0.0045     0.0795     0.0346     0.1688     3.2965    55.3600     0.1134     0.4097
  175    3.480   1760.51     0.1335     0.0044     0.0759     0.0348     0.1645     3.2515    55.6800     0.1088     0.3574
  176    3.500   1761.44     0.1323     0.0045     0.0844     0.0350     0.1667     3.3951    56.0000     0.1107     0.4234
  177    3.520   1762.40     0.1309     0.0045     0.0884     0.0352     0.1677     3.4172    56.3200     0.1114     0.4719
  178    3.540   1763.38     0.1303     0.0044     0.0905     0.0354     0.1680     3.3553    56.6400     0.1113     0.4882
  179    3.560   1764.35     0.1295     0.0049     0.0906     0.0356     0.1678     3.7470    56.9600     0.1108     0.5022
  180    3.580   1765.31     0.1310     0.0058     0.0871     0.0358     0.1677     4.4072    57.2800     0.1104     0.4673
  181    3.600   1766.28     0.1329     0.0058     0.0895     0.0360     0.1702     4.3888    57.6000     0.1126     0.4687
  182    3.620   1767.25     0.1370     0.0056     0.0925     0.0362     0.1757     4.1255    57.9200     0.1178     0.4757
  183    3.640   1768.20     0.1382     0.0054     0.0935     0.0364     0.1772     3.9327    58.2400     0.1189     0.4744
  184    3.660   1771.42     0.1413     0.0051     0.0854     0.0366     0.1794     4.5404    58.5600     0.1209     0.4479
  185    3.680   1779.58     0.1458     0.0051     0.0695     0.0368     0.1772     4.5236    58.8800     0.1184     0.3208
  186    3.700   1783.98     0.1414     0.0050     0.0726     0.0370     0.1705     3.4441    59.2000     0.1113     0.2896
  187    3.720   1785.00     0.1315     0.0049     0.0795     0.0372     0.1642     3.6777    59.5200     0.1047     0.3903
  188    3.740   1785.97     0.1253     0.0046     0.0759     0.0374     0.1590     3.6347    59.8400     0.0992     0.4337
  189    3.760   1786.90     0.1206     0.0043     0.0718     0.0376     0.1495     3.5738    60.1600     0.0893     0.3487
  190    3.780   1787.87     0.1178     0.0041     0.0786     0.0378     0.1502     3.4949    60.4800     0.0897     0.4401
  191    3.800   1788.88     0.1180     0.0041     0.0817     0.0380     0.1524     3.4613    60.8000     0.0916     0.4792
  192    3.820   1789.82     0.1167     0.0039     0.0824     0.0382     0.1508     3.3416    61.1200     0.0897     0.4792
  193    3.840   1790.79     0.1096     0.0039     0.0845     0.0384     0.1450     3.4900    61.4400     0.0836     0.5497
  194    3.860   1791.74     0.1027     0.0038     0.0868     0.0386     0.1388     3.6905    61.7600     0.0770     0.6142
  195    3.880   1792.71     0.1057     0.0039     0.0845     0.0388     0.1421     3.7622    62.0800     0.0800     0.5994
  196    3.900   1793.66     0.1106     0.0039     0.0887     0.0390     0.1475     3.5290    62.4000     0.0851     0.5732
  197    3.920   1794.64     0.1137     0.0038     0.0886     0.0392     0.1519     3.4137    62.7200     0.0891     0.5787
  198    3.940   1795.57     0.1134     0.0038     0.0908     0.0394     0.1498     3.2860    63.0400     0.0868     0.5451
  199    3.960   1796.54     0.1095     0.0037     0.0955     0.0396     0.1493     3.3271    63.3600     0.0860     0.6430
  200    3.980   1797.46     0.1086     0.0037     0.0953     0.0398     0.1483     3.3971    63.6800     0.0846     0.6468
  201    4.000   1798.48     0.1108     0.0037     0.0906     0.0400     0.1490     3.3864    64.0000     0.0850     0.5999
  202    4.020   1799.45     0.1167     0.0038     0.0952     0.0402     0.1562     3.3225    64.3200     0.0919     0.5877
  203    4.040   1800.38     0.1232     0.0040     0.0947     0.0404     0.1633     3.2541    64.6400     0.0987     0.5593
  204    4.060   1801.36     0.1303     0.0041     0.0905     0.0406     0.1690     3.1834    64.9600     0.1040     0.4957
  205    4.080   1802.28     0.1354     0.0042     0.0845     0.0408     0.1717     3.0930    65.2800     0.1064     0.4279
  206    4.100   1803.26     0.1378     0.0043     0.0809     0.0410     0.1723     3.1724    65.6000     0.1067     0.3861
  207    4.120   1804.20     0.1365     0.0044     0.0823     0.0412     0.1709     3.2417    65.9200     0.1050     0.3877
  208    4.140   1805.17     0.1333     0.0044     0.0850     0.0414     0.1687     3.2377    66.2400     0.1025     0.4189
  209    4.160   1806.13     0.1308     0.0044     0.0868     0.0416     0.1672     3.3777    66.5600     0.1007     0.4491
  210    4.180   1807.10     0.1307     0.0044     0.0901     0.0418     0.1681     3.3739    66.8800     0.1012     0.4669
  211    4.200   1808.07     0.1323     0.0043     0.0940     0.0420     0.1705     3.3058    67.2000     0.1033     0.4746
  212    4.220   1809.05     0.1372     0.0041     0.0972     0.0422     0.1783     3.0387    67.5200     0.1108     0.5029
  213    4.240   1809.98     0.1476     0.0041     0.0901     0.0424     0.1862     2.8260    67.8400     0.1184     0.4190
  214    4.260   1810.94     0.1503     0.0042     0.0889     0.0426     0.1904     2.7569    68.1600     0.1222     0.4316
  215    4.280   1811.92     0.1485     0.0042     0.0924     0.0428     0.1857     2.7633    68.4800     0.1173     0.3916
  216    4.300   1812.88     0.1470     0.0043     0.0914     0.0430     0.1859     2.8686    68.8000     0.1171     0.4233
  217    4.320   1813.85     0.1453     0.0041     0.0895     0.0432     0.1830     2.8549    69.1200     0.1139     0.4081
  218    4.340   1814.82     0.1471     0.0042     0.0915     0.0434     0.1849     2.8409    69.4400     0.1154     0.4034
  219    4.360   1815.77     0.1436     0.0044     0.0964     0.0436     0.1838     3.0071    69.7600     0.1141     0.4587
  220    4.380   1816.74     0.1377     0.0045     0.0963     0.0438     0.1779     3.2483    70.0800     0.1078     0.4801
  221    4.400   1817.68     0.1327     0.0044     0.0859     0.0440     0.1717     3.3073    70.4000     0.1013     0.4807
  222    4.420   1818.64     0.1362     0.0043     0.0895     0.0442     0.1736     3.1859    70.7200     0.1029     0.4358
  223    4.440   1819.61     0.1398     0.0045     0.0841     0.0444     0.1767     3.2207    71.0400     0.1057     0.4113
  224    4.460   1820.54     0.1378     0.0049     0.0903     0.0446     0.1756     3.5728    71.3600     0.1043     0.4367
  225    4.480   1821.51     0.1374     0.0054     0.0932     0.0448     0.1770     3.9248    71.6800     0.1054     0.4701
  226    4.500   1822.49     0.1379     0.0057     0.0890     0.0450     0.1768     4.1334    72.0000     0.1048     0.4528
  227    4.520   1823.46     0.1457     0.0056     0.0899     0.0452     0.1830     3.9636    72.3200     0.1107     0.3947
  228    4.540   1824.43     0.1469     0.0059     0.0888     0.0454     0.1839     4.1227    72.6400     0.1112     0.3836
  229    4.560   1839.90     0.1503     0.0062     0.0927     0.0456     0.1886     4.2818    72.9600     0.1157     0.3941
  230    4.580   1856.52     0.1545     0.0063     0.0965     0.0458     0.1945     4.3138    73.2800     0.1213     0.4062
  231    4.600   1873.14     0.1588     0.0059     0.0975     0.0460     0.2005     4.0097    73.6000     0.1269     0.4183
  232    4.620   1875.87     0.1603     0.0055     0.0925     0.0462     0.1996     3.4260    73.9200     0.1257     0.3780
  233    4.640   1880.46     0.1595     0.0055     0.0891     0.0464     0.1974     3.4082    74.2400     0.1231     0.3554
  234    4.660   1885.66     0.1588     0.0055     0.0856     0.0466     0.1953     3.4313    74.5600     0.1207     0.3325
  235    4.680   1889.74     0.1573     0.0054     0.0921     0.0468     0.1942     3.3855    74.8800     0.1193     0.3431
  236    4.700   1890.69     0.1571     0.0054     0.0993     0.0470     0.1981     3.4274    75.2000     0.1229     0.4108
  237    4.720   1891.64     0.1594     0.0051     0.1004     0.0472     0.2020     3.1928    75.5200     0.1265     0.4285
  238    4.740   1892.63     0.1600     0.0051     0.0971     0.0474     0.2009     3.1930    75.8400     0.1251     0.3998
  239    4.760   1893.60     0.1600     0.0054     0.1009     0.0476     0.2018     3.3782    76.1600     0.1256     0.4138
  240    4.780   1894.61     0.1639     0.0054     0.1038     0.0478     0.2072     3.3102    76.4800     0.1307     0.4243
  241    4.800   1895.58     0.1661     0.0053     0.1082     0.0480     0.2108     3.2070    76.8000     0.1340     0.4361
  242    4.820   1896.51     0.1707     0.0052     0.1012     0.0482     0.2111     3.0699    77.1200     0.1339     0.3574
  243    4.840   1897.48     0.1680     0.0052     0.1078     0.0484     0.2130     3.0729    77.4400     0.1355     0.4324
  244    4.860   1898.45     0.1646     0.0051     0.1114     0.0486     0.2112     3.1168    77.7600     0.1334     0.4678
  245    4.880   1899.38     0.1644     0.0051     0.1124     0.0488     0.2115     3.0785    78.0800     0.1334     0.4741
  246    4.900   1900.35     0.1615     0.0049     0.1130     0.0490     0.2088     3.0572    78.4000     0.1304     0.4875
  247    4.920   1901.33     0.1572     0.0051     0.1183     0.0492     0.2064     3.2075    78.7200     0.1277     0.5314
  248    4.940   1902.33     0.1562     0.0051     0.1238     0.0494     0.2071     3.2588    79.0400     0.1281     0.5609
  249    4.960   1903.27     0.1654     0.0051     0.1235     0.0496     0.2175     3.1649    79.3600     0.1381     0.5387
  250    4.980   1904.22     0.1757     0.0051     0.1260     0.0498     0.2280     2.9269    79.6800     0.1483     0.5044
  251    5.000   1905.22     0.1840     0.0051     0.1256     0.0500     0.2365     2.7800    80.0000     0.1565     0.4798
  252    5.020   1906.19     0.1861     0.0050     0.1202     0.0502     0.2377     2.6534    80.3200     0.1574     0.4612
  253    5.040   1907.13     0.1829     0.0051     0.1209     0.0504     0.2330     2.7898    80.6400     0.1523     0.4521
  254    5.060   1908.10     0.1786     0.0052     0.1213     0.0506     0.2293     2.8876    80.9600     0.1483     0.4718
  255    5.080   1909.07     0.1752     0.0052     0.1201     0.0508     0.2255     2.9747    81.2800     0.1442     0.4779
  256    5.100   1910.04     0.1729     0.0052     0.1198     0.0510     0.2229     2.9910    81.6000     0.1413     0.4822
  257    5.120   1911.01     0.1704     0.0051     0.1156     0.0512     0.2186     2.9725    81.9200     0.1367     0.4653
  258    5.140   1911.98     0.1647     0.0048     0.1164     0.0514     0.2131     2.8981    82.2400     0.1308     0.4870
  259    5.160   1912.95     0.1648     0.0049     0.1232     0.0516     0.2154     2.9881    82.5600     0.1328     0.5182
  260    5.180   1913.92     0.1624     0.0050     0.1230     0.0518     0.2143     3.0452    82.8800     0.1315     0.5467
  261    5.200   1914.89     0.1627     0.0049     0.1246     0.0520     0.2147     2.9874    83.2000     0.1315     0.5464
  262    5.220   1915.87     0.1603     0.0048     0.1292     0.0522     0.2142     3.0074    83.5200     0.1307     0.5839
  263    5.240   1916.84     0.1600     0.0048     0.1235     0.0524     0.2128     2.9981    83.8400     0.1289     0.5682
  264    5.260   1917.82     0.1632     0.0047     0.1248     0.0526     0.2152     2.8712    84.1600     0.1311     0.5431
  265    5.280   1918.79     0.1601     0.0047     0.1224     0.0528     0.2118     2.8838    84.4800     0.1274     0.5529
  266    5.300   1919.74     0.1569     0.0046     0.1247     0.0530     0.2089     2.9373    84.8000     0.1241     0.5703
  267    5.320   1920.69     0.1575     0.0047     0.1255     0.0532     0.2104     2.9817    85.1200     0.1253     0.5809
  268    5.340   1921.71     0.1549     0.0048     0.1269     0.0534     0.2081     3.0921    85.4400     0.1226     0.5957
  269    5.360   1922.70     0.1565     0.0049     0.1239     0.0536     0.2094     3.1355    85.7600     0.1236     0.5859
  270    5.380   1923.65     0.1595     0.0048     0.1202     0.0538     0.2108     3.0047    86.0800     0.1248     0.5487
  271    5.400   1924.58     0.1655     0.0047     0.1250     0.0540     0.2174     2.8780    86.4000     0.1310     0.5316
  272    5.420   1925.51     0.1674     0.0047     0.1288     0.0542     0.2207     2.8463    86.7200     0.1340     0.5430
  273    5.440   1926.52     0.1653     0.0050     0.1339     0.0544     0.2209     3.0166    87.0400     0.1339     0.5823
  274    5.460   1927.41     0.1635     0.0049     0.1385     0.0546     0.2211     2.9682    87.3600     0.1337     0.6176
  275    5.480   1928.47     0.1646     0.0050     0.1376     0.0548     0.2230     3.0329    87.6800     0.1354     0.6238
  276    5.500   1929.39     0.1662     0.0048     0.1361     0.0550     0.2232     2.8974    88.0000     0.1352     0.5975
  277    5.520   1930.36     0.1703     0.0053     0.1367     0.0552     0.2273     3.1320    88.3200     0.1390     0.5796
  278    5.540   1931.38     0.1725     0.0059     0.1370     0.0554     0.2307     3.4602    88.6400     0.1420     0.5850
  279    5.560   1932.30     0.1750     0.0065     0.1375     0.0556     0.2321     3.7710    88.9600     0.1431     0.5620
  280    5.580   1933.29     0.1746     0.0063     0.1368     0.0558     0.2324     3.9756    89.2800     0.1432     0.5718
  281    5.600   1934.26     0.1728     0.0062     0.1379     0.0560     0.2303     4.1803    89.6000     0.1407     0.5744
  282    5.620   1938.98     0.1761     0.0061     0.1370     0.0562     0.2342     4.3538    89.9200     0.1443     0.5704
  283    5.640   1948.99     0.1817     0.0060     0.1329     0.0564     0.2381     4.2284    90.2400     0.1479     0.5285
  284    5.660   1959.00     0.1874     0.0059     0.1293     0.0566     0.2421     4.0074    90.5600     0.1515     0.4866
  285    5.680   1963.97     0.1905     0.0057     0.1297     0.0568     0.2450     3.0302    90.8800     0.1541     0.4724
  286    5.700   1967.26     0.1929     0.0058     0.1302     0.0570     0.2475     3.0771    91.2000     0.1563     0.4673
  287    5.720   1970.55     0.1953     0.0058     0.1307     0.0572     0.2501     3.0532    91.5200     0.1586     0.4623
  288    5.740   1972.21     0.1947     0.0057     0.1298     0.0574     0.2496     2.9142    91.8400     0.1577     0.4640
  289    5.760   1973.20     0.1970     0.0058     0.1308     0.0576     0.2520     2.9717    92.1600     0.1599     0.4584
  290    5.780   1974.15     0.1987     0.0058     0.1340     0.0578     0.2541     2.9269    92.4800     0.1616     0.4575
  291    5.800   1975.12     0.2023     0.0061     0.1372     0.0580     0.2596     3.0577    92.8000     0.1668     0.4709
  292    5.820   1976.06     0.2091     0.0064     0.1343     0.0582     0.2653     3.1009    93.1200     0.1722     0.4392
  293    5.840   1977.02     0.2165     0.0066     0.1292     0.0584     0.2721     3.1150    93.4400     0.1787     0.4151
  294    5.860   1978.00     0.2119     0.0068     0.1260     0.0586     0.2657     3.1892    93.7600     0.1719     0.4036
  295    5.880   1978.97     0.2175     0.0069     0.1300     0.0588     0.2704     3.2300    94.0800     0.1763     0.3808
  296    5.900   1979.94     0.2185     0.0071     0.1245     0.0590     0.2719     3.2207    94.4000     0.1775     0.3833
  297    5.920   1980.91     0.2172     0.0075     0.1209     0.0592     0.2686     3.4572    94.7200     0.1739     0.3628
  298    5.940   1981.84     0.2206     0.0077     0.1207     0.0594     0.2715     3.5038    95.0400     0.1764     0.3496
  299    5.960   1982.81     0.2228     0.0075     0.1251     0.0596     0.2739     3.3999    95.3600     0.1785     0.3480
  300    5.980   1983.77     0.2249     0.0073     0.1317     0.0598     0.2797     3.2363    95.6800     0.1840     0.3844
  301    6.000   1984.71     0.2202     0.0070     0.1335     0.0600     0.2756     3.1416    96.0000     0.1796     0.4006
  302    6.020   1985.66     0.2130     0.0067     0.1396     0.0602     0.2709     3.1109    96.3200     0.1746     0.4452
  303    6.040   1986.61     0.2048     0.0064     0.1460     0.0604     0.2654     3.1049    96.6400     0.1688     0.4969
  304    6.060   1987.59     0.1972     0.0060     0.1478     0.0606     0.2592     3.0276    96.9600     0.1622     0.5357
  305    6.080   1988.56     0.1957     0.0055     0.1499     0.0608     0.2583     2.7915    97.2800     0.1611     0.5485
  306    6.100   1989.54     0.1926     0.0053     0.1515     0.0610     0.2562     2.7580    97.6000     0.1586     0.5705
  307    6.120   1990.51     0.1860     0.0052     0.1533     0.0612     0.2507     2.8196    97.9200     0.1528     0.6073
  308    6.140   1991.48     0.1859     0.0052     0.1583     0.0614     0.2512     2.8200    98.2400     0.1529     0.6153
  309    6.160   1992.45     0.1865     0.0052     0.1587     0.0616     0.2539     2.8338    98.5600     0.1554     0.6365
  310    6.180   1993.38     0.1984     0.0055     0.1484     0.0618     0.2618     2.8744    98.8800     0.1629     0.5476
  311    6.200   1994.31     0.2025     0.0055     0.1433     0.0620     0.2633     2.7432    99.2000     0.1641     0.5048
  312    6.220   1995.19     0.2052     0.0057     0.1416     0.0622     0.2653     2.7724    99.5200     0.1657     0.4870
  313    6.240   1996.13     0.2047     0.0058     0.1370     0.0624     0.2632     2.8338    99.8400     0.1634     0.4711
  314    6.260   1997.15     0.2063     0.0058     0.1420     0.0626     0.2650     2.8135   100.1600     0.1649     0.4684
  315    6.280   1998.11     0.2013     0.0058     0.1460     0.0628     0.2619     2.8768   100.4800     0.1614     0.5040
  316    6.300   1999.09     0.1986     0.0058     0.1465     0.0630     0.2601     2.9254   100.8000     0.1593     0.5248
  317    6.320   2000.06     0.1963     0.0046     0.1472     0.0632     0.2587     2.3442   101.1200     0.1576     0.5418
  318    6.340   2001.02     0.1978     0.0053     0.1482     0.0634     0.2598     2.6831   101.4400     0.1583     0.5310
  319    6.360   2002.00     0.1963     0.0054     0.1468     0.0636     0.2580     2.7267   101.7600     0.1562     0.5337
  320    6.380   2002.92     0.1945     0.0054     0.1492     0.0638     0.2565     2.7449   102.0800     0.1544     0.5423
  321    6.400   2003.94     0.1971     0.0054     0.1513     0.0640     0.2604     2.7380   102.4000     0.1580     0.5487
  322    6.420   2004.91     0.2014     0.0057     0.1480     0.0642     0.2649     2.8466   102.7200     0.1622     0.5366
  323    6.440   2007.07     0.2085     0.0064     0.1427     0.0644     0.2693     3.0142   103.0400     0.1663     0.4846
  324    6.460   2008.00     0.2234     0.0071     0.1385     0.0646     0.2815     3.1818   103.3600     0.1782     0.4136
  325    6.480   2008.78     0.2200     0.0070     0.1417     0.0648     0.2793     3.1615   103.6800     0.1756     0.4342
  326    6.500   2009.63     0.2175     0.0069     0.1384     0.0650     0.2742     3.1749   104.0000     0.1702     0.4116
  327    6.520   2010.56     0.2198     0.0070     0.1476     0.0652     0.2793     3.2318   104.3200     0.1750     0.4371
  328    6.540   2025.86     0.2131     0.0071     0.1520     0.0654     0.2764     3.2887   104.6400     0.1718     0.4971
  329    6.560   2049.99     0.2083     0.0054     0.1559     0.0656     0.2732     2.5207   104.9600     0.1683     0.5293
  330    6.580   2060.11     0.2039     0.0066     0.1623     0.0658     0.2713     3.2356   105.2800     0.1660     0.5699
  331    6.600   2062.08     0.2022     0.0065     0.1599     0.0660     0.2702     3.2235   105.6000     0.1646     0.5824
  332    6.620   2070.06     0.2021     0.0064     0.1540     0.0662     0.2676     3.1755   105.9200     0.1617     0.5547
  333    6.640   2078.04     0.2019     0.0063     0.1481     0.0664     0.2650     3.1188   106.2400     0.1588     0.5271
  334    6.660   2083.66     0.1879     0.0061     0.1602     0.0666     0.2545     3.3979   106.5600     0.1479     0.6286
  335    6.680   2084.97     0.1977     0.0059     0.1592     0.0668     0.2643     3.1992   106.8800     0.1574     0.5843
  336    6.700   2085.99     0.2036     0.0059     0.1611     0.0670     0.2704     2.9136   107.2000     0.1632     0.5634
  337    6.720   2086.96     0.2058     0.0061     0.1669     0.0672     0.2751     2.9897   107.5200     0.1676     0.5841
  338    6.740   2087.93     0.2127     0.0063     0.1679     0.0674     0.2836     3.0046   107.8400     0.1757     0.5769
  339    6.760   2088.91     0.2132     0.0064     0.1605     0.0676     0.2817     2.9939   108.1600     0.1735     0.5501
  340    6.780   2089.88     0.2144     0.0066     0.1526     0.0678     0.2795     3.0972   108.4800     0.1710     0.5097
  341    6.800   2090.86     0.2199     0.0068     0.1602     0.0680     0.2857     3.0874   108.8000     0.1769     0.5013
  342    6.820   2091.78     0.2239     0.0069     0.1603     0.0682     0.2916     3.0674   109.1200     0.1825     0.5091
  343    6.840   2092.76     0.2225     0.0067     0.1609     0.0684     0.2902     3.0005   109.4400     0.1808     0.5129
  344    6.860   2093.73     0.2231     0.0065     0.1628     0.0686     0.2909     2.9335   109.7600     0.1811     0.5125
  345    6.880   2094.70     0.2183     0.0065     0.1603     0.0688     0.2861     2.9185   110.0800     0.1760     0.5272
  346    6.900   2095.64     0.2146     0.0065     0.1724     0.0690     0.2854     3.0152   110.4000     0.1750     0.5691
  347    6.920   2096.65     0.2202     0.0066     0.1756     0.0692     0.2934     3.0174   110.7200     0.1827     0.5755
  348    6.940   2097.58     0.2263     0.0064     0.1734     0.0694     0.2997     2.8542   111.0400     0.1886     0.5582
  349    6.960   2098.55     0.2315     0.0064     0.1731     0.0696     0.3040     2.7797   111.3600     0.1927     0.5357
  350    6.980   2099.48     0.2313     0.0063     0.1692     0.0698     0.3017     2.7441   111.6800     0.1900     0.5145
  351    7.000   2100.49     0.2279     0.0064     0.1695     0.0700     0.2977     2.7904   112.0000     0.1857     0.5187
  352    7.020   2101.46     0.2237     0.0064     0.1692     0.0702     0.2949     2.8451   112.3200     0.1826     0.5437
  353    7.040   2102.40     0.2213     0.0063     0.1725     0.0704     0.2934     2.8638   112.6400     0.1808     0.5606
  354    7.060   2103.37     0.2202     0.0064     0.1725     0.0706     0.2935     2.8956   112.9600     0.1805     0.5752
  355    7.080   2104.34     0.2214     0.0061     0.1723     0.0708     0.2934     2.7666   113.2800     0.1801     0.5587
  356    7.100   2105.31     0.2216     0.0063     0.1723     0.0710     0.2939     2.8212   113.6000     0.1803     0.5617
  357    7.120   2106.27     0.2170     0.0061     0.1648     0.0712     0.2874     2.7729   113.9200     0.1735     0.5553
  358    7.140   2107.22     0.2084     0.0061     0.1684     0.0714     0.2787     2.9114   114.2400     0.1645     0.5834
  359    7.160   2108.19     0.2097     0.0061     0.1773     0.0716     0.2837     2.9268   114.5600     0.1691     0.6190
  360    7.180   2109.16     0.2124     0.0061     0.1697     0.0718     0.2852     2.8773   114.8800     0.1703     0.5957
  361    7.200   2110.14     0.2081     0.0063     0.1646     0.0720     0.2768     3.0150   115.2000     0.1616     0.5671
  362    7.220   2111.11     0.2009     0.0066     0.1691     0.0722     0.2720     3.2282   115.5200     0.1565     0.6203
  363    7.240   2112.04     0.1914     0.0057     0.1732     0.0724     0.2642     2.9712   115.8400     0.1484     0.6802
  364    7.260   2113.06     0.1944     0.0067     0.1771     0.0726     0.2686     3.3874   116.1600     0.1524     0.6829
  365    7.280   2113.98     0.2059     0.0071     0.1819     0.0728     0.2815     3.4650   116.4800     0.1650     0.6499
  366    7.300   2114.92     0.2117     0.0076     0.1907     0.0730     0.2904     3.5837   116.8000     0.1736     0.6586
  367    7.320   2115.92     0.2113     0.0078     0.1988     0.0732     0.2938     3.6810   117.1200     0.1767     0.6974
  368    7.340   2118.33     0.1696     0.0076     0.1931     0.0734     0.2513     4.4015   117.4400     0.1339     0.9052
  369    7.360   2125.96     0.2259     0.0076     0.1886     0.0736     0.3056     3.4370   117.7600     0.1878     0.6221
  370    7.380   2143.17     0.2405     0.0079     0.1849     0.0738     0.3187     3.5707   118.0800     0.2006     0.5656
  371    7.400   2160.38     0.2552     0.0082     0.1842     0.0740     0.3318     3.2394   118.4000     0.2134     0.5091
  372    7.420   2162.58     0.2619     0.0085     0.1869     0.0742     0.3409     3.2441   118.7200     0.2222     0.5127
  373    7.440   2163.23     0.2639     0.0084     0.1887     0.0744     0.3425     3.1936   119.0400     0.2235     0.5046
  374    7.460   2163.91     0.2711     0.0087     0.1718     0.0746     0.3436     3.3017   119.3600     0.2242     0.4370
  375    7.480   2164.55     0.2574     0.0090     0.1698     0.0748     0.3320     3.4871   119.6800     0.2123     0.4834
  376    7.500   2165.21     0.2574     0.0093     0.1732     0.0750     0.3277     3.6726   120.0000     0.2077     0.4449
  377    7.520   2165.86     0.2522     0.0094     0.1889     0.0752     0.3299     3.7295   120.3200     0.2096     0.5240
  378    7.540   2166.50     0.2570     0.0089     0.1892     0.0754     0.3359     3.4846   120.6400     0.2153     0.5231
  379    7.560   2168.38     0.2514     0.0085     0.1873     0.0756     0.3308     3.3219   120.9600     0.2098     0.5409
  380    7.580   2173.64     0.2526     0.0081     0.1819     0.0758     0.3298     3.1860   121.2800     0.2085     0.5173
  381    7.600   2178.89     0.2539     0.0077     0.1766     0.0760     0.3289     3.0819   121.6000     0.2073     0.4937
  382    7.620   2184.15     0.2552     0.0075     0.1733     0.0762     0.3279     2.9734   121.9200     0.2060     0.4701
  383    7.640   2185.10     0.2501     0.0074     0.1780     0.0764     0.3238     2.9321   122.2400     0.2016     0.4916
  384    7.660   2191.61     0.2435     0.0073     0.1866     0.0766     0.3206     2.9503   122.5600     0.1980     0.5414
  385    7.680   2206.35     0.2347     0.0073     0.1957     0.0768     0.3155     2.9700   122.8800     0.1926     0.6038
  386    7.700   2221.10     0.2258     0.0072     0.2047     0.0770     0.3105     2.9681   123.2000     0.1873     0.6661
  387    7.720   2225.31     0.2219     0.0067     0.2077     0.0772     0.3089     3.0540   123.5200     0.1854     0.7013
  388    7.740   2226.28     0.2190     0.0063     0.2071     0.0774     0.3064     2.8748   123.8400     0.1826     0.7156
  389    7.760   2227.23     0.2147     0.0064     0.2119     0.0776     0.3029     2.9518   124.1600     0.1787     0.7411
  390    7.780   2228.20     0.2162     0.0065     0.2207     0.0778     0.3064     3.0202   124.4800     0.1819     0.7527
  391    7.800   2229.22     0.2278     0.0064     0.2278     0.0780     0.3231     2.8767   124.8000     0.1983     0.7514
  392    7.820   2230.22     0.2542     0.0066     0.2165     0.0782     0.3477     2.6479   125.1200     0.2225     0.6490
  393    7.840   2231.18     0.2630     0.0068     0.2024     0.0784     0.3467     2.5990   125.4400     0.2213     0.5469
  394    7.860   2232.18     0.2666     0.0068     0.2138     0.0786     0.3565     2.5309   125.7600     0.2308     0.5872
  395    7.880   2233.15     0.2612     0.0067     0.2168     0.0788     0.3510     2.5580   126.0800     0.2249     0.6000
  396    7.900   2234.12     0.2575     0.0068     0.2056     0.0790     0.3437     2.6406   126.4000     0.2173     0.5809
  397    7.920   2235.08     0.2647     0.0066     0.2122     0.0792     0.3528     2.4951   126.7200     0.2260     0.5773
  398    7.940   2236.01     0.2660     0.0065     0.2173     0.0794     0.3571     2.4668   127.0400     0.2300     0.5975
  399    7.960   2236.99     0.2778     0.0072     0.2043     0.0796     0.3662     2.6139   127.3600     0.2389     0.5482
  400    7.980   2237.96     0.2928     0.0075     0.2033     0.0798     0.3780     2.6101   127.6800     0.2503     0.4916
  401    8.000   2238.98     0.2852     0.0080     0.1944     0.0800     0.3678     2.7687   128.0000     0.2398     0.4864
  402    8.020   2239.95     0.2994     0.0085     0.1898     0.0802     0.3775     2.9090   128.3200     0.2491     0.4240
  403    8.040   2240.88     0.3050     0.0089     0.1951     0.0804     0.3869     2.9261   128.6400     0.2582     0.4431
  404    8.060   2241.89     0.3127     0.0095     0.1989     0.0806     0.3956     3.0615   128.9600     0.2666     0.4384
  405    8.080   2242.83     0.3083     0.0096     0.1984     0.0808     0.3911     3.1055   129.2800     0.2618     0.4444
  406    8.100   2243.80     0.3018     0.0094     0.1985     0.0810     0.3860     3.1131   129.6000     0.2564     0.4662
  407    8.120   2244.77     0.3030     0.0095     0.2053     0.0812     0.3882     3.1269   129.9200     0.2583     0.4711
  408    8.140   2245.72     0.2999     0.0095     0.2070     0.0814     0.3861     3.1463   130.2400     0.2559     0.4844
  409    8.160   2246.76     0.2981     0.0093     0.2094     0.0816     0.3856     3.1611   130.5600     0.2551     0.4971
  410    8.180   2247.76     0.3028     0.0090     0.2092     0.0818     0.3904     2.9943   130.8800     0.2596     0.4888
  411    8.200   2248.71     0.3049     0.0092     0.2048     0.0820     0.3918     3.0151   131.2000     0.2606     0.4791
  412    8.220   2249.67     0.3072     0.0095     0.2026     0.0822     0.3926     3.1095   131.5200     0.2611     0.4642
  413    8.240   2250.62     0.3100     0.0097     0.1997     0.0824     0.3945     3.1227   131.8400     0.2626     0.4524
  414    8.260   2251.63     0.3146     0.0103     0.1978     0.0826     0.3966     3.2900   132.1600     0.2645     0.4258
  415    8.280   2252.60     0.3173     0.0109     0.1971     0.0828     0.3994     3.4393   132.4800     0.2670     0.4221
  416    8.300   2253.58     0.3046     0.0108     0.2008     0.0830     0.3884     3.4806   132.8000     0.2556     0.4553
  417    8.320   2254.56     0.2957     0.0110     0.2014     0.0832     0.3803     3.6456   133.1200     0.2472     0.4784
  418    8.340   2255.53     0.2897     0.0111     0.2114     0.0834     0.3777     3.8107   133.4400     0.2443     0.5166
  419    8.360   2256.50     0.2824     0.0109     0.2138     0.0836     0.3731     3.8511   133.7600     0.2393     0.5525
  420    8.380   2257.47     0.2718     0.0104     0.2236     0.0838     0.3655     3.8099   134.0800     0.2314     0.6017
  421    8.400   2258.44     0.2667     0.0099     0.2199     0.0840     0.3597     3.7051   134.4000     0.2253     0.6105
  422    8.420   2275.01     0.2710     0.0097     0.2150     0.0842     0.3620     3.6303   134.7200     0.2273     0.5833
  423    8.440   2292.58     0.2758     0.0095     0.2100     0.0844     0.3647     3.5473   135.0400     0.2296     0.5551
  424    8.460   2310.15     0.2805     0.0101     0.2122     0.0846     0.3673     3.6878   135.3600     0.2320     0.5269
  425    8.480   2311.97     0.2845     0.0109     0.2251     0.0848     0.3793     3.8693   135.6800     0.2436     0.5783
  426    8.500   2312.94     0.2846     0.0112     0.2244     0.0850     0.3793     3.9148   136.0000     0.2433     0.5770
  427    8.520   2313.90     0.2980     0.0116     0.2315     0.0852     0.3936     3.9379   136.3200     0.2573     0.5539
  428    8.540   2314.85     0.3068     0.0120     0.2261     0.0854     0.4035     3.9610   136.6400     0.2669     0.5429
  429    8.560   2317.83     0.3095     0.0122     0.2127     0.0856     0.4008     3.9835   136.9600     0.2638     0.4998
  430    8.580   2324.56     0.3169     0.0120     0.1992     0.0858     0.4026     3.8992   137.2800     0.2653     0.4455
  431    8.600   2330.20     0.3208     0.0115     0.1991     0.0860     0.4028     3.6432   137.6000     0.2652     0.4122
  432    8.620   2331.91     0.3096     0.0116     0.2026     0.0862     0.3942     3.6550   137.9200     0.2563     0.4512
  433    8.640   2333.91     0.2986     0.0110     0.2060     0.0864     0.3846     3.4774   138.2400     0.2464     0.4830
  434    8.660   2335.92     0.2876     0.0105     0.2077     0.0866     0.3750     3.4531   138.5600     0.2365     0.5148
  435    8.680   2336.94     0.2940     0.0101     0.2079     0.0868     0.3814     3.4592   138.8800     0.2425     0.5002
  436    8.700   2337.95     0.3013     0.0097     0.2099     0.0870     0.3884     3.2315   139.2000     0.2492     0.4834
  437    8.720   2338.88     0.3023     0.0095     0.2091     0.0872     0.3914     3.1280   139.5200     0.2519     0.4958
  438    8.740   2339.89     0.3046     0.0096     0.2021     0.0874     0.3899     3.1638   139.8400     0.2500     0.4625
  439    8.760   2340.83     0.3091     0.0097     0.1966     0.0876     0.3925     3.1388   140.1600     0.2523     0.4397
  440    8.780   2341.78     0.3143     0.0098     0.1912     0.0878     0.3955     3.1254   140.4800     0.2550     0.4139
  441    8.800   2342.75     0.3178     0.0098     0.1857     0.0880     0.3967     3.0925   140.8000     0.2559     0.3901
  442    8.820   2343.78     0.3149     0.0102     0.1873     0.0882     0.3938     3.2239   141.1200     0.2526     0.3941
  443    8.840   2344.77     0.3073     0.0100     0.1891     0.0884     0.3869     3.2277   141.4400     0.2454     0.4116
  444    8.860   2345.77     0.3042     0.0101     0.1883     0.0886     0.3821     3.3017   141.7600     0.2404     0.4036
  445    8.880   2346.74     0.2982     0.0100     0.1874     0.0888     0.3780     3.3761   142.0800     0.2359     0.4289
  446    8.900   2347.71     0.2920     0.0100     0.1891     0.0890     0.3715     3.3946   142.4000     0.2291     0.4377
  447    8.920   2348.68     0.2919     0.0101     0.2008     0.0892     0.3738     3.4801   142.7200     0.2311     0.4572
  448    8.940   2349.68     0.2955     0.0100     0.1949     0.0894     0.3795     3.3660   143.0400     0.2364     0.4672
  449    8.960   2350.62     0.2877     0.0096     0.2054     0.0896     0.3722     3.3041   143.3600     0.2289     0.4876
  450    8.980   2351.63     0.2864     0.0098     0.2183     0.0898     0.3765     3.4431   143.6800     0.2328     0.5362
  451    9.000   2352.56     0.2929     0.0100     0.2188     0.0900     0.3860     3.4249   144.0000     0.2420     0.5438
  452    9.020   2353.53     0.2908     0.0105     0.2221     0.0902     0.3837     3.6062   144.3200     0.2394     0.5478
  453    9.040   2354.51     0.2972     0.0105     0.2265     0.0904     0.3914     3.5468   144.6400     0.2468     0.5426
  454    9.060   2355.53     0.3018     0.0105     0.2206     0.0906     0.3953     3.5093   144.9600     0.2504     0.5278
  455    9.080   2356.50     0.2947     0.0103     0.2243     0.0908     0.3885     3.4576   145.2800     0.2432     0.5446
  456    9.100   2357.47     0.2882     0.0103     0.2188     0.0910     0.3804     3.5724   145.6000     0.2348     0.5477
  457    9.120   2358.45     0.2788     0.0097     0.2323     0.0912     0.3728     3.4362   145.9200     0.2269     0.5846
  458    9.140   2359.46     0.2761     0.0096     0.2524     0.0914     0.3801     3.4737   146.2400     0.2339     0.6678
  459    9.160   2360.38     0.2896     0.0097     0.2613     0.0916     0.3990     3.4090   146.5600     0.2525     0.6694
  460    9.180   2361.40     0.3107     0.0100     0.2566     0.0918     0.4195     3.2890   146.8800     0.2726     0.6133
  461    9.200   2362.43     0.3178     0.0101     0.2471     0.0920     0.4233     3.1906   147.2000     0.2761     0.5760
  462    9.220   2363.36     0.3208     0.0101     0.2403     0.0922     0.4229     3.1629   147.5200     0.2754     0.5481
  463    9.240   2364.33     0.3233     0.0104     0.2359     0.0924     0.4224     3.2050   147.8400     0.2746     0.5228
  464    9.260   2365.26     0.3194     0.0107     0.2371     0.0926     0.4191     3.3495   148.1600     0.2709     0.5343
  465    9.280   2366.24     0.3167     0.0109     0.2434     0.0928     0.4161     3.4487   148.4800     0.2676     0.5374
  466    9.300   2367.28     0.3240     0.0111     0.2490     0.0930     0.4299     3.4349   148.8000     0.2811     0.5661
  467    9.320   2368.25     0.3340     0.0111     0.2365     0.0932     0.4338     3.3624   149.1200     0.2847     0.5076
  468    9.340   2369.25     0.3415     0.0108     0.2333     0.0934     0.4401     3.1971   149.4400     0.2907     0.4866
  469    9.360   2370.22     0.3515     0.0112     0.2328     0.0936     0.4491     3.2088   149.7600     0.2994     0.4639
  470    9.380   2371.20     0.3578     0.0116     0.2335     0.0938     0.4552     3.2379   150.0800     0.3051     0.4528
  471    9.400   2372.17     0.3479     0.0115     0.2384     0.0940     0.4473     3.2968   150.4000     0.2969     0.4806
  472    9.420   2373.14     0.3406     0.0117     0.2497     0.0942     0.4443     3.4113   150.7200     0.2936     0.5208
  473    9.440   2374.03     0.3318     0.0089     0.2487     0.0944     0.4369     2.6412   151.0400     0.2858     0.5452
  474    9.460   2375.05     0.3212     0.0127     0.2468     0.0946     0.4250     3.9516   151.3600     0.2736     0.5575
  475    9.480   2376.02     0.3273     0.0123     0.2601     0.0948     0.4340     3.7680   151.6800     0.2823     0.5641
  476    9.500   2377.04     0.3326     0.0119     0.2729     0.0950     0.4460     3.6093   152.0000     0.2940     0.5957
  477    9.520   2378.06     0.3436     0.0118     0.2754     0.0952     0.4595     3.4292   152.3200     0.3072     0.5882
  478    9.540   2386.95     0.3102     0.0119     0.2259     0.0954     0.4148     3.6710   152.6400     0.2621     0.5955
  479    9.560   2399.23     0.3543     0.0122     0.2288     0.0956     0.4494     3.4258   152.9600     0.2965     0.4418
  480    9.580   2400.21     0.3495     0.0120     0.2469     0.0958     0.4510     3.4400   153.2800     0.2977     0.4901
  481    9.600   2401.25     0.3470     0.0118     0.2452     0.0960     0.4505     3.3798   153.6000     0.2969     0.5070
  482    9.620   2402.24     0.3470     0.0113     0.2542     0.0962     0.4515     3.2597   153.9200     0.2975     0.5126
  483    9.640   2403.19     0.3417     0.0109     0.2674     0.0964     0.4522     3.1823   154.2400     0.2979     0.5594
  484    9.660   2404.21     0.3346     0.0111     0.2722     0.0966     0.4487     3.3086   154.5600     0.2941     0.5946
  485    9.680   2405.18     0.3344     0.0112     0.2693     0.0968     0.4472     3.3406   154.8800     0.2923     0.5877
  486    9.700   2406.15     0.3211     0.0113     0.2706     0.0970     0.4352     3.4953   155.2000     0.2800     0.6243
  487    9.720   2407.11     0.3166     0.0110     0.2676     0.0972     0.4297     3.4683   155.5200     0.2742     0.6275
  488    9.740   2408.09     0.3201     0.0106     0.2646     0.0974     0.4322     3.3405   155.8400     0.2763     0.6130
  489    9.760   2409.06     0.3285     0.0107     0.2731     0.0976     0.4413     3.2847   156.1600     0.2851     0.5991
  490    9.780   2410.03     0.3287     0.0107     0.2764     0.0978     0.4447     3.2300   156.4800     0.2882     0.6183
  491    9.800   2411.05     0.3315     0.0105     0.2742     0.0980     0.4471     3.1760   156.8000     0.2903     0.6110
  492    9.820   2412.02     0.3213     0.0103     0.2644     0.0982     0.4336     3.1728   157.1200     0.2765     0.6121
  493    9.840   2413.00     0.3024     0.0103     0.2597     0.0984     0.4108     3.3804   157.4400     0.2533     0.6297
  494    9.860   2413.93     0.3075     0.0102     0.2620     0.0986     0.4163     3.3472   157.7600     0.2585     0.6203
  495    9.880   2414.84     0.3143     0.0104     0.2449     0.0988     0.4218     3.3463   158.0800     0.2637     0.5959
  496    9.900   2415.83     0.3282     0.0105     0.2575     0.0990     0.4316     3.2037   158.4000     0.2732     0.5387
  497    9.920   2416.87     0.3232     0.0106     0.2746     0.0992     0.4384     3.2851   158.7200     0.2797     0.6260
  498    9.940   2417.85     0.3294     0.0106     0.2721     0.0994     0.4440     3.2171   159.0400     0.2850     0.6087
  499    9.960   2418.82     0.3467     0.0108     0.2702     0.0996     0.4602     3.1969   159.3600     0.3008     0.5675
  500    9.980   2419.79     0.3576     0.0109     0.2738     0.0998     0.4721     3.0524   159.6800     0.3124     0.5527
  501   10.000   2420.79     0.3599     0.0111     0.2725     0.1000     0.4743     3.0914   160.0000     0.3143     0.5485
  502   10.020   2421.76     0.3563     0.0113     0.2710     0.1002     0.4710     3.1536   160.3200     0.3107     0.5571
  503   10.040   2422.69     0.3523     0.0113     0.2582     0.1004     0.4630     3.2263   160.6400     0.3024     0.5396
  504   10.060   2423.66     0.3545     0.0114     0.2736     0.1006     0.4662     3.1859   160.9600     0.3052     0.5422
  505   10.080   2424.63     0.3465     0.0117     0.2607     0.1008     0.4603     3.3953   161.2800     0.2990     0.5689
  506   10.100   2425.62     0.3552     0.0117     0.2534     0.1010     0.4635     3.3108   161.6000     0.3019     0.5196
  507   10.120   2426.63     0.3570     0.0117     0.2637     0.1012     0.4660     3.2586   161.9200     0.3041     0.5207
  508   10.140   2427.61     0.3565     0.0113     0.2638     0.1014     0.4676     3.1741   162.2400     0.3054     0.5341
  509   10.160   2428.57     0.3549     0.0112     0.2603     0.1016     0.4643     3.1406   162.5600     0.3017     0.5266
  510   10.180   2429.55     0.3437     0.0113     0.2723     0.1018     0.4555     3.2936   162.8800     0.2926     0.5616
  511   10.200   2430.48     0.3547     0.0112     0.2574     0.1020     0.4635     3.2113   163.2000     0.3003     0.5226
  512   10.220   2431.45     0.3515     0.0114     0.2678     0.1022     0.4660     3.1993   163.5200     0.3024     0.5633
  513   10.240   2432.51     0.3615     0.0115     0.2610     0.1024     0.4729     3.1914   163.8400     0.3090     0.5272
  514   10.260   2433.49     0.3760     0.0125     0.2632     0.1026     0.4870     3.4006   164.1600     0.3229     0.5012
  515   10.280   2434.46     0.3819     0.0138     0.2651     0.1028     0.4917     3.6790   164.4800     0.3272     0.4850
  516   10.300   2435.39     0.3799     0.0149     0.2755     0.1030     0.4949     3.9162   164.8000     0.3301     0.5170
  517   10.320   2436.35     0.3821     0.0148     0.2814     0.1032     0.4990     3.8756   165.1200     0.3339     0.5246
  518   10.340   2437.32     0.3870     0.0144     0.2898     0.1034     0.5078     3.7333   165.4400     0.3424     0.5380
  519   10.360   2499.67     0.3878     0.0141     0.2880     0.1036     0.5094     3.6787   165.7600     0.3436     0.5418
  520   10.380   2685.40     0.4000     0.0140     0.2833     0.1038     0.5197     3.6418   166.0800     0.3536     0.5134
  521   10.400   2871.13     0.4123     0.0137     0.2819     0.1040     0.5300     3.5674   166.4000     0.3636     0.4851
  522   10.420   2911.75     0.4052     0.0136     0.3014     0.1042     0.5294     3.3663   166.7200     0.3627     0.5278
  523   10.440   2912.77     0.3970     0.0152     0.3098     0.1044     0.5257     3.8358   167.0400     0.3586     0.5631
  524   10.460   2913.74     0.3997     0.0147     0.3181     0.1046     0.5318     3.6862   167.3600     0.3644     0.5759
  525   10.480   2914.74     0.4006     0.0142     0.3267     0.1048     0.5365     3.5425   167.6800     0.3688     0.5931
  526   10.500   2915.67     0.3963     0.0139     0.3283     0.1050     0.5345     3.5015   168.0000     0.3665     0.6112
  527   10.520   2920.21     0.3871     0.0135     0.3204     0.1052     0.5234     3.5441   168.3200     0.3551     0.6183
  528   10.540   2927.38     0.3978     0.0129     0.3083     0.1054     0.5291     3.3808   168.6400     0.3604     0.5749
  529   10.560   2930.65     0.3968     0.0128     0.3272     0.1056     0.5318     3.2130   168.9600     0.3629     0.5949
  530   10.580   2931.62     0.3928     0.0123     0.3317     0.1058     0.5316     3.1415   169.2800     0.3623     0.6199
  531   10.600   2932.63     0.3894     0.0119     0.3319     0.1060     0.5293     3.0541   169.6000     0.3597     0.6313
  532   10.620   2933.59     0.3863     0.0119     0.3327     0.1062     0.5261     3.0758   169.9200     0.3562     0.6366
  533   10.640   2934.53     0.3833     0.0118     0.3258     0.1064     0.5213     3.0721   170.2400     0.3510     0.6327
  534   10.660   2935.50     0.3802     0.0118     0.3300     0.1066     0.5182     3.0851   170.5600     0.3476     0.6385
  535   10.680   2936.52     0.3744     0.0119     0.3292     0.1068     0.5124     3.1715   170.8800     0.3416     0.6499
  536   10.700   2937.50     0.3850     0.0119     0.3294     0.1070     0.5232     3.1235   171.2000     0.3520     0.6304
  537   10.720   2938.47     0.3851     0.0122     0.3324     0.1072     0.5247     3.1496   171.5200     0.3532     0.6379
  538   10.740   2939.40     0.3862     0.0124     0.3207     0.1074     0.5218     3.2416   171.8400     0.3500     0.6153
  539   10.760   2940.41     0.3926     0.0127     0.3219     0.1076     0.5278     3.2765   172.1600     0.3556     0.6023
  540   10.780   2941.38     0.4004     0.0129     0.3220     0.1078     0.5350     3.2748   172.4800     0.3625     0.5863
  541   10.800   2942.32     0.4009     0.0131     0.3288     0.1080     0.5382     3.2731   172.8000     0.3654     0.5990
  542   10.820   2943.32     0.4030     0.0130     0.3383     0.1082     0.5436     3.2202   173.1200     0.3705     0.6117
  543   10.840   2944.31     0.3983     0.0129     0.3426     0.1084     0.5416     3.2412   173.4400     0.3681     0.6322
  544   10.860   2945.26     0.3991     0.0130     0.3486     0.1086     0.5450     3.2685   173.7600     0.3713     0.6436
  545   10.880   2947.42     0.3984     0.0128     0.3457     0.1088     0.5440     3.2170   174.0800     0.3699     0.6430
  546   10.900   2949.92     0.3983     0.0127     0.3427     0.1090     0.5427     3.1972   174.4000     0.3683     0.6373
  547   10.920   2951.84     0.3999     0.0127     0.3437     0.1092     0.5442     3.1932   174.7200     0.3695     0.6340
  548   10.940   2952.82     0.4025     0.0129     0.3460     0.1094     0.5473     3.1968   175.0400     0.3722     0.6321
  549   10.960   2953.82     0.3948     0.0129     0.3462     0.1096     0.5402     3.2542   175.3600     0.3648     0.6482
  550   10.980   2954.76     0.3962     0.0129     0.3503     0.1098     0.5427     3.2639   175.6800     0.3670     0.6514
  551   11.000   2955.81     0.3948     0.0131     0.3486     0.1100     0.5414     3.3078   176.0000     0.3654     0.6541
  552   11.020   2956.75     0.3930     0.0130     0.3523     0.1102     0.5402     3.3027   176.3200     0.3639     0.6601
  553   11.040   2957.73     0.3929     0.0128     0.3540     0.1104     0.5413     3.2585   176.6400     0.3646     0.6662
  554   11.060   2958.67     0.3962     0.0128     0.3508     0.1106     0.5442     3.2308   176.9600     0.3672     0.6582
  555   11.080   2959.64     0.3985     0.0128     0.3554     0.1108     0.5470     3.2206   177.2800     0.3697     0.6564
  556   11.100   2960.65     0.3995     0.0129     0.3523     0.1110     0.5486     3.2326   177.6000     0.3710     0.6577
  557   11.120   2961.63     0.4066     0.0131     0.3512     0.1112     0.5520     3.2338   177.9200     0.3741     0.6282
  558   11.140   2962.60     0.4120     0.0131     0.3554     0.1114     0.5613     3.1863   178.2400     0.3830     0.6370
  559   11.160   2963.58     0.4145     0.0131     0.3570     0.1116     0.5642     3.1649   178.5600     0.3857     0.6348
  560   11.180   2964.54     0.4131     0.0130     0.3586     0.1118     0.5639     3.1502   178.8800     0.3850     0.6424
  561   11.200   2965.47     0.4169     0.0132     0.3599     0.1120     0.5676     3.1628   179.2000     0.3884     0.6356
  562   11.220   2966.53     0.4191     0.0131     0.3633     0.1122     0.5707     3.1334   179.5200     0.3912     0.6359
  563   11.240   2967.46     0.4188     0.0134     0.3650     0.1124     0.5722     3.1897   179.8400     0.3924     0.6445
  564   11.260   2968.44     0.4272     0.0134     0.3634     0.1126     0.5804     3.1493   180.1600     0.4002     0.6302
  565   11.280   2969.40     0.4307     0.0135     0.3624     0.1128     0.5826     3.1281   180.4800     0.4021     0.6186
  566   11.300   2970.37     0.4301     0.0136     0.3649     0.1130     0.5828     3.1650   180.8000     0.4020     0.6237
  567   11.320   2971.36     0.4277     0.0140     0.3666     0.1132     0.5815     3.2583   181.1200     0.4004     0.6316
  568   11.340   2972.36     0.4259     0.0135     0.3730     0.1134     0.5820     3.1479   181.4400     0.4005     0.6447
  569   11.360   2973.33     0.4256     0.0133     0.3716     0.1136     0.5820     3.1259   181.7600     0.4002     0.6462
  570   11.380   2974.28     0.4252     0.0134     0.3720     0.1138     0.5812     3.1539   182.0800     0.3991     0.6455
  571   11.400   2975.22     0.4273     0.0116     0.3755     0.1140     0.5841     2.7077   182.4000     0.4017     0.6459
  572   11.420   2976.19     0.4218     0.0157     0.3849     0.1142     0.5822     3.7071   182.7200     0.3995     0.6706
  573   11.440   2977.22     0.4269     0.0158     0.3798     0.1144     0.5864     3.6957   183.0400     0.4033     0.6578
  574   11.460   2978.21     0.4323     0.0156     0.3776     0.1146     0.5915     3.6227   183.3600     0.4081     0.6482
  575   11.480   2979.16     0.4341     0.0154     0.3759     0.1148     0.5915     3.5554   183.6800     0.4078     0.6374
  576   11.500   2987.86     0.4026     0.0156     0.3348     0.1150     0.5552     3.6604   184.0000     0.3712     0.6755
  577   11.520   3005.15     0.4497     0.0153     0.3409     0.1152     0.5906     3.4164   184.3200     0.4063     0.5424
  578   11.540   3006.20     0.4434     0.0149     0.3650     0.1154     0.5946     3.3479   184.6400     0.4099     0.5964
  579   11.560   3007.17     0.4367     0.0147     0.3725     0.1156     0.5921     3.3634   184.9600     0.4072     0.6248
  580   11.580   3008.16     0.4377     0.0144     0.3757     0.1158     0.5953     3.2943   185.2800     0.4100     0.6328
  581   11.600   3009.13     0.4367     0.0144     0.3776     0.1160     0.5948     3.2843   185.6000     0.4092     0.6364
  582   11.620   3010.14     0.4345     0.0141     0.3826     0.1162     0.5944     3.2580   185.9200     0.4085     0.6474
  583   11.640   3011.11     0.4424     0.0142     0.3858     0.1164     0.6042     3.2255   186.2400     0.4180     0.6434
  584   11.660   3012.04     0.4440     0.0141     0.3872     0.1166     0.6062     3.1702   186.5600     0.4197     0.6426
  585   11.680   3013.01     0.4491     0.0138     0.3903     0.1168     0.6125     3.0853   186.8800     0.4256     0.6393
  586   11.700   3013.98     0.4477     0.0137     0.3832     0.1170     0.6123     3.0508   187.2000     0.4251     0.6468
  587   11.720   3014.96     0.4467     0.0136     0.3877     0.1172     0.6065     3.0345   187.5200     0.4189     0.6282
  588   11.740   3015.97     0.4454     0.0134     0.3926     0.1174     0.6118     3.0044   187.8400     0.4239     0.6575
  589   11.760   3016.95     0.4451     0.0135     0.3892     0.1176     0.6083     3.0380   188.1600     0.4202     0.6450
  590   11.780   3017.91     0.4402     0.0135     0.3905     0.1178     0.6047     3.0507   188.4800     0.4163     0.6582
  591   11.800   3018.89     0.4363     0.0136     0.3867     0.1180     0.5986     3.1038   188.8000     0.4098     0.6551
  592   11.820   3019.87     0.4371     0.0136     0.3890     0.1182     0.6002     3.1075   189.1200     0.4111     0.6573
  593   11.840   3020.80     0.4386     0.0138     0.3861     0.1184     0.6012     3.1477   189.4400     0.4118     0.6527
  594   11.860   3021.80     0.4412     0.0138     0.3891     0.1186     0.6045     3.1337   189.7600     0.4147     0.6513
  595   11.880   3022.77     0.4412     0.0137     0.3869     0.1188     0.6039     3.0967   190.0800     0.4139     0.6495
  596   11.900   3023.74     0.4406     0.0138     0.3883     0.1190     0.6037     3.1224   190.4000     0.4133     0.6515
  597   11.920   3024.71     0.4409     0.0137     0.3839     0.1192     0.6029     3.1133   190.7200     0.4122     0.6464
  598   11.940   3025.68     0.4397     0.0139     0.3853     0.1194     0.6006     3.1484   191.0400     0.4096     0.6442
  599   11.960   3026.64     0.4392     0.0138     0.3899     0.1196     0.6028     3.1379   191.3600     0.4115     0.6562
  600   11.980   3027.61     0.4426     0.0138     0.3907     0.1198     0.6068     3.1128   191.6800     0.4152     0.6533
  601   12.000   3028.54     0.4423     0.0137     0.3936     0.1200     0.6067     3.1000   192.0000     0.4147     0.6547
  602   12.020   3029.56     0.4451     0.0137     0.3977     0.1202     0.6114     3.0732   192.3200     0.4190     0.6580
  603   12.040   3030.53     0.4432     0.0136     0.3967     0.1204     0.6105     3.0718   192.6400     0.4179     0.6654
  604   12.060   3031.55     0.4423     0.0138     0.3934     0.1206     0.6079     3.1214   192.9600     0.4149     0.6596
  605   12.080   3032.52     0.4503     0.0138     0.3966     0.1208     0.6163     3.0945   193.2800     0.4230     0.6489
  606   12.100   3033.45     0.4509     0.0139     0.3979     0.1210     0.6174     3.0854   193.6000     0.4238     0.6501
  607   12.120   3034.46     0.4486     0.0140     0.4003     0.1212     0.6162     3.1231   193.9200     0.4223     0.6578
  608   12.140   3035.44     0.4552     0.0141     0.3980     0.1214     0.6221     3.1100   194.2400     0.4279     0.6450
  609   12.160   3036.41     0.4537     0.0148     0.4011     0.1216     0.6222     3.2396   194.5600     0.4276     0.6536
  610   12.180   3037.37     0.4553     0.0156     0.4013     0.1218     0.6237     3.4249   194.8800     0.4288     0.6512
  611   12.200   3038.29     0.4577     0.0163     0.4011     0.1220     0.6263     3.5643   195.2000     0.4311     0.6481
  612   12.220   3039.29     0.4590     0.0161     0.3966     0.1222     0.6263     3.5058   195.5200     0.4307     0.6407
  613   12.240   3040.26     0.4577     0.0159     0.3958     0.1224     0.6241     3.4759   195.8400     0.4283     0.6395
  614   12.260   3046.86     0.4596     0.0157     0.3957     0.1226     0.6257     3.4118   196.1600     0.4295     0.6355
  615   12.280   3070.38     0.4590     0.0154     0.3962     0.1228     0.6253     3.3489   196.4800     0.4288     0.6372
  616   12.300   3093.91     0.4584     0.0150     0.3988     0.1230     0.6249     3.2726   196.8000     0.4281     0.6389
  617   12.320   3098.31     0.4546     0.0148     0.4049     0.1232     0.6241     3.2543   197.1200     0.4270     0.6569
  618   12.340   3099.34     0.4538     0.0146     0.4097     0.1234     0.6253     3.2220   197.4400     0.4279     0.6660
  619   12.360   3100.31     0.4561     0.0147     0.4074     0.1236     0.6278     3.2377   197.7600     0.4300     0.6633
  620   12.380   3101.28     0.4614     0.0152     0.4059     0.1238     0.6318     3.2990   198.0800     0.4337     0.6499
  621   12.400   3102.25     0.4667     0.0157     0.4077     0.1240     0.6377     3.3604   198.4000     0.4393     0.6446
  622   12.420   3103.22     0.4731     0.0162     0.4068     0.1242     0.6446     3.4227   198.7200     0.4459     0.6375
  623   12.440   3104.17     0.4838     0.0166     0.4099     0.1244     0.6546     3.4451   199.0400     0.4555     0.6195
  624   12.460   3105.14     0.5003     0.0172     0.4101     0.1246     0.6735     3.4637   199.3600     0.4741     0.6067
  625   12.480   3111.98     0.5104     0.0175     0.3721     0.1248     0.6724     3.4205   199.6800     0.4727     0.5484
  626   12.500   3122.53     0.5094     0.0172     0.3326     0.1250     0.6548     3.3658   200.0000     0.4548     0.4810
  627   12.520   3133.07     0.5085     0.0175     0.2905     0.1252     0.6373     3.4776   200.3200     0.4370     0.4136
  628   12.540   3136.72     0.4987     0.0178     0.3146     0.1254     0.6166     3.5899   200.6400     0.4160     0.3723
  629   12.560   3137.69     0.4852     0.0182     0.3638     0.1256     0.6328     3.7400   200.9600     0.4318     0.5229
  630   12.580   3138.63     0.4729     0.0175     0.3907     0.1258     0.6342     3.6936   201.2800     0.4329     0.5965
  631   12.600   3139.63     0.4638     0.0167     0.4023     0.1260     0.6316     3.6059   201.6000     0.4300     0.6359
  632   12.620   3142.02     0.4576     0.0163     0.4101     0.1262     0.6287     3.5417   201.9200     0.4268     0.6592
  633   12.640   3145.35     0.4517     0.0157     0.4179     0.1264     0.6261     3.4128   202.2400     0.4239     0.6815
  634   12.660   3148.19     0.4459     0.0150     0.4200     0.1266     0.6227     3.3532   202.5600     0.4201     0.7003
  635   12.680   3149.18     0.4418     0.0143     0.4410     0.1268     0.6228     3.2335   202.8800     0.4199     0.7242
  636   12.700   3150.20     0.4387     0.0144     0.4542     0.1270     0.6283     3.2785   203.2000     0.4251     0.7628
  637   12.720   3151.15     0.4442     0.0141     0.4558     0.1272     0.6363     3.1868   203.5200     0.4328     0.7632
  638   12.740   3152.13     0.4617     0.0144     0.4588     0.1274     0.6540     3.1665   203.8400     0.4502     0.7340
  639   12.760   3153.06     0.4820     0.0145     0.4492     0.1276     0.6728     3.0306   204.1600     0.4686     0.6972
  640   12.780   3154.08     0.4866     0.0148     0.4302     0.1278     0.6698     3.0096   204.4800     0.4654     0.6630
  641   12.800   3155.05     0.4846     0.0152     0.4457     0.1280     0.6711     3.1193   204.8000     0.4663     0.6776
  642   12.820   3156.02     0.4923     0.0154     0.4473     0.1282     0.6808     3.1503   205.1200     0.4757     0.6739
  643   12.840   3156.99     0.4914     0.0160     0.4544     0.1284     0.6814     3.2454   205.4400     0.4760     0.6809
  644   12.860   3157.96     0.4931     0.0159     0.4578     0.1286     0.6855     3.2456   205.7600     0.4797     0.6869
  645   12.880   3158.94     0.4989     0.0157     0.4521     0.1288     0.6898     3.1478   206.0800     0.4838     0.6735
  646   12.900   3159.90     0.5094     0.0157     0.4551     0.1290     0.7003     3.1210   206.4000     0.4939     0.6590
  647   12.920   3160.88     0.5497     0.0158     0.4252     0.1292     0.7388     2.9407   206.7200     0.5321     0.6035
  648   12.940   3161.84     0.5206     0.0157     0.4312     0.1294     0.6939     2.9060   207.0400     0.4869     0.5826
  649   12.960   3162.86     0.5004     0.0161     0.4555     0.1296     0.6897     3.2287   207.3600     0.4823     0.6655
  650   12.980   3163.78     0.5053     0.0164     0.4622     0.1298     0.6987     3.2675   207.6800     0.4910     0.6735
  651   13.000   3164.77     0.5097     0.0160     0.4667     0.1300     0.7053     3.1317   208.0000     0.4973     0.6750
  652   13.020   3165.72     0.5067     0.0156     0.4664     0.1302     0.7032     3.0849   208.3200     0.4948     0.6821
  653   13.040   3166.64     0.5131     0.0155     0.4642     0.1304     0.7082     3.0183   208.6400     0.4996     0.6689
  654   13.060   3167.66     0.5121     0.0154     0.4649     0.1306     0.7076     3.0071   208.9600     0.4987     0.6715
  655   13.080   3168.68     0.5147     0.0148     0.4525     0.1308     0.7070     2.8818   209.2800     0.4977     0.6569
  656   13.100   3169.65     0.5184     0.0151     0.4468     0.1310     0.7065     2.9194   209.6000     0.4969     0.6377
  657   13.120   3170.65     0.5303     0.0157     0.4087     0.1312     0.7142     2.9497   209.9200     0.5043     0.6077
  658   13.140   3171.63     0.5236     0.0158     0.4494     0.1314     0.7093     3.0221   210.2400     0.4991     0.6227
  659   13.160   3172.60     0.5347     0.0161     0.4499     0.1316     0.7238     3.0008   210.5600     0.5133     0.6209
  660   13.180   3173.57     0.5360     0.0163     0.4587     0.1318     0.7279     3.0545   210.8800     0.5170     0.6288
  661   13.200   3176.11     0.4435     0.0163     0.4381     0.1320     0.6329     3.8893   211.2000     0.4217     0.7667
  662   13.220   3177.17     0.5477     0.0156     0.4495     0.1322     0.7359     2.8496   211.5200     0.5243     0.6021
  663   13.240   3178.17     0.5537     0.0152     0.4483     0.1324     0.7422     2.7578   211.8400     0.5303     0.5967
  664   13.260   3179.14     0.5577     0.0147     0.4575     0.1326     0.7482     2.6364   212.1600     0.5361     0.5990
  665   13.280   3180.03     0.5524     0.0134     0.4534     0.1328     0.7400     2.4153   212.4800     0.5275     0.5950
  666   13.300   3181.00     0.5344     0.0119     0.4681     0.1330     0.7299     2.2094   212.8000     0.5171     0.6428
  667   13.320   3182.02     0.5349     0.0132     0.4712     0.1332     0.7335     2.4688   213.1200     0.5204     0.6527
  668   13.340   3182.99     0.5346     0.0167     0.4676     0.1334     0.7285     3.0488   213.4400     0.5151     0.6374
  669   13.360   3183.96     0.6120     0.0187     0.4694     0.1336     0.8106     2.9660   213.7600     0.5968     0.5689
  670   13.380   3184.93     0.7255     0.0208     0.4092     0.1338     0.9115     2.8831   214.0800     0.6974     0.4434
  671   13.400   3185.86     0.7776     0.0211     0.3169     0.1340     0.9198     2.7131   214.4000     0.7054     0.2896
  672   13.420   3186.83     0.7180     0.0213     0.3437     0.1342     0.8593     2.9697   214.7200     0.6446     0.3151
  673   13.440   3187.81     0.6021     0.0222     0.3587     0.1344     0.7472     3.6940   215.0400     0.5321     0.3983
  674   13.460   3196.40     0.5654     0.0207     0.3857     0.1346     0.7235     3.5883   215.3600     0.5081     0.4765
  675   13.480   3207.03     0.5498     0.0159     0.4127     0.1348     0.7192     2.7532   215.6800     0.5035     0.5338
  676   13.500   3213.00     0.5372     0.0143     0.4385     0.1350     0.7211     2.6586   216.0000     0.5051     0.5996
  677   13.520   3213.97     0.5289     0.0143     0.4575     0.1352     0.7170     2.6767   216.3200     0.5007     0.6243
  678   13.540   3214.94     0.5166     0.0144     0.4759     0.1354     0.7144     2.7751   216.6400     0.4977     0.6738
  679   13.560   3215.90     0.5253     0.0140     0.4791     0.1356     0.7258     2.6806   216.9600     0.5088     0.6715
  680   13.580   3216.89     0.5262     0.0138     0.4848     0.1358     0.7296     2.6224   217.2800     0.5123     0.6799
  681   13.600   3217.86     0.5220     0.0137     0.4875     0.1360     0.7269     2.6259   217.6000     0.5093     0.6907
  682   13.620   3218.80     0.5213     0.0129     0.4841     0.1362     0.7249     2.4586   217.9200     0.5070     0.6877
  683   13.640   3219.76     0.5178     0.0114     0.4816     0.1364     0.7203     2.1951   218.2400     0.5021     0.6887
  684   13.660   3220.75     0.5096     0.0118     0.4724     0.1366     0.7095     2.3157   218.5600     0.4909     0.6913
  685   13.680   3221.75     0.5094     0.0127     0.4724     0.1368     0.7076     2.5209   218.8800     0.4887     0.6855
  686   13.700   3222.72     0.5367     0.0123     0.4738     0.1370     0.7360     2.3463   219.2000     0.5168     0.6536
  687   13.720   3223.69     0.5959     0.0121     0.4454     0.1372     0.7872     2.1174   219.5200     0.5677     0.5616
  688   13.740   3224.67     0.6557     0.0117     0.3683     0.1374     0.8147     1.8190   219.8400     0.5948     0.4052
  689   13.760   3225.65     0.6207     0.0116     0.3699     0.1376     0.7752     1.8054   220.1600     0.5550     0.4154
  690   13.780   3226.61     0.5484     0.0115     0.4050     0.1378     0.7141     2.0100   220.4800     0.4936     0.5215
  691   13.800   3227.58     0.4889     0.0115     0.4530     0.1380     0.6745     2.3200   220.8000     0.4537     0.6697
  692   13.820   3228.55     0.4781     0.0115     0.4614     0.1382     0.6708     2.3899   221.1200     0.4497     0.7128
  693   13.840   3229.44     0.4844     0.0119     0.4416     0.1384     0.6776     2.4703   221.4400     0.4562     0.7053
  694   13.860   3230.45     0.4911     0.0123     0.4504     0.1386     0.6784     2.5139   221.7600     0.4566     0.6728
  695   13.880   3231.42     0.5040     0.0125     0.4676     0.1388     0.6989     2.4970   222.0800     0.4768     0.6819
  696   13.900   3232.44     0.5218     0.0128     0.4680     0.1390     0.7191     2.4640   222.4000     0.4967     0.6660
  697   13.920   3233.41     0.5188     0.0130     0.4638     0.1392     0.7136     2.5049   222.7200     0.4909     0.6612
  698   13.940   3234.39     0.5208     0.0125     0.4660     0.1394     0.7154     2.4161   223.0400     0.4923     0.6580
  699   13.960   3235.35     0.5349     0.0127     0.4698     0.1396     0.7325     2.3860   223.3600     0.5091     0.6497
  700   13.980   3236.32     0.5436     0.0127     0.4409     0.1398     0.7338     2.3376   223.6800     0.5102     0.6135
  701   14.000   3237.34     0.5314     0.0128     0.4564     0.1400     0.7193     2.3764   224.0000     0.4953     0.6204
  702   14.020   3238.29     0.5206     0.0132     0.4823     0.1402     0.7195     2.5208   224.3200     0.4952     0.6733
  703   14.040   3239.28     0.5389     0.0123     0.4783     0.1404     0.7411     2.3059   224.6400     0.5165     0.6604
  704   14.060   3240.25     0.5386     0.0116     0.4670     0.1406     0.7371     2.1610   224.9600     0.5121     0.6481
  705   14.080   3241.24     0.5238     0.0102     0.4735     0.1408     0.7207     1.9217   225.2800     0.4954     0.6622
  706   14.100   3242.21     0.5218     0.0087     0.4759     0.1410     0.7203     1.6800   225.6000     0.4947     0.6706
  707   14.120   3243.10     0.5756     0.0093     0.4807     0.1412     0.7771     1.6222   225.9200     0.5512     0.6143
  708   14.140   3244.07     0.5854     0.0136     0.4550     0.1414     0.7808     2.3255   226.2400     0.5545     0.5839
  709   14.160   3245.82     0.6408     0.0162     0.4072     0.1416     0.8279     2.5511   226.5600     0.6013     0.5077
  710   14.180   3265.17     0.7666     0.0174     0.2967     0.1418     0.9073     2.7356   226.8800     0.6804     0.3154
  711   14.200   3284.53     0.8925     0.0178     0.1861     0.1420     0.9866     2.7937   227.2000     0.7594     0.1230
  712   14.220   3292.15     1.0622     0.0176     0.1732     0.1422     1.1256     1.6563   227.5200     0.8981     0.0105
  713   14.240   3293.17     0.8599     0.0188     0.2246     0.1424     0.9479     2.0538   227.8400     0.7201     0.0943
  714   14.260   3294.13     0.7331     0.0200     0.2687     0.1426     0.8377     2.6506   228.1600     0.6095     0.1749
  715   14.280   3295.07     0.6769     0.0162     0.3557     0.1428     0.8150     2.3646   228.4800     0.5865     0.3171
  716   14.300   3296.08     0.6745     0.0114     0.3891     0.1430     0.8356     1.6894   228.8000     0.6068     0.3967
  717   14.320   3297.05     0.6928     0.0121     0.4107     0.1432     0.8615     1.6078   229.1200     0.6323     0.4085
  718   14.340   3297.97     0.8148     0.0165     0.4364     0.1434     0.9944     1.8801   229.4400     0.7650     0.3719
  719   14.360   3298.99     1.1914     0.0203     0.4583     0.1436     1.3829     1.9263   229.7600     1.1531     0.2711
  720   14.380   3300.02     1.6892     0.0263     0.3290     0.1438     1.8693     1.7576   230.0800     1.6392     0.1748
  721   14.400   3302.13     2.3758     0.0421     0.1886     0.1440     2.4819     1.6673   230.4000     2.2515     0.0505
  722   14.420   3303.65     2.8674     0.0496     0.1131     0.1442     2.9144     1.7346   230.7200     2.6837    -0.0122
  723   14.440   3310.52     2.2431     0.0532     0.1170     0.1444     2.2917     1.8162   231.0400     2.0606    -0.0150
  724   14.460   3317.39     1.6187     0.0528     0.1450     0.1446     1.6689     2.3489   231.3600     1.4376    -0.0178
  725   14.480   3319.36     1.2270     0.0510     0.1943     0.1448     1.3075     3.9399   231.6800     1.0759     0.0440
  726   14.500   3320.32     1.0445     0.0461     0.1815     0.1450     1.1243     4.1802   232.0000     0.8923     0.0504
  727   14.520   3321.29     0.8955     0.0365     0.1912     0.1452     0.9716     4.0304   232.3200     0.7393     0.0488
  728   14.540   3322.31     0.8132     0.0285     0.2318     0.1454     0.9005     3.4290   232.6400     0.6679     0.0939
  729   14.560   3323.28     0.7641     0.0198     0.3360     0.1456     0.8911     2.5477   232.9600     0.6581     0.2379
  730   14.580   3324.23     0.7524     0.0120     0.3988     0.1458     0.9110     1.5941   233.2800     0.6777     0.3417
  731   14.600   3325.20     0.7209     0.0097     0.4384     0.1460     0.9003     1.3205   233.6000     0.6667     0.4221
  732   14.620   3326.19     0.6835     0.0135     0.4718     0.1462     0.8769     1.9562   233.9200     0.6429     0.4887
  733   14.640   3327.15     0.7073     0.0202     0.5170     0.1464     0.9189     2.9814   234.2400     0.6847     0.5238
  734   14.660   3328.13     0.9403     0.0166     0.5099     0.1466     1.1646     1.8830   234.5600     0.9300     0.4187
  735   14.680   3329.13     1.1737     0.0126     0.3454     0.1468     1.3490     1.1231   234.8800     1.1141     0.2430
  736   14.700   3330.12     1.2104     0.0100     0.3308     0.1470     1.3432     0.8172   235.2000     1.1080     0.1530
  737   14.720   3331.08     1.0791     0.0150     0.3938     0.1472     1.2380     0.9495   235.5200     1.0025     0.2309
  738   14.740   3332.06     1.0464     0.0208     0.4679     0.1474     1.2243     1.1046   235.8400     0.9885     0.2805
  739   14.760   3333.03     2.1415     0.0267     0.4425     0.1476     2.3524     1.2138   236.1600     2.1162     0.1690
  740   14.780   3334.04     3.5577     0.0336     0.1503     0.1478     3.6497     0.9457   236.4800     3.4133     0.0209
  741   14.800   3334.92     3.2200     0.0367     0.0678     0.1480     3.2488     1.0327   236.8000     3.0120    -0.0268
  742   14.820   3336.43     2.4218     0.0395     0.0980     0.1482     2.4585     1.4745   237.1200     2.2214    -0.0235
  743   14.840   3338.40     1.8779     0.0388     0.1287     0.1484     1.9275     1.4470   237.4400     1.6901    -0.0090
  744   14.860   3340.37     1.3339     0.0373     0.1596     0.1486     1.3964     1.3924   237.7600     1.1587     0.0055
  745   14.880   3341.67     0.9965     0.0357     0.1942     0.1488     1.0737     3.3615   238.0800     0.8356     0.0428
  746   14.900   3342.65     0.7862     0.0276     0.2287     0.1490     0.8801     3.3968   238.4000     0.6417     0.1168
  747   14.920   3343.66     0.7508     0.0173     0.3462     0.1492     0.8798     2.2991   238.7200     0.6411     0.2456
  748   14.940   3344.64     0.7557     0.0121     0.4196     0.1494     0.9204     1.5966   239.0400     0.6813     0.3561
  749   14.960   3345.57     0.7089     0.0111     0.4670     0.1496     0.8969     1.5475   239.3600     0.6575     0.4533
  750   14.980   3346.53     0.6930     0.0126     0.5004     0.1498     0.8993     1.8192   239.6800     0.6597     0.5177
  751   15.000   3347.51     0.7199     0.0140     0.5133     0.1500     0.9340     1.9518   240.0000     0.6940     0.5184
  752   15.020   3348.57     0.7698     0.0127     0.5025     0.1502     0.9848     1.6888   240.3200     0.7444     0.4859
  753   15.040   3349.54     0.7995     0.0107     0.4703     0.1504     0.9973     1.3323   240.6400     0.7567     0.4237
  754   15.060   3350.51     0.7508     0.0107     0.4774     0.1506     0.9508     1.4003   240.9600     0.7098     0.4586
  755   15.080   3351.44     0.7131     0.0116     0.4910     0.1508     0.9172     1.6062   241.2800     0.6760     0.4959
  756   15.100   3352.40     0.6673     0.0131     0.5058     0.1510     0.8767     1.9514   241.6000     0.6351     0.5474
  757   15.120   3353.38     0.7307     0.0134     0.4940     0.1512     0.9430     1.8975   241.9200     0.7010     0.5058
  758   15.140   3354.39     0.8453     0.0127     0.4547     0.1514     1.0395     1.5447   242.2400     0.7973     0.3904
  759   15.160   3355.37     0.8428     0.0131     0.4607     0.1516     1.0341     1.5430   242.5600     0.7915     0.3840
  760   15.180   3356.35     0.7586     0.0137     0.4795     0.1518     0.9571     1.7505   242.8800     0.7143     0.4499
  761   15.200   3357.30     0.6702     0.0141     0.5006     0.1520     0.8771     2.0546   243.2000     0.6339     0.5381
  762   15.220   3358.29     0.6208     0.0144     0.5173     0.1522     0.8369     2.3057   243.5200     0.5934     0.6106
  763   15.240   3359.29     0.6266     0.0136     0.5149     0.1524     0.8430     2.1784   243.8400     0.5991     0.6057
  764   15.260   3360.26     0.6324     0.0130     0.5211     0.1526     0.8509     2.0687   244.1600     0.6068     0.6061
  765   15.280   3361.23     0.6481     0.0128     0.5172     0.1528     0.8660     1.9712   244.4800     0.6216     0.5891
  766   15.300   3362.20     0.6425     0.0126     0.5204     0.1530     0.8603     1.9706   244.8000     0.6155     0.5939
  767   15.320   3363.19     0.6480     0.0140     0.5137     0.1532     0.8654     2.1568   245.1200     0.6203     0.5874
  768   15.340   3364.13     0.6503     0.0154     0.5219     0.1534     0.8680     2.3429   245.4400     0.6226     0.5864
  769   15.360   3365.10     0.6821     0.0169     0.5116     0.1536     0.9006     2.4974   245.7600     0.6548     0.5600
  770   15.380   3366.12     0.7430     0.0166     0.5025     0.1538     0.9568     2.2251   246.0800     0.7107     0.4999
  771   15.400   3367.05     0.7752     0.0164     0.4752     0.1540     0.9803     2.1674   246.4000     0.7339     0.4554
  772   15.420   3368.80     0.7228     0.0170     0.4701     0.1542     0.9264     2.3645   246.7200     0.6796     0.4866
  773   15.440   3376.24     0.7499     0.0166     0.4277     0.1544     0.9357     2.3129   247.0400     0.6887     0.4189
  774   15.460   3381.80     0.7577     0.0159     0.4472     0.1546     0.9382     2.0805   247.3600     0.6908     0.3985
  775   15.480   3382.77     0.7451     0.0151     0.4836     0.1548     0.9435     2.0299   247.6800     0.6958     0.4564
  776   15.500   3383.76     0.7689     0.0146     0.5020     0.1550     0.9773     1.9137   248.0000     0.7293     0.4677
  777   15.520   3384.76     0.7602     0.0144     0.5196     0.1552     0.9764     1.8724   248.3200     0.7281     0.4942
  778   15.540   3385.75     0.7421     0.0145     0.5140     0.1554     0.9590     1.9602   248.6400     0.7104     0.5084
  779   15.560   3386.72     0.7260     0.0142     0.5317     0.1556     0.9449     1.9474   248.9600     0.6960     0.5255
  780   15.580   3387.66     0.7213     0.0137     0.5299     0.1558     0.9458     1.9004   249.2800     0.6965     0.5436
  781   15.600   3388.63     0.7302     0.0139     0.5048     0.1560     0.9471     1.8962   249.6000     0.6975     0.5167
  782   15.620   3389.60     0.6828     0.0138     0.4978     0.1562     0.8883     1.9834   249.9200     0.6384     0.5219
  783   15.640   3390.61     0.6747     0.0138     0.5207     0.1564     0.8921     2.0498   250.2400     0.6419     0.5629
  784   15.660   3391.59     0.6832     0.0137     0.5237     0.1566     0.9047     2.0094   250.5600     0.6541     0.5667
  785   15.680   3392.60     0.6968     0.0131     0.4971     0.1568     0.9107     1.8838   250.8800     0.6598     0.5342
  786   15.700   3393.57     0.6828     0.0126     0.4987     0.1570     0.8888     1.8323   251.2000     0.6376     0.5229
  787   15.720   3394.50     0.6903     0.0125     0.5073     0.1572     0.9005     1.8202   251.5200     0.6489     0.5290
  788   15.740   3395.46     0.7039     0.0122     0.5133     0.1574     0.9183     1.7405   251.8400     0.6665     0.5300
  789   15.760   3396.43     0.7219     0.0111     0.5127     0.1576     0.9382     1.5505   252.1600     0.6860     0.5207
  790   15.780   3397.40     0.7352     0.0124     0.5090     0.1578     0.9488     1.6971   252.4800     0.6963     0.5039
  791   15.800   3398.42     0.7517     0.0128     0.4945     0.1580     0.9600     1.7036   252.8000     0.7072     0.4779
  792   15.820   3399.40     0.8029     0.0127     0.4828     0.1582     1.0086     1.6177   253.1200     0.7555     0.4391
  793   15.840   3400.36     0.8258     0.0124     0.4732     0.1584     1.0263     1.5075   253.4400     0.7729     0.4127
  794   15.860   3401.33     0.8592     0.0120     0.3813     0.1586     1.0338     1.4026   253.7600     0.7800     0.3290
  795   15.880   3402.32     0.8196     0.0124     0.3545     0.1588     0.9694     1.4776   254.0800     0.7153     0.2764
  796   15.900   3403.29     0.7319     0.0126     0.4059     0.1590     0.8931     1.6886   254.4000     0.6387     0.3525
  797   15.920   3404.26     0.6995     0.0126     0.4494     0.1592     0.8831     1.7909   254.7200     0.6284     0.4424
  798   15.940   3405.23     0.6783     0.0128     0.4732     0.1594     0.8742     1.8635   255.0400     0.6191     0.4959
  799   15.960   3406.17     0.6511     0.0129     0.4927     0.1596     0.8557     1.9681   255.3600     0.6004     0.5458
  800   15.980   3407.19     0.6287     0.0131     0.5075     0.1598     0.8392     2.0726   255.6800     0.5835     0.5850
  801   16.000   3408.16     0.6055     0.0132     0.5257     0.1600     0.8243     2.1788   256.0000     0.5683     0.6352
  802   16.020   3409.13     0.5980     0.0138     0.5368     0.1602     0.8223     2.3026   256.3200     0.5659     0.6606
  803   16.040   3410.15     0.6037     0.0139     0.5480     0.1604     0.8321     2.3020   256.6400     0.5754     0.6662
  804   16.060   3412.36     0.6098     0.0145     0.5521     0.1606     0.8411     2.3978   256.9600     0.5841     0.6679
  805   16.080   3415.20     0.6203     0.0150     0.5562     0.1608     0.8533     2.4935   257.2800     0.5960     0.6612
  806   16.100   3418.04     0.6308     0.0152     0.5603     0.1610     0.8655     2.5209   257.6000     0.6079     0.6546
  807   16.120   3419.70     0.6394     0.0153     0.5652     0.1612     0.8761     2.3965   257.9200     0.6182     0.6510
  808   16.140   3420.86     0.6495     0.0146     0.5670     0.1614     0.8882     2.2775   258.2400     0.6299     0.6458
  809   16.160   3439.72     0.6640     0.0124     0.5366     0.1616     0.8938     2.1690   258.5600     0.6353     0.6061
  810   16.180   3464.08     0.6673     0.0097     0.5063     0.1618     0.8844     1.7035   258.8800     0.6255     0.5669
  811   16.200   3477.00     0.6729     0.0106     0.5336     0.1620     0.8930     1.5789   259.2000     0.6338     0.5710
  812   16.220   3477.97     0.7213     0.0116     0.5621     0.1622     0.9530     1.6503   259.5200     0.6935     0.5616
  813   16.240   3479.03     0.9988     0.0114     0.5359     0.1624     1.2323     1.3124   259.8400     0.9725     0.4065
  814   16.260   3480.01     1.5991     0.0118     0.4117     0.1626     1.8017     0.8587   260.1600     1.5416     0.2077
  815   16.280   3480.98     2.3230     0.0147     0.2638     0.1628     2.4412     0.7174   260.4800     2.1807     0.0548
  816   16.300   3481.95     2.5424     0.0225     0.2428     0.1630     2.6401     1.0197   260.8000     2.3793     0.0292
  817   16.320   3482.88     2.3478     0.0304     0.2920     0.1632     2.4652     1.3220   261.1200     2.2040     0.0529
  818   16.340   3483.80     2.0946     0.0324     0.3237     0.1634     2.2246     1.5408   261.4400     1.9632     0.0746
  819   16.360   3484.85     2.0426     0.0304     0.3635     0.1636     2.1918     1.4963   261.7600     1.9301     0.0993
  820   16.380   3485.85     2.1537     0.0278     0.3312     0.1638     2.3028     1.3078   262.0800     2.0407     0.0938
  821   16.400   3490.88     2.5053     0.0237     0.2426     0.1640     2.6200     1.0893   262.4000     2.3576     0.0547
  822   16.420   3496.47     2.8834     0.0219     0.1540     0.1642     2.9609     1.0081   262.7200     2.6982     0.0137
  823   16.440   3500.38     3.0712     0.0215     0.1697     0.1644     3.1359     0.6906   263.0400     2.8729    -0.0036
  824   16.460   3501.34     2.8791     0.0188     0.1954     0.1646     2.9577     0.6398   263.3600     2.6944     0.0084
  825   16.480   3502.31     2.6642     0.0169     0.2214     0.1648     2.7536     0.6229   263.6800     2.4899     0.0194
  826   16.500   3503.26     2.4591     0.0210     0.2407     0.1650     2.5572     0.8392   264.0000     2.2932     0.0300
  827   16.520   3504.27     2.3229     0.0247     0.2588     0.1652     2.4311     1.0469   264.3200     2.1667     0.0426
  828   16.540   3505.24     2.1471     0.0253     0.2304     0.1654     2.2482     1.1500   264.6400     1.9836     0.0379
  829   16.560   3506.22     1.8642     0.0258     0.2361     0.1656     1.9603     1.3322   264.9600     1.6954     0.0375
  830   16.580   3507.19     1.5432     0.0252     0.2768     0.1658     1.6559     1.5577   265.2800     1.3906     0.0743
  831   16.600   3508.16     1.3184     0.0239     0.2844     0.1660     1.4362     1.7515   265.6000     1.1706     0.0979
  832   16.620   3509.13     1.1869     0.0231     0.3160     0.1662     1.3166     1.9151   265.9200     1.0507     0.1359
  833   16.640   3510.11     1.1274     0.0204     0.3240     0.1664     1.2631     1.7803   266.2400     0.9968     0.1572
  834   16.660   3511.08     1.0731     0.0171     0.3412     0.1666     1.2089     1.5801   266.5600     0.9423     0.1663
  835   16.680   3512.09     1.0910     0.0161     0.3500     0.1668     1.2391     1.4948   266.8800     0.9723     0.1914
  836   16.700   3513.06     1.2115     0.0152     0.3523     0.1670     1.3596     1.2945   267.2000     1.0924     0.1702
  837   16.720   3513.99     1.3550     0.0156     0.3179     0.1672     1.4989     1.1850   267.5200     1.2314     0.1425
  838   16.740   3514.96     1.4419     0.0166     0.2840     0.1674     1.5626     1.1598   267.8400     1.2948     0.0927
  839   16.760   3515.89     1.3741     0.0174     0.3010     0.1676     1.4958     1.2489   268.1600     1.2276     0.0995
  840   16.780   3516.89     1.2168     0.0189     0.3363     0.1678     1.3535     1.5209   268.4800     1.0850     0.1455
  841   16.800   3517.91     1.1010     0.0212     0.3593     0.1680     1.2483     1.8789   268.8000     0.9795     0.1866
  842   16.820   3518.88     1.0779     0.0200     0.3712     0.1682     1.2333     1.8597   269.1200     0.9642     0.2093
  843   16.840   3519.85     1.1435     0.0205     0.3562     0.1684     1.2959     1.8385   269.4400     1.0265     0.1898
  844   16.860   3520.82     1.2552     0.0171     0.3299     0.1686     1.3980     1.3975   269.7600     1.1282     0.1523
  845   16.880   3521.78     1.4090     0.0149     0.3046     0.1688     1.5409     1.0980   270.0800     1.2708     0.1146
  846   16.900   3522.78     1.6175     0.0171     0.3033     0.1690     1.7435     1.0922   270.4000     1.4731     0.0890
  847   16.920   3523.75     1.7498     0.0182     0.2787     0.1692     1.8712     1.0600   270.7200     1.6005     0.0749
  848   16.940   3524.72     1.7768     0.0181     0.2615     0.1694     1.8849     1.0130   271.0400     1.6139     0.0546
  849   16.960   3525.71     1.5882     0.0180     0.2883     0.1696     1.7033     1.0813   271.3600     1.4320     0.0735
  850   16.980   3526.66     1.3389     0.0183     0.3338     0.1698     1.4713     1.3209   271.6800     1.1996     0.1216
  851   17.000   3527.63     1.1826     0.0210     0.3604     0.1700     1.3294     1.7233   272.0000     1.0574     0.1701
  852   17.020   3528.56     1.0622     0.0186     0.3753     0.1702     1.2191     1.7168   272.3200     0.9468     0.2148
  853   17.040   3529.53     1.0390     0.0178     0.4080     0.1704     1.2062     1.7209   272.6400     0.9336     0.2438
  854   17.060   3530.55     1.1069     0.0188     0.3878     0.1706     1.2734     1.7284   272.9600     1.0004     0.2258
  855   17.080   3531.56     1.1429     0.0167     0.3376     0.1708     1.2931     1.4773   273.2800     1.0198     0.1833
  856   17.100   3532.49     1.1694     0.0165     0.3388     0.1710     1.3103     1.4108   273.6000     1.0367     0.1589
  857   17.120   3533.50     1.1468     0.0159     0.3658     0.1712     1.3015     1.3731   273.9200     1.0276     0.1919
  858   17.140   3534.43     1.0499     0.0151     0.3562     0.1714     1.2030     1.3891   274.2400     0.9288     0.2082
  859   17.160   3535.43     0.8758     0.0163     0.3914     0.1716     1.0269     1.7691   274.5600     0.7523     0.2505
  860   17.180   3536.46     0.8524     0.0184     0.4534     0.1718     1.0412     2.1902   274.8800     0.7663     0.3622
  861   17.200   3537.43     1.0330     0.0150     0.4421     0.1720     1.2233     1.5285   275.2000     0.9481     0.2968
  862   17.220   3538.36     1.2016     0.0120     0.3840     0.1722     1.3736     1.0224   275.5200     1.0980     0.2166
  863   17.240   3539.32     1.2278     0.0109     0.3472     0.1724     1.3738     0.8862   275.8400     1.0979     0.1594
  864   17.260   3540.28     1.0425     0.0103     0.3654     0.1726     1.1928     0.9740   276.1600     0.9167     0.2033
  865   17.280   3541.34     0.8837     0.0130     0.4337     0.1728     1.0534     1.2955   276.4800     0.7769     0.2978
  866   17.300   3542.32     0.9800     0.0179     0.4829     0.1730     1.1810     1.7592   276.8000     0.9042     0.3387
  867   17.320   3543.31     1.4639     0.0203     0.4206     0.1732     1.6527     1.4936   277.1200     1.3756     0.2065
  868   17.340   3544.31     2.8682     0.0284     0.3084     0.1734     3.0152     1.0859   277.4400     2.7378     0.0688
  869   17.360   3545.31     5.3165     0.0394     0.1027     0.1736     5.3949     0.8064   277.7600     5.1172     0.0043
  870   17.380   3548.63     7.8409     0.0509     0.0616     0.1738     7.8623     0.6856   278.0800     7.5842    -0.0167
  871   17.400   3556.40     9.0876     0.0588     0.0924     0.1740     9.1219     0.7930   278.4000     8.8435    -0.0112
  872   17.420   3562.28    10.1310     0.0647     0.0877     0.1742    10.1715     0.6446   278.7200     9.8928    -0.0078
  873   17.440   3563.30    10.3701     0.0704     0.0780     0.1744    10.4022     0.6787   279.0400    10.1232    -0.0097
  874   17.460   3564.29    10.1624     0.0715     0.0973     0.1746    10.2002     0.6997   279.3600     9.9208    -0.0085
  875   17.480   3565.26     9.7840     0.0696     0.1093     0.1748     9.8296     0.7057   279.6800     9.5499    -0.0070
  876   17.500   3566.21     9.3916     0.0674     0.1354     0.1750     9.4429     0.7123   280.0000     9.1629    -0.0057
  877   17.520   3567.18     8.9580     0.0653     0.1567     0.1752     9.0216     0.7242   280.3200     8.7413    -0.0027
  878   17.540   3568.25     8.4542     0.0648     0.1533     0.1754     8.5192     0.7578   280.6400     8.2385    -0.0025
  879   17.560   3569.22     8.0354     0.0748     0.1609     0.1756     8.1005     0.9230   280.9600     7.8195    -0.0026
  880   17.580   3570.18     7.6417     0.0848     0.1879     0.1758     7.7175     1.1004   281.2800     7.4362     0.0006
  881   17.600   3571.15     7.3158     0.0938     0.1798     0.1760     7.3930     1.2742   281.6000     7.1114     0.0011
  882   17.620   3572.17     7.0424     0.1064     0.1850     0.1762     7.1189     1.5002   281.9200     6.8370     0.0009
  883   17.640   3573.17     6.6967     0.1200     0.1864     0.1764     6.7751     1.7588   282.2400     6.4928     0.0016
  884   17.660   3574.16     5.8573     0.1300     0.1882     0.1766     5.9358     2.1020   282.5600     5.6533     0.0019
  885   17.680   3575.13     4.6888     0.1175     0.1849     0.1768     4.7653     2.3246   282.8800     4.4824     0.0012
  886   17.700   3576.10     3.6002     0.1021     0.1756     0.1770     3.6765     2.6442   283.2000     3.3933     0.0014
  887   17.720   3577.11     2.8039     0.0856     0.1930     0.1772     2.8794     2.8746   283.5200     2.5959     0.0012
  888   17.740   3578.03     2.2044     0.0722     0.2235     0.1774     2.3054     3.0999   283.8400     2.0216     0.0312
  889   17.760   3578.96     1.7550     0.0587     0.2694     0.1776     1.8442     3.2397   284.1600     1.5601     0.0224
  890   17.780   3579.93     1.6537     0.0424     0.5418     0.1778     1.8488     2.5573   284.4800     1.5644     0.1828
  891   17.800   3580.94     1.6381     0.0276     0.6331     0.1780     1.8995     1.6821   284.8000     1.6147     0.2751
  892   17.820   3581.96     1.5939     0.0279     0.6916     0.1782     1.8771     1.7342   285.1200     1.5919     0.3116
  893   17.840   3582.93     1.5315     0.0304     0.7366     0.1784     1.8391     1.9642   285.4400     1.5537     0.3566
  894   17.860   3583.95     1.4772     0.0331     0.7442     0.1786     1.7882     2.2111   285.7600     1.5025     0.3740
  895   17.880   3584.88     1.4609     0.0359     0.7979     0.1788     1.7909     2.4580   286.0800     1.5049     0.4034
  896   17.900   3585.88     1.4532     0.0388     0.8009     0.1790     1.7876     2.7089   286.4000     1.5012     0.4112
  897   17.920   3586.85     1.4041     0.0420     0.8224     0.1792     1.7481     2.9967   286.7200     1.4614     0.4379
  898   17.940   3588.18     1.3678     0.0446     0.8258     0.1794     1.7133     3.2217   287.0400     1.4263     0.4517
  899   17.960   3590.32     1.3154     0.0433     0.8345     0.1796     1.6646     3.1272   287.3600     1.3772     0.4749
  900   17.980   3592.47     1.2630     0.0399     0.8432     0.1798     1.6159     2.8856   287.6800     1.3282     0.4982
  901   18.000   3600.94     1.2309     0.0374     0.8244     0.1800     1.5764     3.0466   288.0000     1.2884     0.4987
  902   18.020   3622.56     1.2454     0.0336     0.8297     0.1802     1.5931     2.7401   288.3200     1.3048     0.4964
  903   18.040   3644.17     1.2598     0.0333     0.8519     0.1804     1.6098     2.6753   288.6400     1.3212     0.4941
  904   18.060   3646.93     1.2598     0.0334     0.8837     0.1806     1.6268     2.6505   288.9600     1.3379     0.5181
  905   18.080   3647.91     1.3458     0.0336     0.8969     0.1808     1.7243     2.5249   289.2800     1.4350     0.5020
  906   18.100   3648.92     1.4308     0.0317     0.8712     0.1810     1.8024     2.2385   289.6000     1.5128     0.4652
  907   18.120   3649.89     1.5319     0.0290     0.8238     0.1812     1.8856     1.9241   289.9200     1.5957     0.4143
  908   18.140   3650.86     1.5078     0.0282     0.8361     0.1814     1.8525     1.8442   290.2400     1.5622     0.4093
  909   18.160   3651.87     1.4138     0.0257     0.8667     0.1816     1.7740     1.7925   290.5600     1.4835     0.4558
  910   18.180   3652.86     1.3732     0.0252     0.9042     0.1818     1.7477     1.8247   290.8800     1.4568     0.4872
  911   18.200   3653.83     1.3694     0.0286     0.8733     0.1820     1.7425     2.0900   291.2000     1.4513     0.4867
  912   18.220   3654.80     1.4482     0.0292     0.8504     0.1822     1.8098     2.0251   291.5200     1.5183     0.4470
  913   18.240   3655.75     1.3681     0.0269     0.7471     0.1824     1.7098     1.9301   291.8400     1.4179     0.4450
  914   18.260   3656.74     1.3100     0.0264     0.4916     0.1826     1.5316     2.1134   292.1600     1.2395     0.2777
  915   18.280   3657.71     1.1756     0.0293     0.5186     0.1828     1.3891     2.6187   292.4800     1.0966     0.2972
  916   18.300   3658.73     1.0181     0.0315     0.6463     0.1830     1.2692     3.0824   292.8000     0.9764     0.4255
  917   18.320   3659.70     0.9950     0.0286     0.7839     0.1832     1.3090     2.8820   293.1200     1.0159     0.5552
  918   18.340   3660.60     0.9700     0.0268     0.7056     0.1834     1.2928     2.5745   293.4400     0.9994     0.5878
  919   18.360   3662.16     1.2190     0.0323     0.5821     0.1836     1.4697     2.9025   293.7600     1.1759     0.3569
  920   18.380   3668.44     1.5623     0.0342     0.5393     0.1838     1.7950     2.8937   294.0800     1.5009     0.2713
  921   18.400   3674.72     1.9056     0.0347     0.5170     0.1840     2.1204     2.7717   294.4000     1.8260     0.1858
  922   18.420   3676.81     2.7083     0.0320     0.4965     0.1842     2.9304     1.3105   294.7200     2.6357     0.1330
  923   18.440   3677.78     3.8012     0.0321     0.3243     0.1844     3.9668     0.8964   295.0400     3.6718     0.0583
  924   18.460   3678.80     4.2355     0.0297     0.2154     0.1846     4.3375     0.6973   295.3600     4.0421     0.0143
  925   18.480   3679.72     3.7731     0.0278     0.1638     0.1848     3.8427     0.7035   295.6800     3.5471    -0.0054
  926   18.500   3680.68     2.9430     0.0279     0.1940     0.1850     3.0160     0.8991   296.0000     2.7200    -0.0036
  927   18.520   3681.67     2.1107     0.0279     0.2183     0.1852     2.1954     1.2626   296.3200     1.8991     0.0091
  928   18.540   3682.70     1.6564     0.0279     0.2871     0.1854     1.7635     1.6086   296.6400     1.4668     0.0484
  929   18.560   3683.67     1.4496     0.0259     0.4032     0.1856     1.6074     1.7481   296.9600     1.3104     0.1451
  930   18.580   3684.64     1.4338     0.0223     0.4615     0.1858     1.6196     1.5531   297.2800     1.3223     0.1941
  931   18.600   3685.66     1.3384     0.0209     0.4812     0.1860     1.5493     1.5256   297.6000     1.2517     0.2525
  932   18.620   3686.63     1.2847     0.0197     0.4377     0.1862     1.4771     1.5219   297.9200     1.1792     0.2305
  933   18.640   3687.60     1.1868     0.0186     0.3872     0.1864     1.3522     1.5361   298.2400     1.0540     0.1969
  934   18.660   3688.53     1.0656     0.0175     0.3700     0.1866     1.2216     1.6085   298.5600     0.9231     0.2003
  935   18.680   3689.55     0.9500     0.0162     0.3994     0.1868     1.1108     1.6693   298.8800     0.8119     0.2416
  936   18.700   3690.52     0.8701     0.0177     0.4522     0.1870     1.0523     1.9996   299.2000     0.7531     0.3276
  937   18.720   3691.49     0.8928     0.0211     0.4896     0.1872     1.0931     2.3990   299.5200     0.7936     0.3650
  938   18.740   3692.51     1.0250     0.0235     0.5177     0.1874     1.2398     2.4081   299.8400     0.9400     0.3449
  939   18.760   3693.48     1.4927     0.0226     0.4998     0.1876     1.7119     1.6514   300.1600     1.4117     0.2372
  940   18.780   3694.44     1.9434     0.0206     0.4073     0.1878     2.1314     1.1171   300.4800     1.8309     0.1424
  941   18.800   3695.42     2.2329     0.0216     0.3558     0.1880     2.3847     1.0010   300.8000     2.0839     0.0834
  942   18.820   3696.43     2.9008     0.0276     0.3325     0.1882     3.0546     1.0080   301.1200     2.7535     0.0647
  943   18.840   3697.40     3.1606     0.0341     0.2326     0.1884     3.2694     1.0841   301.4400     2.9680     0.0238
  944   18.860   3698.38     2.8510     0.0312     0.2133     0.1886     2.9362     1.0571   301.7600     2.6345     0.0053
  945   18.880   3699.35     2.4245     0.0325     0.2840     0.1888     2.5335     1.2894   302.0800     2.2315     0.0322
  946   18.900   3700.32     2.0807     0.0386     0.3209     0.1890     2.2107     1.7993   302.4000     1.9083     0.0633
  947   18.920   3701.30     1.9540     0.0438     0.3906     0.1892     2.1067     2.2367   302.7200     1.8040     0.0967
  948   18.940   3702.29     2.0051     0.0405     0.4544     0.1894     2.1898     2.0414   303.0400     1.8868     0.1327
  949   18.960   3703.28     2.2255     0.0377     0.4628     0.1896     2.4176     1.7382   303.3600     2.1142     0.1268
  950   18.980   3704.26     2.8420     0.0375     0.4971     0.1898     3.0491     1.4160   303.6800     2.7454     0.1111
  951   19.000   3705.23     4.0516     0.0375     0.4020     0.1900     4.2405     0.9759   304.0000     3.9365     0.0668
  952   19.020   3706.22     4.5757     0.0382     0.2084     0.1902     4.6812     0.8355   304.3200     4.3769     0.0139
  953   19.040   3707.24     4.1878     0.0340     0.1326     0.1904     4.2560     0.7753   304.6400     3.9514    -0.0074
  954   19.060   3708.21     3.4427     0.0347     0.1619     0.1906     3.4969     0.9602   304.9600     3.1920    -0.0189
  955   19.080   3709.21     2.6356     0.0376     0.2777     0.1908     2.7347     1.3185   305.2800     2.4294     0.0196
  956   19.100   3710.18     2.0051     0.0415     0.4745     0.1910     2.1766     1.9353   305.6000     1.8710     0.1175
  957   19.120   3711.11     1.6829     0.0445     0.7211     0.1912     1.9532     2.5478   305.9200     1.6472     0.2751
  958   19.140   3712.08     1.5512     0.0433     0.7755     0.1914     1.8755     2.7724   306.2400     1.5693     0.3701
  959   19.160   3713.10     1.5367     0.0418     0.8164     0.1916     1.8756     2.7154   306.5600     1.5690     0.3921
  960   19.180   3714.02     1.5371     0.0417     0.8479     0.1918     1.8876     2.7100   306.8800     1.5807     0.4067
  961   19.200   3715.03     1.5125     0.0425     0.8807     0.1920     1.8786     2.8089   307.2000     1.5714     0.4325
  962   19.220   3716.01     1.5233     0.0442     0.9090     0.1922     1.9003     2.9042   307.5200     1.5928     0.4428
  963   19.240   3716.98     1.5079     0.0425     0.9190     0.1924     1.8917     2.8165   307.8400     1.5838     0.4555
  964   19.260   3717.99     1.4728     0.0417     0.9204     0.1926     1.8600     2.8221   308.1600     1.5518     0.4699
  965   19.280   3718.97     1.4415     0.0415     0.9420     0.1928     1.8329     2.8756   308.4800     1.5244     0.4849
  966   19.300   3719.94     1.4193     0.0430     0.9568     0.1930     1.8169     3.0286   308.8000     1.5081     0.4997
  967   19.320   3720.95     1.3743     0.0414     1.0001     0.1932     1.7922     3.0124   309.1200     1.4830     0.5406
  968   19.340   3721.92     1.3613     0.0402     1.0131     0.1934     1.7849     2.9525   309.4400     1.4755     0.5525
  969   19.360   3727.77     1.3997     0.0381     0.9451     0.1936     1.8069     3.2166   309.7600     1.4971     0.5192
  970   19.380   3735.06     1.4646     0.0365     0.9279     0.1938     1.8452     2.6173   310.0800     1.5351     0.4641
  971   19.400   3736.07     1.4093     0.0370     0.9919     0.1940     1.8175     2.5964   310.4000     1.5071     0.5162
  972   19.420   3737.04     1.3564     0.0375     1.0272     0.1942     1.7852     2.7429   310.7200     1.4745     0.5606
  973   19.440   3738.05     1.3410     0.0353     1.0408     0.1944     1.7785     2.6316   311.0400     1.4674     0.5773
  974   19.460   3739.03     1.3402     0.0352     1.0347     0.1946     1.7758     2.6262   311.3600     1.4645     0.5755
  975   19.480   3740.00     1.3351     0.0342     1.0303     0.1948     1.7667     2.5572   311.6800     1.4550     0.5724
  976   19.500   3740.97     1.3264     0.0336     1.0386     0.1950     1.7608     2.5291   312.0000     1.4488     0.5794
  977   19.520   3741.93     1.2943     0.0329     1.0586     0.1952     1.7364     2.5256   312.3200     1.4240     0.6020
  978   19.540   3742.90     1.3092     0.0327     1.0486     0.1954     1.7502     2.5108   312.6400     1.4376     0.5944
  979   19.560   3743.92     1.3117     0.0324     1.0599     0.1956     1.7552     2.4726   312.9600     1.4423     0.5965
  980   19.580   3744.85     1.3152     0.0327     1.0529     0.1958     1.7599     2.4939   313.2800     1.4466     0.5965
  981   19.600   3745.87     1.3280     0.0337     1.0393     0.1960     1.7657     2.5435   313.6000     1.4521     0.5828
  982   19.620   3746.84     1.3377     0.0335     1.0279     0.1962     1.7714     2.5084   313.9200     1.4575     0.5740
  983   19.640   3747.84     1.3407     0.0335     1.0245     0.1964     1.7708     2.4958   314.2400     1.4566     0.5682
  984   19.660   3748.81     1.3264     0.0325     1.0205     0.1966     1.7550     2.4467   314.5600     1.4404     0.5719
  985   19.680   3749.78     1.3192     0.0327     1.0259     0.1968     1.7498     2.4741   314.8800     1.4349     0.5773
  986   19.700   3750.75     1.3081     0.0320     1.0368     0.1970     1.7423     2.4460   315.2000     1.4271     0.5865
  987   19.720   3751.71     1.3122     0.0311     1.0354     0.1972     1.7482     2.3766   315.5200     1.4327     0.5870
  988   19.740   3752.63     1.3084     0.0309     1.0378     0.1974     1.7438     2.3614   315.8400     1.4280     0.5877
  989   19.760   3753.65     1.3053     0.0306     1.0279     0.1976     1.7406     2.3451   316.1600     1.4245     0.5888
  990   19.780   3754.63     1.3050     0.0306     1.0225     0.1978     1.7326     2.3388   316.4800     1.4161     0.5791
  991   19.800   3755.64     1.3030     0.0307     1.0243     0.1980     1.7322     2.3572   316.8000     1.4154     0.5822
  992   19.820   3756.61     1.3027     0.0311     1.0213     0.1982     1.7310     2.3881   317.1200     1.4138     0.5811
  993   19.840   3757.61     1.2846     0.0303     1.0104     0.1984     1.7107     2.3555   317.4400     1.3932     0.5857
  994   19.860   3758.49     1.2771     0.0306     1.0155     0.1986     1.6923     2.3922   317.7600     1.3746     0.5748
  995   19.880   3761.51     1.1559     0.0305     1.0108     0.1988     1.5672     2.7650   318.0800     1.2492     0.6249
  996   19.900   3762.53     1.2783     0.0307     1.0231     0.1990     1.7092     2.4111   318.4000     1.3908     0.5945
  997   19.920   3763.54     1.2890     0.0311     1.0140     0.1992     1.7159     2.4124   318.7200     1.3972     0.5849
  998   19.940   3764.51     1.3031     0.0314     0.9932     0.1994     1.7215     2.4137   319.0400     1.4025     0.5681
  999   19.960   3765.48     1.3070     0.0321     1.0259     0.1996     1.7324     2.4553   319.3600     1.4130     0.5755
 1000   19.980   3766.45     1.3321     0.0332     1.0459     0.1998     1.7695     2.5085   319.6800     1.4498     0.5806
 1001   20.000   3767.46     1.3447     0.0344     1.0482     0.2000     1.7864     2.5567   320.0000     1.4664     0.5807
 1002   20.020   3782.56     1.3711     0.0353     1.0368     0.2002     1.8082     2.6252   320.3200     1.4879     0.5653
 1003   20.040   3798.12     1.3983     0.0350     1.0254     0.2004     1.8307     2.6026   320.6400     1.5100     0.5493
 1004   20.060   3808.34     1.4103     0.0365     1.0235     0.2006     1.8394     2.5818   320.9600     1.5184     0.5408
 1005   20.080   3809.29     1.4088     0.0363     1.0120     0.2008     1.8365     2.5700   321.2800     1.5153     0.5397
 1006   20.100   3810.26     1.3882     0.0358     1.0294     0.2010     1.8167     2.5746   321.6000     1.4951     0.5479
 1007   20.120   3811.25     1.3662     0.0351     1.0459     0.2012     1.8035     2.5609   321.9200     1.4816     0.5670
 1008   20.140   3812.29     1.3670     0.0347     1.0496     0.2014     1.8079     2.5547   322.2400     1.4857     0.5711
 1009   20.160   3813.28     1.3633     0.0348     1.0466     0.2016     1.8037     2.5425   322.5600     1.4811     0.5719
 1010   20.180   3814.25     1.3526     0.0345     1.0461     0.2018     1.7916     2.5405   322.8800     1.4687     0.5743
 1011   20.200   3815.25     1.3556     0.0341     1.0245     0.2020     1.7864     2.5234   323.2000     1.4632     0.5630
 1012   20.220   3816.22     1.3760     0.0337     1.0514     0.2022     1.8147     2.4848   323.5200     1.4911     0.5648
 1013   20.240   3817.18     1.3634     0.0333     1.0511     0.2024     1.8034     2.4540   323.8400     1.4796     0.5712
 1014   20.260   3818.15     1.3547     0.0334     1.0837     0.2026     1.8083     2.4633   324.1600     1.4841     0.5912
 1015   20.280   3819.11     1.3550     0.0337     1.0802     0.2028     1.8096     2.4871   324.4800     1.4851     0.5923
 1016   20.300   3820.04     1.3624     0.0345     1.0873     0.2030     1.8189     2.5396   324.8000     1.4941     0.5916
 1017   20.320   3821.02     1.3791     0.0363     1.0418     0.2032     1.8353     2.6387   325.1200     1.5101     0.5847
 1018   20.340   3825.42     1.4989     0.0372     0.9132     0.2034     1.9010     2.6973   325.4400     1.5756     0.4835
 1019   20.360   3829.81     1.6186     0.0363     0.8153     0.2036     1.9668     2.4443   325.7600     1.6411     0.3824
 1020   20.380   3831.36     1.5428     0.0362     0.8645     0.2038     1.8975     2.3235   326.0800     1.5714     0.4078
 1021   20.400   3832.33     1.4460     0.0370     0.9460     0.2040     1.8311     2.5267   326.4000     1.5047     0.4739
 1022   20.420   3833.38     1.3693     0.0359     1.0179     0.2042     1.7884     2.5923   326.7200     1.4617     0.5431
 1023   20.440   3834.36     1.3153     0.0354     1.0489     0.2044     1.7532     2.6693   327.0400     1.4261     0.5877
 1024   20.460   3835.35     1.3088     0.0331     1.0518     0.2046     1.7517     2.5389   327.3600     1.4244     0.5967
 1025   20.480   3836.35     1.3313     0.0325     1.0509     0.2048     1.7720     2.4499   327.6800     1.4443     0.5846
 1026   20.500   3837.29     1.3371     0.0319     1.0579     0.2050     1.7802     2.3869   328.0000     1.4522     0.5854
 1027   20.520   3838.23     1.3432     0.0330     1.0453     0.2052     1.7848     2.4592   328.3200     1.4565     0.5810
 1028   20.540   3839.20     1.3412     0.0325     1.0593     0.2054     1.7828     2.4153   328.6400     1.4542     0.5819
 1029   20.560   3840.19     1.3373     0.0335     1.0532     0.2056     1.7807     2.5061   328.9600     1.4517     0.5855
 1030   20.580   3841.19     1.3343     0.0338     1.0586     0.2058     1.7790     2.5279   329.2800     1.4498     0.5885
 1031   20.600   3842.19     1.3241     0.0328     1.0660     0.2060     1.7662     2.4838   329.6000     1.4366     0.5892
 1032   20.620   3843.17     1.3180     0.0307     1.0859     0.2062     1.7716     2.3240   329.9200     1.4417     0.6061
 1033   20.640   3844.14     1.3384     0.0299     1.0994     0.2064     1.7962     2.2482   330.2400     1.4660     0.6028
 1034   20.660   3845.14     1.3866     0.0303     1.1349     0.2066     1.8569     2.2056   330.5600     1.5263     0.5982
 1035   20.680   3846.11     1.4677     0.0350     1.1687     0.2068     1.9548     2.4278   330.8800     1.6239     0.5869
 1036   20.700   3847.08     1.7103     0.0404     1.1687     0.2070     2.1979     2.5060   331.2000     1.8667     0.5126
 1037   20.720   3848.01     2.2873     0.0423     0.9622     0.2072     2.7570     1.9772   331.5200     2.4254     0.3757
 1038   20.740   3848.93     2.3936     0.0443     0.3291     0.2074     2.7193     1.8449   331.8400     2.3874     0.2378
 1039   20.760   3850.00     2.1577     0.0453     0.1263     0.2076     2.1711     2.0413   332.1600     1.8389    -0.0955
 1040   20.780   3850.97     1.9857     0.0490     0.4321     0.2078     2.1230     2.4290   332.4800     1.7906     0.0666
 1041   20.800   3851.94     1.8763     0.0494     0.6502     0.2080     2.1252     2.6033   332.8000     1.7924     0.2146
 1042   20.820   3852.91     1.8744     0.0478     0.7971     0.2082     2.1882     2.5644   333.1200     1.8551     0.2904
 1043   20.840   3853.92     1.9144     0.0467     0.8858     0.2084     2.2795     2.4525   333.4400     1.9461     0.3396
 1044   20.860   3854.88     1.9700     0.0473     0.9283     0.2086     2.3538     2.4216   333.7600     2.0200     0.3490
 1045   20.880   3855.85     2.0132     0.0486     0.9618     0.2088     2.4108     2.4222   334.0800     2.0768     0.3554
 1046   20.900   3856.84     2.0442     0.0473     1.0142     0.2090     2.4625     2.3242   334.4000     2.1281     0.3698
 1047   20.920   3857.81     2.0497     0.0468     1.1027     0.2092     2.5006     2.2812   334.7200     2.1659     0.3991
 1048   20.940   3858.78     2.0357     0.0463     1.1453     0.2094     2.5091     2.2729   335.0400     2.1741     0.4221
 1049   20.960   3859.72     2.0462     0.0465     1.2330     0.2096     2.5498     2.2745   335.3600     2.2145     0.4468
 1050   20.980   3860.67     2.0487     0.0456     1.2807     0.2098     2.5746     2.2186   335.6800     2.2389     0.4656
 1051   21.000   3861.71     2.0147     0.0453     1.2851     0.2100     2.5559     2.2495   336.0000     2.2199     0.4858
 1052   21.020   3862.70     1.9792     0.0389     1.2843     0.2102     2.5158     1.9504   336.3200     2.1795     0.4898
 1053   21.040   3863.67     1.9309     0.0435     1.3205     0.2104     2.4792     2.2467   336.6400     2.1426     0.5111
 1054   21.060   3864.64     1.9172     0.0464     1.3184     0.2106     2.4706     2.4172   336.9600     2.1336     0.5189
 1055   21.080   3865.63     1.9303     0.0477     1.3497     0.2108     2.4913     2.4789   337.2800     2.1540     0.5222
 1056   21.100   3866.63     1.9887     0.0469     1.3721     0.2110     2.5603     2.3890   337.6000     2.2227     0.5174
 1057   21.120   3867.60     2.4958     0.0461     1.0233     0.2112     2.9858     1.9577   337.9200     2.6479     0.3613
 1058   21.140   3868.58     2.2819     0.0474     1.1198     0.2114     2.7220     1.9820   338.2400     2.3838     0.3517
 1059   21.160   3869.55     2.0801     0.0474     1.1598     0.2116     2.5333     2.2757   338.5600     2.1948     0.3952
 1060   21.180   3870.51     2.0728     0.0505     1.2610     0.2118     2.5902     2.4422   338.8800     2.2514     0.4532
 1061   21.200   3871.48     2.1576     0.0507     1.3506     0.2120     2.7136     2.3764   339.2000     2.3744     0.4682
 1062   21.220   3872.50     2.2577     0.0495     1.4149     0.2122     2.8466     2.2285   339.5200     2.5071     0.4746
 1063   21.240   3873.47     2.2431     0.0469     1.3665     0.2124     2.8339     2.0816   339.8400     2.4941     0.4788
 1064   21.260   3874.48     2.1287     0.0558     1.3967     0.2126     2.7040     2.6095   340.1600     2.3638     0.4895
 1065   21.280   3875.41     2.0792     0.0606     1.4571     0.2128     2.6844     2.9136   340.4800     2.3439     0.5240
 1066   21.300   3878.42     2.2718     0.0622     1.2168     0.2130     2.8309     3.0007   340.8000     2.4901     0.4677
 1067   21.320   3884.32     2.7543     0.0596     0.8853     0.2132     3.1742     2.8757   341.1200     2.8331     0.3064
 1068   21.340   3890.22     3.2369     0.0586     0.3010     0.2134     3.5175     2.2294   341.4400     3.1761     0.1452
 1069   21.360   3891.52     2.8072     0.0571     0.6208     0.2136     3.1627     1.8990   341.7600     2.8209     0.2236
 1070   21.380   3892.49     2.4030     0.0582     0.7926     0.2138     2.6757     2.3968   342.0800     2.3337     0.1867
 1071   21.400   3893.46     2.3946     0.0587     0.9236     0.2140     2.7962     2.4727   342.4000     2.4538     0.3024
 1072   21.420   3894.43     2.4257     0.0514     0.8278     0.2142     2.7599     2.0683   342.7200     2.4172     0.2404
 1073   21.440   3895.39     2.3818     0.0483     1.0089     0.2144     2.7846     2.0278   343.0400     2.4415     0.3049
 1074   21.460   3896.41     2.3285     0.0497     1.0841     0.2146     2.7775     2.1323   343.3600     2.4341     0.3511
 1075   21.480   3897.43     2.2015     0.0469     1.1667     0.2148     2.6772     2.0856   343.6800     2.3335     0.3935
 1076   21.500   3898.44     2.1308     0.0392     1.2396     0.2150     2.6461     1.8328   344.0000     2.3021     0.4396
 1077   21.520   3899.41     2.1055     0.0455     1.2552     0.2152     2.6328     2.1615   344.3200     2.2884     0.4545
 1078   21.540   3900.39     2.0742     0.0501     1.3184     0.2154     2.6123     2.3958   344.6400     2.2677     0.4700
 1079   21.560   3901.36     2.0428     0.0508     1.3937     0.2156     2.6205     2.4905   344.9600     2.2756     0.5097
 1080   21.580   3902.33     2.1409     0.0509     1.4051     0.2158     2.7399     2.4098   345.2800     2.3947     0.5056
 1081   21.600   3903.28     2.9778     0.0490     1.0165     0.2160     3.4749     1.6972   345.6000     3.1293     0.3110
 1082   21.620   3904.30     2.7488     0.0485     1.0760     0.2162     3.1815     1.6725   345.9200     2.8355     0.2907
 1083   21.640   3905.31     2.3028     0.0488     0.9756     0.2164     2.6960     2.0841   346.2400     2.3498     0.3065
 1084   21.660   3906.28     2.1653     0.0499     1.1230     0.2166     2.6237     2.2922   346.5600     2.2771     0.3842
 1085   21.680   3907.30     2.1361     0.0476     1.1987     0.2168     2.6297     2.2260   346.8800     2.2828     0.4198
 1086   21.700   3908.27     2.1421     0.0472     1.1876     0.2170     2.6607     2.1982   347.2000     2.3135     0.4400
 1087   21.720   3909.23     2.2688     0.0455     0.8667     0.2172     2.6529     1.9824   347.5200     2.3054     0.3019
 1088   21.740   3910.22     2.1260     0.0436     1.1230     0.2174     2.5697     2.0327   347.8400     2.2219     0.3776
 1089   21.760   3911.25     2.0893     0.0437     1.1901     0.2176     2.5824     2.0697   348.1600     2.2343     0.4281
 1090   21.780   3912.22     1.9924     0.0445     1.3334     0.2178     2.5253     2.2214   348.4800     2.1768     0.4827
 1091   21.800   3913.19     2.0156     0.0419     1.3977     0.2180     2.5952     2.0939   348.8000     2.2464     0.5173
 1092   21.820   3914.17     2.1000     0.0432     1.4115     0.2182     2.6966     2.0870   349.1200     2.3474     0.5122
 1093   21.840   3915.14     2.2353     0.0426     1.1369     0.2184     2.7662     2.0229   349.4400     2.4168     0.4321
 1094   21.860   3916.14     2.1121     0.0430     0.9569     0.2186     2.4868     2.0336   349.7600     2.1371     0.3155
 1095   21.880   3917.11     1.9895     0.0492     1.1339     0.2188     2.4592     2.4479   350.0800     2.1092     0.4266
 1096   21.900   3918.09     1.9582     0.0512     1.2287     0.2190     2.4610     2.6160   350.4000     2.1106     0.4634
 1097   21.920   3919.06     1.9755     0.0517     1.2867     0.2192     2.5110     2.6213   350.7200     2.1603     0.4887
 1098   21.940   3937.57     2.0629     0.0482     1.2000     0.2194     2.5812     2.4207   351.0400     2.2301     0.4564
 1099   21.960   3969.51     2.1862     0.0493     1.1291     0.2196     2.6631     2.4746   351.3600     2.3117     0.3968
 1100   21.980   3977.35     2.3283     0.0490     1.2461     0.2198     2.8292     2.2783   351.6800     2.4775     0.3925
 1101   22.000   3978.48     2.2820     0.0486     1.3406     0.2200     2.8347     2.1159   352.0000     2.4827     0.4415
 1102   22.020   3979.45     2.3720     0.0484     1.3731     0.2202     2.9479     2.0906   352.3200     2.5955     0.4435
 1103   22.040   3980.38     2.2313     0.0469     1.3841     0.2204     2.8096     2.0777   352.6400     2.4569     0.4707
 1104   22.060   3981.38     2.2222     0.0456     1.4245     0.2206     2.8102     2.0590   352.9600     2.4572     0.4800
 1105   22.080   3982.35     2.1164     0.0439     1.4247     0.2208     2.7160     2.0655   353.2800     2.3627     0.5107
 1106   22.100   3983.37     2.0869     0.0417     1.4582     0.2210     2.6967     1.9920   353.6000     2.3431     0.5253
 1107   22.120   3984.33     2.0815     0.0415     1.4598     0.2212     2.6892     1.9959   353.9200     2.3353     0.5249
 1108   22.140   3985.30     1.9979     0.0398     1.5267     0.2214     2.6348     1.9891   354.2400     2.2806     0.5679
 1109   22.160   3986.27     1.9668     0.0370     1.5511     0.2216     2.6140     1.8686   354.5600     2.2594     0.5839
 1110   22.180   3987.29     1.9775     0.0396     1.4971     0.2218     2.6102     2.0121   354.8800     2.2553     0.5696
 1111   22.200   3988.25     2.0094     0.0437     1.5316     0.2220     2.6507     2.1888   355.2000     2.2955     0.5685
 1112   22.220   3989.25     2.0779     0.0500     1.5220     0.2222     2.7222     2.4343   355.5200     2.3667     0.5543
 1113   22.240   3990.24     2.0759     0.0502     1.4849     0.2224     2.7178     2.4212   355.8400     2.3619     0.5529
 1114   22.260   3991.19     2.0962     0.0511     1.3673     0.2226     2.6621     2.4569   356.1600     2.3060     0.4878
 1115   22.280   3993.47     2.1731     0.0528     1.1157     0.2228     2.7073     2.4781   356.4800     2.3508     0.4478
 1116   22.300   4002.19     2.4315     0.0523     0.6630     0.2230     2.7756     2.4555   356.8000     2.4188     0.2501
 1117   22.320   4007.46     2.5418     0.0492     0.9441     0.2232     2.8759     1.9254   357.1200     2.5188     0.2270
 1118   22.340   4008.47     2.3128     0.0441     1.1448     0.2234     2.7793     1.8791   357.4400     2.4219     0.3664
 1119   22.360   4009.49     2.1602     0.0450     1.2506     0.2236     2.6672     2.0565   357.7600     2.3094     0.4259
 1120   22.380   4010.51     2.0684     0.0434     1.3781     0.2238     2.6340     2.0798   358.0800     2.2759     0.4934
 1121   22.400   4011.43     2.0831     0.0424     1.4280     0.2240     2.6761     2.0451   358.4000     2.3177     0.5125
 1122   22.420   4012.40     2.1014     0.0416     1.4270     0.2242     2.7071     1.9839   358.7200     2.3484     0.5186
 1123   22.440   4013.36     2.2349     0.0421     1.2374     0.2244     2.7853     1.8778   359.0400     2.4262     0.4474
 1124   22.460   4014.39     2.0928     0.0405     1.2824     0.2246     2.6180     1.9174   359.3600     2.2586     0.4542
 1125   22.480   4015.36     2.1047     0.0411     1.3113     0.2248     2.6546     1.9635   359.6800     2.2949     0.4725
 1126   22.500   4016.36     2.1927     0.0409     1.2703     0.2250     2.7332     1.8948   360.0000     2.3732     0.4476
 1127   22.520   4017.33     2.3020     0.0426     1.2790     0.2252     2.8321     1.8713   360.3200     2.4718     0.4196
 1128   22.540   4018.30     2.3310     0.0444     1.2446     0.2254     2.8820     1.9336   360.6400     2.5213     0.4310
 1129   22.560   4019.29     2.3865     0.0421     1.2333     0.2256     2.8735     1.7672   360.9600     2.5125     0.3714
 1130   22.580   4020.23     2.3087     0.0430     1.3454     0.2258     2.8600     1.8497   361.2800     2.4987     0.4350
 1131   22.600   4021.20     2.3462     0.0442     1.3569     0.2260     2.9155     1.8984   361.6000     2.5539     0.4422
 1132   22.620   4022.18     2.3320     0.0430     1.4318     0.2262     2.9196     1.8237   361.9200     2.5577     0.4588
 1133   22.640   4023.18     2.2728     0.0445     1.5523     0.2264     2.9107     1.9445   362.2400     2.5484     0.5072
 1134   22.660   4024.18     2.2338     0.0442     1.5083     0.2266     2.8710     1.9758   362.5600     2.5085     0.5146
 1135   22.680   4025.14     2.1761     0.0413     1.5476     0.2268     2.8257     1.8873   362.8800     2.4628     0.5360
 1136   22.700   4026.09     2.1488     0.0421     1.5421     0.2270     2.8006     1.9617   363.2000     2.4374     0.5435
 1137   22.720   4027.10     2.2059     0.0440     1.4585     0.2272     2.8252     2.0020   363.5200     2.4617     0.5067
 1138   22.740   4028.11     2.1870     0.0461     1.4636     0.2274     2.7940     2.1019   363.8400     2.4302     0.5012
 1139   22.760   4029.09     2.2784     0.0470     1.5094     0.2276     2.9126     2.0977   364.1600     2.5484     0.5035
 1140   22.780   4030.05     2.4258     0.0472     1.4706     0.2278     3.0531     1.9512   364.4800     2.6886     0.4708
 1141   22.800   4031.02     2.4004     0.0475     1.4137     0.2280     3.0048     1.9699   364.8000     2.6400     0.4588
 1142   22.820   4032.04     2.3718     0.0481     1.0829     0.2282     2.9367     2.0267   365.1200     2.5716     0.4336
 1143   22.840   4033.05     2.2830     0.0477     1.1860     0.2284     2.7407     2.0744   365.4400     2.3752     0.3627
 1144   22.860   4034.02     2.1345     0.0460     1.3756     0.2286     2.6936     2.1363   365.7600     2.3279     0.4737
 1145   22.880   4034.99     2.1660     0.0454     1.4246     0.2288     2.7647     2.1130   366.0800     2.3986     0.4989
 1146   22.900   4036.01     2.2494     0.0459     1.4523     0.2290     2.8560     2.0494   366.4000     2.4896     0.4882
 1147   22.920   4036.98     2.3093     0.0434     1.4894     0.2292     2.9237     1.8911   366.7200     2.5569     0.4824
 1148   22.940   4037.90     2.3345     0.0439     1.5280     0.2294     2.9750     1.8892   367.0400     2.6080     0.4968
 1149   22.960   4038.91     2.4348     0.0416     1.4508     0.2296     3.0651     1.7307   367.3600     2.6977     0.4712
 1150   22.980   4039.93     2.5173     0.0405     1.4146     0.2298     3.1157     1.6108   367.6800     2.7481     0.4348
 1151   23.000   4040.94     2.5058     0.0443     1.3984     0.2300     3.0929     1.7607   368.0000     2.7249     0.4286
 1152   23.020   4041.88     2.4987     0.0497     1.4306     0.2302     3.0951     1.9893   368.3200     2.7268     0.4364
 1153   23.040   4042.88     2.4970     0.0488     1.3751     0.2304     3.0840     1.9591   368.6400     2.7154     0.4298
 1154   23.060   4043.85     2.5677     0.0470     1.3317     0.2306     3.1289     1.8449   368.9600     2.7600     0.4007
 1155   23.080   4044.85     2.6761     0.0460     1.3028     0.2308     3.2306     1.7328   369.2800     2.8613     0.3808
 1156   23.100   4045.83     2.6181     0.0484     1.2772     0.2310     3.1508     1.8224   369.6000     2.7812     0.3730
 1157   23.120   4046.82     2.3895     0.0470     1.4267     0.2312     2.9650     1.9283   369.9200     2.5951     0.4393
 1158   23.140   4047.79     2.2100     0.0483     1.5491     0.2314     2.8462     2.1654   370.2400     2.4759     0.5184
 1159   23.160   4048.78     2.1646     0.0467     1.5994     0.2316     2.8337     2.1575   370.5600     2.4631     0.5527
 1160   23.180   4049.75     2.1714     0.0483     1.6164     0.2318     2.8445     2.2319   370.8800     2.4736     0.5541
 1161   23.200   4050.72     2.1625     0.0517     1.6336     0.2320     2.8464     2.3892   371.2000     2.4752     0.5642
 1162   23.220   4051.71     2.1596     0.0562     1.6296     0.2322     2.8441     2.6089   371.5200     2.4726     0.5652
 1163   23.240   4052.70     2.1694     0.0575     1.6211     0.2324     2.8484     2.6353   371.8400     2.4765     0.5589
 1164   23.260   4053.70     2.1517     0.0597     1.5944     0.2326     2.8266     2.7855   372.1600     2.4544     0.5599
 1165   23.280   4057.14     2.2394     0.0607     1.4408     0.2328     2.8901     2.8104   372.4800     2.5176     0.5263
 1166   23.300   4064.70     2.5155     0.0571     1.1261     0.2330     3.0340     2.6398   372.8000     2.6612     0.3808
 1167   23.320   4068.57     2.6034     0.0537     1.2108     0.2332     3.1049     2.0561   373.1200     2.7317     0.3517
 1168   23.340   4069.54     2.5176     0.0532     1.3070     0.2334     3.0496     2.0965   373.4400     2.6762     0.3861
 1169   23.360   4070.60     2.3602     0.0513     1.3685     0.2336     2.9185     2.1409   373.7600     2.5448     0.4308
 1170   23.380   4071.58     2.1836     0.0486     1.5291     0.2338     2.8007     2.1955   374.0800     2.4266     0.5091
 1171   23.400   4072.58     2.1396     0.0479     1.6140     0.2340     2.8049     2.2361   374.4000     2.4305     0.5555
 1172   23.420   4073.55     2.1487     0.0467     1.6184     0.2342     2.8274     2.1785   374.7200     2.4527     0.5634
 1173   23.440   4074.48     2.1308     0.0468     1.6528     0.2344     2.8192     2.1915   375.0400     2.4442     0.5747
 1174   23.460   4075.49     2.1193     0.0448     1.6726     0.2346     2.8233     2.1060   375.3600     2.4479     0.5889
 1175   23.480   4076.51     2.1497     0.0474     1.6816     0.2348     2.8586     2.1948   375.6800     2.4829     0.5852
 1176   23.500   4077.48     2.1537     0.0446     1.7093     0.2350     2.8691     2.0747   376.0000     2.4931     0.5890
 1177   23.520   4078.45     2.3020     0.0367     1.6996     0.2352     3.0193     1.6156   376.3200     2.6430     0.5572
 1178   23.540   4079.46     2.2907     0.0352     1.7307     0.2354     3.0279     1.5262   376.6400     2.6513     0.5733
 1179   23.560   4080.39     2.3730     0.0481     1.5777     0.2356     3.0446     2.0388   376.9600     2.6676     0.5110
 1180   23.580   4081.40     2.4329     0.0576     1.5757     0.2358     3.1032     2.3890   377.2800     2.7259     0.4989
 1181   23.600   4082.37     3.4615     0.0588     1.4236     0.2360     4.0863     1.6740   377.6000     3.7087     0.3374
 1182   23.620   4083.33     3.2363     0.0592     1.0724     0.2362     3.7536     1.8397   377.9200     3.3757     0.2948
 1183   23.640   4084.35     3.5718     0.0558     0.7947     0.2364     3.9126     1.5874   378.2400     3.5344     0.1628
 1184   23.660   4085.32     3.0623     0.0564     1.0231     0.2366     3.4698     1.6898   378.5600     3.0913     0.2425
 1185   23.680   4086.29     2.4483     0.0580     1.1594     0.2368     2.9026     2.3234   378.8800     2.5237     0.3350
 1186   23.700   4087.28     2.2581     0.0574     1.2625     0.2370     2.7651     2.5119   379.2000     2.3859     0.4067
 1187   23.720   4088.22     2.1702     0.0480     1.3319     0.2372     2.7198     2.2032   379.5200     2.3402     0.4577
 1188   23.740   4089.22     2.1000     0.0475     1.4198     0.2374     2.6817     2.2489   379.8400     2.3018     0.4985
 1189   23.760   4090.21     2.1018     0.0470     1.4698     0.2376     2.7137     2.2322   380.1600     2.3335     0.5225
 1190   23.780   4091.20     2.1636     0.0480     1.4888     0.2378     2.7862     2.2322   380.4800     2.4057     0.5174
 1191   23.800   4092.19     2.2224     0.0489     1.4993     0.2380     2.8527     2.2321   380.8000     2.4719     0.5108
 1192   23.820   4093.15     2.2200     0.0499     1.4959     0.2382     2.8503     2.2415   381.1200     2.4691     0.5112
 1193   23.840   4094.12     2.1862     0.0518     1.5433     0.2384     2.8277     2.3537   381.4400     2.4463     0.5270
 1194   23.860   4096.32     2.1316     0.0521     1.5569     0.2386     2.7864     2.4326   381.7600     2.4046     0.5491
 1195   23.880   4110.45     2.1197     0.0521     1.5510     0.2388     2.7720     2.4443   382.0800     2.3899     0.5499
 1196   23.900   4124.57     2.1079     0.0508     1.5452     0.2390     2.7577     2.3819   382.4000     2.3753     0.5508
 1197   23.920   4138.70     2.0960     0.0508     1.5550     0.2392     2.7434     2.3954   382.7200     2.3607     0.5516
 1198   23.940   4142.41     2.0520     0.0515     1.6288     0.2394     2.7293     2.4941   383.0400     2.3463     0.5853
 1199   23.960   4143.38     2.0409     0.0502     1.6650     0.2396     2.7361     2.4588   383.3600     2.3527     0.6016
 1200   23.980   4144.39     2.0465     0.0495     1.6861     0.2398     2.7536     2.4199   383.6800     2.3700     0.6093
 1201   24.000   4145.37     2.0720     0.0492     1.6850     0.2400     2.7800     2.3794   384.0000     2.3960     0.6034
 1202   24.020   4146.31     2.1060     0.0493     1.6842     0.2402     2.8140     2.3476   384.3200     2.4297     0.5949
 1203   24.040   4147.25     2.1514     0.0492     1.6865     0.2404     2.8575     2.2949   384.6400     2.4729     0.5827
 1204   24.060   4148.27     2.2106     0.0482     1.6772     0.2406     2.9159     2.1952   384.9600     2.5309     0.5685
 1205   24.080   4149.29     2.2526     0.0482     1.6755     0.2408     2.9572     2.1442   385.2800     2.5719     0.5587
 1206   24.100   4150.31     2.2630     0.0493     1.6730     0.2410     2.9681     2.1786   385.6000     2.5825     0.5567
 1207   24.120   4151.27     2.2511     0.0504     1.6497     0.2412     2.9457     2.2391   385.9200     2.5598     0.5519
 1208   24.140   4152.27     2.2428     0.0482     1.6308     0.2414     2.9333     2.1470   386.2400     2.5471     0.5507
 1209   24.160   4153.24     2.2694     0.0477     1.5741     0.2416     2.9399     2.1037   386.5600     2.5534     0.5306
 1210   24.180   4154.23     2.2967     0.0508     1.4727     0.2418     2.9280     2.2174   386.8800     2.5412     0.4963
 1211   24.200   4155.20     2.2994     0.0499     1.4878     0.2420     2.9185     2.1691   387.2000     2.5313     0.4868
 1212   24.220   4156.16     2.3051     0.0477     1.5074     0.2422     2.9347     2.0772   387.5200     2.5472     0.4935
 1213   24.240   4157.13     2.3077     0.0532     1.4996     0.2424     2.9359     2.3469   387.8400     2.5481     0.4919
 1214   24.260   4158.10     2.2892     0.0587     1.5603     0.2426     2.9302     2.6172   388.1600     2.5420     0.5050
 1215   24.280   4159.07     2.1604     0.0647     1.6888     0.2428     2.8535     2.9397   388.4800     2.4651     0.5710
 1216   24.300   4160.08     2.2503     0.0673     1.7027     0.2430     2.9660     2.9816   388.8000     2.5772     0.5675
 1217   24.320   4161.10     2.7063     0.0677     1.4470     0.2432     3.3694     2.5128   389.1200     2.9803     0.4490
 1218   24.340   4164.70     2.8139     0.0665     1.3700     0.2434     3.3983     2.2872   389.4400     3.0089     0.3817
 1219   24.360   4169.97     2.6626     0.0631     1.3079     0.2436     3.2209     2.1713   389.7600     2.8312     0.3838
 1220   24.380   4175.23     2.5113     0.0634     1.2802     0.2438     3.0435     2.2437   390.0800     2.6534     0.3858
 1221   24.400   4177.22     2.2517     0.0619     1.4740     0.2440     2.8510     2.7103   390.4000     2.4606     0.4811
 1222   24.420   4178.19     2.1064     0.0562     1.5844     0.2442     2.7587     2.6437   390.7200     2.3680     0.5529
 1223   24.440   4179.21     2.0215     0.0524     1.6387     0.2444     2.7045     2.5800   391.0400     2.3135     0.5973
 1224   24.460   4180.21     2.0182     0.0501     1.6699     0.2446     2.7134     2.4813   391.3600     2.3220     0.6074
 1225   24.480   4181.19     2.0076     0.0496     1.6874     0.2448     2.7150     2.4780   391.6800     2.3233     0.6195
 1226   24.500   4182.16     2.0340     0.0483     1.6972     0.2450     2.7449     2.3866   392.0000     2.3529     0.6153
 1227   24.520   4183.13     2.0793     0.0486     1.7146     0.2452     2.7994     2.3533   392.3200     2.4071     0.6104
 1228   24.540   4184.10     2.1242     0.0478     1.7007     0.2454     2.8440     2.2607   392.6400     2.4514     0.5990
 1229   24.560   4185.12     2.1650     0.0490     1.6752     0.2456     2.8748     2.2694   392.9600     2.4819     0.5820
 1230   24.580   4186.08     2.1370     0.0507     1.7077     0.2458     2.8406     2.3640   393.2800     2.4474     0.5841
 1231   24.600   4187.00     2.1271     0.0506     1.7356     0.2460     2.8504     2.3799   393.6000     2.4568     0.6008
 1232   24.620   4188.02     2.1455     0.0521     1.7797     0.2462     2.8867     2.4270   393.9200     2.4928     0.6092
 1233   24.640   4188.99     2.1534     0.0516     1.7979     0.2464     2.9061     2.3984   394.2400     2.5119     0.6155
 1234   24.660   4189.95     2.1564     0.0522     1.8092     0.2466     2.9113     2.4196   394.5600     2.5167     0.6162
 1235   24.680   4190.97     2.1529     0.0526     1.8352     0.2468     2.9238     2.4418   394.8800     2.5289     0.6282
 1236   24.700   4191.99     2.1769     0.0540     1.8338     0.2470     2.9480     2.4885   395.2000     2.5528     0.6224
 1237   24.720   4192.96     2.1751     0.0536     1.8510     0.2472     2.9471     2.4599   395.5200     2.5516     0.6235
 1238   24.740   4193.98     2.2016     0.0524     1.8317     0.2474     2.9761     2.3921   395.8400     2.5802     0.6187
 1239   24.760   4194.94     2.2271     0.0529     1.7573     0.2476     2.9859     2.3895   396.1600     2.5898     0.6020
 1240   24.780   4195.91     2.2382     0.0528     1.7517     0.2478     2.9604     2.3552   396.4800     2.5639     0.5740
 1241   24.800   4196.93     2.2100     0.0509     1.8007     0.2480     2.9657     2.3006   396.8000     2.5689     0.6039
 1242   24.820   4197.86     2.1964     0.0428     1.8255     0.2482     2.9607     1.9386   397.1200     2.5636     0.6131
 1243   24.840   4198.81     2.2027     0.0323     1.7945     0.2484     2.9626     1.4677   397.4400     2.5652     0.6086
 1244   24.860   4199.80     2.1904     0.0347     1.7673     0.2486     2.9342     1.5811   397.7600     2.5365     0.6002
 1245   24.880   4200.83     2.1855     0.0652     1.7671     0.2488     2.9321     2.9868   398.0800     2.5341     0.6033
 1246   24.900   4201.87     4.1956     0.0973     1.5227     0.2490     4.8679     2.6602   398.4000     4.4695     0.3079
 1247   24.920   4202.85     5.3673     0.0899     1.2173     0.2492     5.9517     1.7637   398.7200     5.5530     0.2070
 1248   24.940   4203.85     7.1087     0.0896     0.5188     0.2494     7.4765     1.2992   399.0400     7.0774     0.0890
 1249   24.960   4204.84     6.9436     0.0954    -0.2726     0.2496     6.8729     1.3606   399.3600     6.4736    -0.0653
 1250   24.980   4205.79     6.5410     0.1079    -0.2250     0.2498     6.4336     1.6388   399.6800     6.0339    -0.0838
 1251   25.000   4207.73     4.9522     0.1232     0.5466     0.2500     5.1612     2.4842   400.0000     4.7612     0.0520
 1252   25.020   4208.77     5.4945     0.1301     0.6155     0.2502     5.7326     2.3543   400.3200     5.3323     0.0594
 1253   25.040   4209.81     5.2093     0.1314     1.0073     0.2504     5.5811     2.5046   400.6400     5.1804     0.1225
 1254   25.060   4210.81     5.5168     0.1173     0.8730     0.2506     5.9123     2.1601   400.9600     5.5113     0.1255
 1255   25.080   4211.78     6.3095     0.1067     0.9197     0.2508     6.6746     1.7563   401.2800     6.2733     0.0984
 1256   25.100   4212.77     7.5051     0.1032     0.8294     0.2510     7.8752     1.4825   401.6000     7.4736     0.0850
 1257   25.120   4213.76     9.2604     0.1070     0.6218     0.2512     9.5626     1.2420   401.9200     9.1607     0.0516
 1258   25.140   4214.78    11.3306     0.1231     0.3649     0.2514    11.4986     1.1439   402.2400    11.0964     0.0135
 1259   25.160   4215.73    12.6793     0.1251     0.1655     0.2516    12.7900     1.0016   402.5600    12.3874     0.0011
 1260   25.180   4216.65    13.1349     0.1494     0.1412     0.2518    13.1837     1.1357   402.8800    12.7808    -0.0106
 1261   25.200   4217.62    12.9914     0.1339     0.2472     0.2520    13.0806     1.0305   403.2000    12.6774    -0.0031
 1262   25.220   4218.55    13.4205     0.1385     0.1699     0.2522    13.5217     1.0331   403.5200    13.1182    -0.0008
 1263   25.240   4222.87    15.7370     0.1311    -0.0991     0.2524    15.7159     0.8974   403.8400    15.3120    -0.0195
 1264   25.260   4230.73    16.9554     0.1390    -0.2410     0.2526    16.8747     0.9493   404.1600    16.4706    -0.0268
 1265   25.280   4235.62    15.6769     0.1491    -0.0888     0.2528    15.6204     0.9455   404.4800    15.2159    -0.0255
 1266   25.300   4236.68    16.9332     0.1437    -0.2294     0.2530    16.8410     0.8511   404.8000    16.4362    -0.0288
 1267   25.320   4237.65    16.0778     0.1481    -0.2644     0.2532    15.9750     0.9210   405.1200    15.5699    -0.0320
 1268   25.340   4238.61    15.1588     0.1622    -0.2937     0.2534    15.0364     1.0707   405.4400    14.6310    -0.0372
 1269   25.360   4239.53    13.8345     0.1729    -0.2693     0.2536    13.7120     1.1916   405.7600    13.3063    -0.0410
 1270   25.380   4240.46    12.0825     0.1691    -0.1663     0.2538    11.9950     1.3299   406.0800    11.5889    -0.0399
 1271   25.400   4241.35    11.6313     0.1692     0.0299     0.2540    11.6070     1.4687   406.4000    11.2006    -0.0279
 1272   25.420   4242.28    12.6920     0.1491     0.1227     0.2542    12.7452     1.2229   406.7200    12.3385    -0.0103
 1273   25.440   4243.24    14.6806     0.1408    -0.0762     0.2544    14.6939     1.0160   407.0400    14.2869    -0.0153
 1274   25.460   4244.23    17.2295     0.1316    -0.1513     0.2546    17.1808     0.8071   407.3600    16.7735    -0.0221
 1275   25.480   4245.18    17.9223     0.1170    -0.2202     0.2548    17.8320     0.6564   407.6800    17.4243    -0.0270
 1276   25.500   4247.62    16.7632     0.1039    -0.0387     0.2550    16.7632     0.5988   408.0000    16.3552    -0.0156
 1277   25.520   4248.58    18.5484     0.1336    -0.0902     0.2552    18.5315     0.7210   408.3200    18.1232    -0.0163
 1278   25.540   4249.55    18.0226     0.1765     0.0045     0.2554    18.0378     0.9791   408.6400    17.6292    -0.0124
 1279   25.560   4250.48    16.8958     0.2036    -0.0844     0.2556    16.8601     1.2099   408.9600    16.4511    -0.0207
 1280   25.580   4251.44    14.7833     0.2377    -0.1014     0.2558    14.7528     1.6092   409.2800    14.3436    -0.0229
 1281   25.600   4252.36    13.1135     0.2199    -0.1439     0.2560    13.0384     1.6728   409.6000    12.6288    -0.0345
 1282   25.620   4253.25    11.7275     0.2293     0.0087     0.2562    11.7135     1.8774   409.9200    11.3036    -0.0256
 1283   25.640   4254.18    11.0653     0.2416     0.2853     0.2564    11.1539     2.1616   410.2400    10.7436    -0.0042
 1284   25.660   4255.12    11.2964     0.2351     0.6177     0.2566    11.4437     2.1126   410.5600    11.0331     0.0082
 1285   25.680   4256.08    12.7539     0.2213     0.3011     0.2568    13.0914     1.8279   410.8800    12.6805     0.0435
 1286   25.700   4257.05    14.4950     0.1955    -0.3135     0.2570    14.3724     1.4019   411.2000    13.9612    -0.0393
 1287   25.720   4258.02    15.8647     0.1612    -0.3343     0.2572    15.7251     1.0476   411.5200    15.3136    -0.0385
 1288   25.740   4259.00    16.9032     0.1484    -0.3315     0.2574    16.7631     0.9182   411.8400    16.3512    -0.0361
 1289   25.760   4259.96    17.5146     0.1355    -0.3253     0.2576    17.3762     0.7887   412.1600    16.9640    -0.0346
 1290   25.780   4260.88    18.8309     0.1603    -0.3078     0.2578    18.6995     0.8601   412.4800    18.2870    -0.0312
 1291   25.800   4261.85    20.4041     0.1862    -0.3009     0.2580    20.2767     0.9150   412.8000    19.8639    -0.0283
 1292   25.820   4262.84    20.7642               -0.2763     0.2582    20.6396              413.1200    20.2265    -0.0274
 1293   25.840   4277.19    20.7895               -0.1593     0.2584    20.7056              413.4400    20.2922    -0.0226
 1294   25.860   4294.38    20.8768               -0.0423     0.2586    20.8421              413.7600    20.4283    -0.0168
 1295   25.880   4306.37    21.5093               -0.0915     0.2588    21.4823              414.0800    21.0682    -0.0153
 1296   25.900   4307.40    24.8037                0.3525     0.2590    24.8663              414.4000    24.4519    -0.0047
 1297   25.920   4308.47    29.1838                           0.2592    29.3251              414.7200    28.9104     0.0027
 
 
