

 Program UNIPLOT                         version 05.36.02
 _______________
 (c) Fugro Netherlands Marine, Nootdorp, The Netherlands


 ASCII representation of data plotted on a graph.

 This ASCII file presents data interpolated to values per fixed depth interval.
 The data are corrected for the depth-offset differences between the various 
 transducers in the penetrometer.

 The records at the start of penetration may include no values or anomalous
 values where a depth offset implies incomplete penetration of a particular
 sensor into the ground.

 The records at the end of penetration may include no values for data channels
 where the transducer did not reach this depth.

 The reference level for test values is (1) the ground surface for onshore tests and (2) the seafloor for nearshore and offshore tests.

 UNICAS data file          : CPT-2006.000                            
 Output using command file : PlotASCII.cmd

 ASCII file created at : date          :12-Jul-2022
                         time          :16:16:29
 Project number                        :20024805                                                                                            
 Date of testing                       :09-Jul-2022                                                                                         
 Location                              :Hong Kong Offshore Wind Farm Project                                                                
 Test name                             :CPT-2006
 Penetrometer                          :F7.5CKE2HAW2/B/3285
 Serial no                             :1701-3285

 Table description:
 Column ID                             :Parameter name
 ___________________________________________________________________________________
 Rec                                   :Record ID, Record ID [-]
 Depth                                 :Depth, Depth [m]
 Time                                  :Time, Time [s]
 Cone                                  :Cone Resistance, Cone Resistance [MPa]
 Friction                              :Sleeve Friction, Sleeve Friction [MPa]
 Pore 2                                :Porewater Pressure, Porewater Pressure at Shoulder [MPa]
 HydroPress                            :Hydrostatic Pressure, Hydrostatic Pressure [MPa]
 qt                                    :Total Cone Resistance, Total Cone Resistance [MPa]
 Fric_ratio                            :Friction Ratio, Friction Ratio [%]
 SigmaVert                             :Vertical stress, Vertical stress [kPa] as specified in ground model
 Qnet                                  :Net Cone Resistance, Net Cone Resistance [MPa], unit weight as specified in ground model
 Bq                                    :Porewater Pressure Ratio, Porewater Pressure Ratio [-], unit weight as specified in ground model


 Data table:
  Rec    Depth      Time       Cone   Friction     Pore 2 HydroPress         qt Fric_ratio  SigmaVert       Qnet         Bq
   No        m         s        MPa        MPa        MPa        MPa        MPa          %        kPa        MPa          -
    1    0.000   1851.69     0.0000                           0.0000     0.0000                0.0000     0.0000           
    2    0.020   1852.64     0.0032               -0.0001     0.0002     0.0031                0.3200     0.0028    -0.1826
    3    0.040   1853.66     0.0033               -0.0002     0.0004     0.0032                0.6400     0.0025    -0.2960
    4    0.060   1854.67     0.0023     0.0005     0.0000     0.0006     0.0023    42.0118     0.9600     0.0013    -0.4733
    5    0.080   1855.62     0.0005     0.0004     0.0003     0.0008     0.0006    27.4911     1.2800    -0.0007     0.8498
    6    0.100   1856.63     0.0044     0.0003     0.0007     0.0010     0.0046    12.9703     1.6000     0.0030    -0.1886
    7    0.120   1857.61     0.0028     0.0003     0.0008     0.0012     0.0032    18.5213     1.9200     0.0013           
    8    0.140   1858.63     0.0082     0.0005     0.0011     0.0014     0.0086    11.4136     2.2400     0.0063    -0.0638
    9    0.160   1859.64     0.0092     0.0006     0.0013     0.0016     0.0097     6.7730     2.5600     0.0071    -0.0493
   10    0.180   1863.23     0.0104     0.0007     0.0013     0.0018     0.0109     7.6592     2.8800     0.0081    -0.0588
   11    0.200   1866.87     0.0116     0.0006     0.0014     0.0020     0.0122     6.6442     3.2000     0.0090    -0.0691
   12    0.220   1870.28     0.0129     0.0005     0.0015     0.0022     0.0135     4.0480     3.5200     0.0100    -0.0769
   13    0.240   1871.29     0.0129     0.0009     0.0009     0.0024     0.0135     7.0926     3.8400     0.0096    -0.1093
   14    0.260   1872.28     0.0103     0.0006    -0.0002     0.0026     0.0105     5.8743     4.1600     0.0064    -0.3296
   15    0.280   1873.26     0.0144     0.0006    -0.0012     0.0028     0.0141     5.3331     4.4800     0.0096    -0.3503
   16    0.300   1874.26     0.0136     0.0006    -0.0015     0.0030     0.0130     4.5930     4.8000     0.0082    -0.5493
   17    0.320   1875.24     0.0162     0.0009    -0.0035     0.0032     0.0151     6.0984     5.1200     0.0100    -0.5922
   18    0.340   1876.22     0.0202     0.0009    -0.0012     0.0034     0.0195     4.3944     5.4400     0.0140    -0.3590
   19    0.360   1877.17     0.0259     0.0009    -0.0030     0.0036     0.0246     3.8270     5.7600     0.0188    -0.3640
   20    0.380   1878.21     0.0229     0.0011    -0.0008     0.0038     0.0227     4.5121     6.0800     0.0167    -0.2440
   21    0.400   1879.18     0.0227     0.0013    -0.0029     0.0040     0.0220     5.4104     6.4000     0.0156    -0.3586
   22    0.420   1880.12     0.0248     0.0013    -0.0081     0.0042     0.0219     5.1080     6.7200     0.0152    -0.7296
   23    0.440   1881.14     0.0217     0.0013    -0.0062     0.0044     0.0185     6.3901     7.0400     0.0115    -1.0517
   24    0.460   1882.13     0.0193     0.0014    -0.0030     0.0046     0.0177     6.8737     7.3600     0.0104    -0.8097
   25    0.480   1883.08     0.0192     0.0015    -0.0007     0.0048     0.0184     7.6083     7.6800     0.0107    -0.6249
   26    0.500   1884.06     0.0178     0.0014     0.0020     0.0050     0.0183     7.1629     8.0000     0.0103    -0.3759
   27    0.520   1885.07     0.0177     0.0013     0.0035     0.0052     0.0191     7.5950     8.3200     0.0108    -0.1655
   28    0.540   1886.05     0.0191     0.0014     0.0037     0.0054     0.0205     7.7353     8.6400     0.0119    -0.1772
   29    0.560   1887.06     0.0205     0.0015     0.0030     0.0056     0.0219     6.9474     8.9600     0.0130    -0.1803
   30    0.580   1888.06     0.0220     0.0013     0.0025     0.0058     0.0231     5.9944     9.2800     0.0138    -0.2379
   31    0.600   1889.02     0.0239     0.0014     0.0024     0.0060     0.0249     5.6260     9.6000     0.0153    -0.2249
   32    0.620   1890.00     0.0273     0.0011     0.0031     0.0062     0.0284     3.9945     9.9200     0.0185    -0.1916
   33    0.640   1891.00     0.0253     0.0012     0.0048     0.0064     0.0271     4.7702    10.2400     0.0168    -0.1296
   34    0.660   1891.99     0.0269     0.0012     0.0073     0.0066     0.0296     4.3884    10.5600     0.0190    -0.0071
   35    0.680   1892.97     0.0252     0.0012     0.0091     0.0068     0.0288     4.5428    10.8800     0.0180     0.1035
   36    0.700   1893.98     0.0263     0.0012     0.0072     0.0070     0.0297     4.2633    11.2000     0.0185     0.0568
   37    0.720   1894.96     0.0249     0.0012     0.0073     0.0072     0.0278     4.9300    11.5200     0.0163    -0.0096
   38    0.740   1895.93     0.0262     0.0009     0.0074     0.0074     0.0294     3.1824    11.8400     0.0175     0.0043
   39    0.760   1896.92     0.0271     0.0010     0.0074     0.0076     0.0301     3.6209    12.1600     0.0179    -0.0259
   40    0.780   1897.91     0.0276     0.0010     0.0095     0.0078     0.0312     3.5999    12.4800     0.0187     0.0472
   41    0.800   1898.88     0.0301     0.0010     0.0112     0.0080     0.0346     3.3999    12.8000     0.0218     0.1276
   42    0.820   1899.85     0.0286     0.0011     0.0112     0.0082     0.0331     3.9002    13.1200     0.0199     0.1238
   43    0.840   1900.83     0.0327     0.0009     0.0107     0.0084     0.0373     2.5771    13.4400     0.0239     0.1131
   44    0.860   1901.79     0.0317     0.0010     0.0115     0.0086     0.0364     3.2450    13.7600     0.0227     0.1178
   45    0.880   1902.79     0.0319     0.0007     0.0115     0.0088     0.0367     2.1552    14.0800     0.0226     0.1184
   46    0.900   1903.79     0.0335     0.0010     0.0124     0.0090     0.0386     3.0032    14.4000     0.0242     0.1275
   47    0.920   1904.75     0.0336     0.0012     0.0133     0.0092     0.0391     3.4351    14.7200     0.0244     0.1629
   48    0.940   1905.77     0.0339     0.0011     0.0142     0.0094     0.0398     3.3784    15.0400     0.0248     0.1886
   49    0.960   1906.71     0.0319     0.0012     0.0140     0.0096     0.0378     3.6018    15.3600     0.0225     0.2015
   50    0.980   1907.69     0.0337     0.0008     0.0144     0.0098     0.0397     2.5217    15.6800     0.0241     0.1884
   51    1.000   1908.69     0.0329     0.0012     0.0151     0.0100     0.0392     3.5367    16.0000     0.0232     0.2085
   52    1.020   1909.69     0.0333     0.0012     0.0160     0.0102     0.0399     3.5310    16.3200     0.0236     0.2305
   53    1.040   1910.65     0.0341     0.0012     0.0172     0.0104     0.0412     3.4915    16.6400     0.0245     0.2674
   54    1.060   1911.65     0.0377     0.0013     0.0177     0.0106     0.0451     3.5897    16.9600     0.0281     0.2453
   55    1.080   1912.59     0.0371     0.0011     0.0185     0.0108     0.0447     3.1671    17.2800     0.0275     0.2711
   56    1.100   1913.64     0.0357     0.0009     0.0193     0.0110     0.0436     2.5289    17.6000     0.0260     0.2979
   57    1.120   1914.64     0.0344     0.0010     0.0202     0.0112     0.0427     2.8963    17.9200     0.0248     0.3455
   58    1.140   1915.60     0.0353     0.0012     0.0210     0.0114     0.0441     3.4550    18.2400     0.0259     0.3707
   59    1.160   1916.60     0.0330     0.0012     0.0215     0.0116     0.0420     3.6829    18.5600     0.0234     0.4148
   60    1.180   1917.57     0.0339     0.0010     0.0215     0.0118     0.0431     2.8892    18.8800     0.0242     0.4114
   61    1.200   1918.60     0.0361     0.0011     0.0211     0.0120     0.0449     2.9769    19.2000     0.0257     0.3470
   62    1.220   1919.56     0.0388     0.0009     0.0218     0.0122     0.0479     2.2711    19.5200     0.0284     0.3329
   63    1.240   1920.52     0.0394     0.0010     0.0227     0.0124     0.0487     2.6063    19.8400     0.0289     0.3443
   64    1.260   1921.50     0.0396     0.0013     0.0231     0.0126     0.0493     3.2780    20.1600     0.0291     0.3587
   65    1.280   1922.48     0.0385     0.0008     0.0244     0.0128     0.0485     2.0878    20.4800     0.0280     0.3958
   66    1.300   1923.49     0.0419     0.0010     0.0240     0.0130     0.0521     2.3847    20.8000     0.0313     0.3600
   67    1.320   1924.46     0.0400     0.0009     0.0237     0.0132     0.0500     2.1715    21.1200     0.0289     0.3660
   68    1.340   1925.43     0.0416     0.0009     0.0253     0.0134     0.0520     2.1827    21.4400     0.0306     0.3721
   69    1.360   1926.41     0.0400     0.0007     0.0245     0.0136     0.0505     1.8335    21.7600     0.0287     0.3966
   70    1.380   1927.38     0.0423     0.0013     0.0238     0.0138     0.0527     3.2700    22.0800     0.0306     0.3642
   71    1.400   1928.38     0.0441     0.0010     0.0225     0.0140     0.0533     2.1466    22.4000     0.0309     0.2595
   72    1.420   1929.36     0.0446     0.0011     0.0239     0.0142     0.0547     2.4550    22.7200     0.0320     0.3040
   73    1.440   1930.33     0.0452     0.0011     0.0252     0.0144     0.0557     2.4807    23.0400     0.0327     0.3303
   74    1.460   1931.31     0.0472     0.0013     0.0244     0.0146     0.0576     2.6653    23.3600     0.0342     0.2972
   75    1.480   1932.28     0.0454     0.0012     0.0207     0.0148     0.0544     2.5328    23.6800     0.0307     0.2185
   76    1.500   1933.31     0.0467     0.0015     0.0220     0.0150     0.0560     3.1260    24.0000     0.0320     0.2262
   77    1.520   1934.27     0.0500     0.0014     0.0246     0.0152     0.0595     2.8396    24.3200     0.0352     0.2149
   78    1.540   1935.31     0.0533     0.0017     0.0273     0.0154     0.0644     3.3045    24.6400     0.0397     0.2753
   79    1.560   1936.24     0.0617     0.0019     0.0271     0.0156     0.0732     3.1131    24.9600     0.0483     0.2469
   80    1.580   1937.27     0.0677     0.0020     0.0245     0.0158     0.0786     2.9745    25.2800     0.0533     0.1933
   81    1.600   1938.27     0.0729     0.0019     0.0227     0.0160     0.0826     2.6452    25.6000     0.0570     0.1251
   82    1.620   1939.27     0.0719     0.0024     0.0205     0.0162     0.0811     3.3818    25.9200     0.0552     0.1059
   83    1.640   1940.23     0.0739     0.0020     0.0172     0.0164     0.0815     2.7522    26.2400     0.0553     0.0301
   84    1.660   1941.24     0.0673     0.0017     0.0218     0.0166     0.0752     2.5811    26.5600     0.0487     0.0454
   85    1.680   1942.24     0.0697     0.0019     0.0278     0.0168     0.0806     2.7457    26.8800     0.0537     0.1719
   86    1.700   1943.19     0.0711     0.0020     0.0324     0.0170     0.0841     2.7004    27.2000     0.0569     0.2442
   87    1.720   1944.16     0.0764     0.0027     0.0337     0.0172     0.0903     3.5300    27.5200     0.0628     0.2525
   88    1.740   1945.17     0.0853     0.0034     0.0324     0.0174     0.0999     4.2240    27.8400     0.0720     0.2390
   89    1.760   1946.15     0.0822     0.0033     0.0252     0.0176     0.0944     3.8955    28.1600     0.0663     0.1732
   90    1.780   1947.16     0.0799     0.0030     0.0210     0.0178     0.0893     3.4775    28.4800     0.0608     0.0749
   91    1.800   1948.13     0.0754     0.0024     0.0217     0.0180     0.0835     3.0730    28.8000     0.0547     0.0229
   92    1.820   1969.95     0.0778     0.0024     0.0298     0.0182     0.0891     3.1843    29.1200     0.0600     0.1330
   93    1.840   1992.40     0.0804     0.0025     0.0377     0.0184     0.0951     3.3730    29.4400     0.0657     0.2474
   94    1.860   2000.29     0.0834     0.0023     0.0393     0.0186     0.0999     2.7777    29.7600     0.0701     0.2941
   95    1.880   2001.26     0.0866     0.0022     0.0316     0.0188     0.1006     2.5496    30.0800     0.0705     0.2052
   96    1.900   2002.25     0.0868     0.0024     0.0288     0.0190     0.0984     2.8883    30.4000     0.0680     0.1274
   97    1.920   2003.28     0.0997     0.0025     0.0322     0.0192     0.1130     2.7848    30.7200     0.0823     0.1586
   98    1.940   2004.22     0.0948     0.0026     0.0306     0.0194     0.1086     2.0860    31.0400     0.0776     0.1752
   99    1.960   2005.23     0.0984     0.0026     0.0301     0.0196     0.1108     2.4651    31.3600     0.0795     0.1253
  100    1.980   2006.20     0.0881     0.0025     0.0353     0.0198     0.1021     2.8540    31.6800     0.0704     0.1915
  101    2.000   2007.16     0.0810     0.0026     0.0402     0.0200     0.0973     3.0332    32.0000     0.0653     0.2886
  102    2.020   2008.19     0.0838     0.0031     0.0451     0.0202     0.1020     3.7420    32.3200     0.0697     0.3322
  103    2.040   2009.34     0.0889     0.0033     0.0473     0.0204     0.1092     3.9063    32.6400     0.0765     0.3634
  104    2.060   2029.42     0.0999     0.0036     0.0447     0.0206     0.1191     4.0386    32.9600     0.0861     0.3001
  105    2.080   2049.49     0.1109     0.0039     0.0421     0.0208     0.1290     4.3978    33.2800     0.0957     0.2367
  106    2.100   2057.80     0.1146     0.0039     0.0411     0.0210     0.1322     3.4529    33.6000     0.0986     0.2106
  107    2.120   2058.78     0.1223     0.0040     0.0388     0.0212     0.1389     3.3295    33.9200     0.1050     0.1751
  108    2.140   2059.77     0.1228     0.0046     0.0443     0.0214     0.1392     3.7357    34.2400     0.1050     0.1681
  109    2.160   2060.77     0.1248     0.0050     0.0463     0.0216     0.1444     4.0454    34.5600     0.1099     0.2284
  110    2.180   2061.77     0.1239     0.0049     0.0435     0.0218     0.1423     3.9610    34.8800     0.1074     0.2055
  111    2.200   2062.72     0.1224     0.0054     0.0385     0.0220     0.1399     4.4019    35.2000     0.1047     0.1869
  112    2.220   2063.72     0.1185     0.0064     0.0380     0.0222     0.1343     5.3673    35.5200     0.0987     0.1559
  113    2.240   2064.68     0.1081     0.0055     0.0427     0.0224     0.1253     5.0190    35.8400     0.0894     0.2075
  114    2.260   2065.64     0.1013     0.0056     0.0449     0.0226     0.1202     5.4019    36.1600     0.0840     0.2646
  115    2.280   2066.69     0.1182     0.0049     0.0476     0.0228     0.1386     4.6045    36.4800     0.1021     0.2516
  116    2.300   2067.66     0.1322     0.0048     0.0480     0.0230     0.1522     3.8253    36.8000     0.1154     0.2131
  117    2.320   2068.62     0.1509     0.0044     0.0487     0.0232     0.1720     2.9404    37.1200     0.1349     0.2009
  118    2.340   2069.60     0.1361     0.0037     0.0442     0.0234     0.1542     2.6777    37.4400     0.1168     0.1695
  119    2.360   2070.56     0.1213     0.0033     0.0484     0.0236     0.1411     2.7481    37.7600     0.1033     0.2282
  120    2.380   2071.51     0.1143     0.0034     0.0516     0.0238     0.1356     2.9407    38.0800     0.0975     0.2744
  121    2.400   2072.52     0.1119     0.0031     0.0541     0.0240     0.1344     2.7919    38.4000     0.0960     0.3078
  122    2.420   2073.51     0.1077     0.0033     0.0560     0.0242     0.1310     3.0171    38.7200     0.0922     0.3370
  123    2.440   2074.53     0.1081     0.0032     0.0577     0.0244     0.1322     3.0134    39.0400     0.0932     0.3552
  124    2.460   2075.48     0.1049     0.0032     0.0537     0.0246     0.1285     3.0270    39.3600     0.0891     0.3522
  125    2.480   2076.42     0.1036     0.0035     0.0479     0.0248     0.1243     3.3582    39.6800     0.0847     0.2912
  126    2.500   2077.44     0.1019     0.0041     0.0475     0.0250     0.1216     4.0829    40.0000     0.0816     0.2699
  127    2.520   2078.42     0.0984     0.0041     0.0457     0.0252     0.1179     4.1688    40.3200     0.0776     0.2737
  128    2.540   2079.44     0.0975     0.0041     0.0473     0.0254     0.1171     4.2206    40.6400     0.0764     0.2782
  129    2.560   2080.40     0.0990     0.0040     0.0502     0.0256     0.1197     4.1050    40.9600     0.0787     0.3013
  130    2.580   2081.37     0.0966     0.0039     0.0535     0.0258     0.1185     4.0543    41.2800     0.0772     0.3393
  131    2.600   2082.41     0.0930     0.0040     0.0592     0.0260     0.1171     4.3072    41.6000     0.0755     0.4154
  132    2.620   2083.33     0.0975     0.0038     0.0630     0.0262     0.1234     3.8995    41.9200     0.0815     0.4359
  133    2.640   2084.34     0.1017     0.0040     0.0667     0.0264     0.1292     3.9291    42.2400     0.0870     0.4503
  134    2.660   2085.32     0.1024     0.0036     0.0693     0.0266     0.1310     3.5187    42.5600     0.0885     0.4706
  135    2.680   2086.33     0.1036     0.0035     0.0705     0.0268     0.1331     3.3840    42.8800     0.0902     0.4820
  136    2.700   2087.31     0.1057     0.0035     0.0716     0.0270     0.1356     3.2893    43.2000     0.0924     0.4780
  137    2.720   2088.30     0.1032     0.0036     0.0730     0.0272     0.1334     3.5344    43.5200     0.0899     0.4980
  138    2.740   2089.27     0.1035     0.0037     0.0744     0.0274     0.1346     3.5402    43.8400     0.0908     0.5134
  139    2.760   2090.20     0.1032     0.0034     0.0743     0.0276     0.1346     3.3497    44.1600     0.0905     0.5216
  140    2.780   2091.22     0.1036     0.0037     0.0706     0.0278     0.1340     3.5924    44.4800     0.0895     0.4981
  141    2.800   2092.22     0.1045     0.0038     0.0651     0.0280     0.1326     3.5606    44.8000     0.0878     0.4427
  142    2.820   2093.18     0.1071     0.0040     0.0633     0.0282     0.1337     3.7340    45.1200     0.0886     0.3965
  143    2.840   2094.22     0.1051     0.0040     0.0640     0.0284     0.1318     3.7633    45.4400     0.0863     0.4057
  144    2.860   2095.18     0.1040     0.0041     0.0656     0.0286     0.1316     3.9424    45.7600     0.0858     0.4307
  145    2.880   2096.12     0.1060     0.0041     0.0610     0.0288     0.1319     3.8714    46.0800     0.0858     0.3843
  146    2.900   2097.10     0.1037     0.0043     0.0616     0.0290     0.1292     4.1148    46.4000     0.0828     0.3834
  147    2.920   2098.10     0.0990     0.0041     0.0646     0.0292     0.1259     4.0712    46.7200     0.0791     0.4383
  148    2.940   2099.11     0.0990     0.0039     0.0667     0.0294     0.1266     3.9135    47.0400     0.0796     0.4588
  149    2.960   2100.12     0.0992     0.0037     0.0690     0.0296     0.1279     3.6657    47.3600     0.0805     0.4792
  150    2.980   2101.07     0.0988     0.0035     0.0710     0.0298     0.1283     3.5201    47.6800     0.0806     0.5024
  151    3.000   2102.06     0.0996     0.0037     0.0729     0.0300     0.1301     3.7607    48.0000     0.0821     0.5196
  152    3.020   2103.01     0.1026     0.0040     0.0719     0.0302     0.1334     3.9735    48.3200     0.0851     0.5066
  153    3.040   2103.99     0.1033     0.0041     0.0650     0.0304     0.1315     3.9644    48.6400     0.0828     0.4442
  154    3.060   2105.01     0.1008     0.0040     0.0599     0.0306     0.1264     3.9386    48.9600     0.0774     0.3906
  155    3.080   2106.02     0.1011     0.0039     0.0606     0.0308     0.1265     3.8145    49.2800     0.0772     0.3835
  156    3.100   2107.00     0.0989     0.0042     0.0631     0.0310     0.1250     4.2496    49.6000     0.0754     0.4137
  157    3.120   2108.00     0.0970     0.0038     0.0661     0.0312     0.1243     3.9844    49.9200     0.0744     0.4551
  158    3.140   2108.99     0.0974     0.0039     0.0683     0.0314     0.1258     3.9970    50.2400     0.0755     0.4792
  159    3.160   2109.98     0.0963     0.0036     0.0696     0.0316     0.1254     3.7188    50.5600     0.0749     0.5029
  160    3.180   2110.91     0.0974     0.0036     0.0710     0.0318     0.1271     3.6478    50.8800     0.0762     0.5102
  161    3.200   2111.92     0.0977     0.0036     0.0710     0.0320     0.1273     3.5895    51.2000     0.0761     0.5084
  162    3.220   2112.90     0.0986     0.0036     0.0722     0.0322     0.1286     3.6903    51.5200     0.0771     0.5091
  163    3.240   2113.89     0.0996     0.0033     0.0709     0.0324     0.1301     3.3346    51.8400     0.0782     0.5130
  164    3.260   2114.91     0.0971     0.0035     0.0668     0.0326     0.1256     3.6504    52.1600     0.0734     0.4790
  165    3.280   2115.88     0.0973     0.0035     0.0670     0.0328     0.1253     3.5468    52.4800     0.0728     0.4657
  166    3.300   2116.87     0.0974     0.0035     0.0681     0.0330     0.1258     3.5547    52.8000     0.0730     0.4738
  167    3.320   2117.84     0.0994     0.0038     0.0681     0.0332     0.1280     3.8336    53.1200     0.0748     0.4657
  168    3.340   2118.80     0.0979     0.0039     0.0679     0.0334     0.1265     4.0258    53.4400     0.0730     0.4740
  169    3.360   2119.78     0.0970     0.0039     0.0680     0.0336     0.1255     3.9899    53.7600     0.0718     0.4782
  170    3.380   2120.76     0.0963     0.0040     0.0679     0.0338     0.1247     4.1758    54.0800     0.0706     0.4778
  171    3.400   2121.74     0.0927     0.0040     0.0679     0.0340     0.1212     4.2829    54.4000     0.0668     0.5059
  172    3.420   2122.75     0.0923     0.0037     0.0653     0.0342     0.1200     3.9854    54.7200     0.0653     0.4857
  173    3.440   2123.77     0.0959     0.0037     0.0687     0.0344     0.1243     3.8923    55.0400     0.0692     0.4773
  174    3.460   2124.74     0.0956     0.0035     0.0730     0.0346     0.1257     3.6264    55.3600     0.0703     0.5263
  175    3.480   2125.74     0.0916     0.0036     0.0754     0.0348     0.1231     3.8818    55.6800     0.0674     0.5950
  176    3.500   2126.65     0.0925     0.0037     0.0754     0.0350     0.1242     3.9736    56.0000     0.0682     0.5940
  177    3.520   2127.69     0.0917     0.0038     0.0745     0.0352     0.1230     4.0885    56.3200     0.0667     0.5925
  178    3.540   2128.69     0.0894     0.0038     0.0727     0.0354     0.1202     4.1343    56.6400     0.0635     0.5955
  179    3.560   2129.66     0.0924     0.0039     0.0733     0.0356     0.1227     4.1801    56.9600     0.0658     0.5577
  180    3.580   2130.68     0.0919     0.0039     0.0751     0.0358     0.1233     4.1652    57.2800     0.0660     0.5887
  181    3.600   2131.67     0.0928     0.0037     0.0780     0.0360     0.1251     4.0333    57.6000     0.0675     0.6047
  182    3.620   2143.14     0.0932     0.0035     0.0787     0.0362     0.1262     3.8218    57.9200     0.0683     0.6242
  183    3.640   2164.60     0.0979     0.0037     0.0788     0.0364     0.1310     4.0316    58.2400     0.0727     0.5882
  184    3.660   2186.07     0.1026     0.0037     0.0790     0.0366     0.1358     4.0379    58.5600     0.0772     0.5522
  185    3.680   2200.96     0.1061     0.0033     0.0795     0.0368     0.1395     3.1328    58.8800     0.0807     0.5294
  186    3.700   2201.92     0.1083     0.0032     0.0778     0.0370     0.1411     2.8993    59.2000     0.0819     0.5023
  187    3.720   2202.90     0.1109     0.0032     0.0785     0.0372     0.1436     2.8595    59.5200     0.0841     0.4841
  188    3.740   2203.92     0.1112     0.0036     0.0810     0.0374     0.1448     3.2638    59.8400     0.0849     0.5001
  189    3.760   2204.90     0.1138     0.0036     0.0839     0.0376     0.1486     3.1746    60.1600     0.0884     0.5123
  190    3.780   2205.87     0.1168     0.0038     0.0821     0.0378     0.1517     3.2665    60.4800     0.0912     0.4979
  191    3.800   2206.87     0.1180     0.0039     0.0786     0.0380     0.1515     3.3582    60.8000     0.0907     0.4604
  192    3.820   2207.83     0.1181     0.0036     0.0760     0.0382     0.1506     3.0476    61.1200     0.0895     0.4382
  193    3.840   2208.79     0.1172     0.0039     0.0762     0.0384     0.1491     3.2901    61.4400     0.0877     0.4271
  194    3.860   2209.80     0.1166     0.0039     0.0798     0.0386     0.1491     3.3545    61.7600     0.0873     0.4434
  195    3.880   2210.76     0.1192     0.0040     0.0854     0.0388     0.1544     3.3728    62.0800     0.0923     0.4882
  196    3.900   2211.75     0.1209     0.0038     0.0893     0.0390     0.1580     3.1382    62.4000     0.0956     0.5167
  197    3.920   2212.72     0.1241     0.0037     0.0912     0.0392     0.1621     2.9608    62.7200     0.0994     0.5171
  198    3.940   2213.70     0.1232     0.0037     0.0917     0.0394     0.1616     2.9819    63.0400     0.0985     0.5281
  199    3.960   2214.72     0.1242     0.0039     0.0925     0.0396     0.1629     3.1891    63.3600     0.0996     0.5272
  200    3.980   2215.71     0.1263     0.0038     0.0928     0.0398     0.1653     3.0677    63.6800     0.1016     0.5220
  201    4.000   2216.71     0.1285     0.0043     0.0932     0.0400     0.1675     3.3255    64.0000     0.1035     0.5102
  202    4.020   2217.63     0.1308     0.0043     0.0942     0.0402     0.1706     3.2760    64.3200     0.1063     0.5136
  203    4.040   2218.67     0.1280     0.0043     0.0908     0.0404     0.1669     3.3692    64.6400     0.1023     0.5105
  204    4.060   2219.64     0.1346     0.0045     0.0921     0.0406     0.1730     3.3194    64.9600     0.1081     0.4706
  205    4.080   2220.64     0.1354     0.0045     0.0915     0.0408     0.1739     3.3173    65.2800     0.1086     0.4672
  206    4.100   2221.63     0.1362     0.0045     0.0913     0.0410     0.1743     3.3175    65.6000     0.1087     0.4581
  207    4.120   2222.65     0.1393     0.0044     0.0918     0.0412     0.1780     3.1523    65.9200     0.1120     0.4532
  208    4.140   2223.60     0.1388     0.0046     0.0910     0.0414     0.1770     3.2923    66.2400     0.1108     0.4478
  209    4.160   2224.60     0.1382     0.0043     0.0904     0.0416     0.1764     3.1265    66.5600     0.1098     0.4480
  210    4.180   2225.64     0.1385     0.0046     0.0864     0.0418     0.1743     3.3034    66.8800     0.1074     0.4045
  211    4.200   2226.61     0.1381     0.0045     0.0910     0.0420     0.1757     3.2814    67.2000     0.1085     0.4381
  212    4.220   2227.57     0.1397     0.0048     0.0939     0.0422     0.1786     3.4144    67.5200     0.1111     0.4552
  213    4.240   2228.53     0.1429     0.0049     0.0953     0.0424     0.1830     3.4457    67.8400     0.1152     0.4602
  214    4.260   2229.53     0.1452     0.0048     0.0924     0.0426     0.1849     3.3259    68.1600     0.1167     0.4437
  215    4.280   2230.54     0.1442     0.0047     0.0939     0.0428     0.1830     3.2610    68.4800     0.1145     0.4331
  216    4.300   2231.49     0.1450     0.0049     0.0963     0.0430     0.1851     3.3975    68.8000     0.1163     0.4521
  217    4.320   2232.49     0.1440     0.0049     0.0923     0.0432     0.1835     3.4296    69.1200     0.1144     0.4434
  218    4.340   2233.46     0.1487     0.0053     0.0923     0.0434     0.1874     3.5364    69.4400     0.1179     0.4127
  219    4.360   2234.45     0.1493     0.0056     0.0932     0.0436     0.1882     3.8142    69.7600     0.1185     0.4136
  220    4.380   2235.44     0.1544     0.0059     0.0891     0.0438     0.1926     3.8058    70.0800     0.1225     0.3850
  221    4.400   2236.42     0.1540     0.0059     0.0819     0.0440     0.1899     3.8400    70.4000     0.1195     0.3472
  222    4.420   2237.45     0.1509     0.0056     0.0787     0.0442     0.1838     3.7065    70.7200     0.1131     0.3008
  223    4.440   2238.48     0.1408     0.0056     0.0839     0.0444     0.1752     3.8858    71.0400     0.1042     0.3617
  224    4.460   2239.50     0.1371     0.0057     0.0889     0.0446     0.1737     4.0811    71.3600     0.1024     0.4155
  225    4.480   2240.48     0.1346     0.0050     0.0950     0.0448     0.1736     3.6918    71.6800     0.1019     0.4714
  226    4.500   2241.46     0.1361     0.0048     0.0999     0.0450     0.1774     3.5944    72.0000     0.1054     0.5056
  227    4.520   2242.46     0.1374     0.0044     0.1034     0.0452     0.1804     3.2082    72.3200     0.1081     0.5293
  228    4.540   2243.43     0.1387     0.0037     0.1049     0.0454     0.1825     2.6375    72.6400     0.1099     0.5377
  229    4.560   2244.42     0.1404     0.0040     0.1059     0.0456     0.1849     2.8340    72.9600     0.1119     0.5385
  230    4.580   2245.42     0.1405     0.0038     0.1022     0.0458     0.1839     2.7404    73.2800     0.1106     0.5210
  231    4.600   2246.41     0.1422     0.0038     0.0989     0.0460     0.1841     2.6978    73.6000     0.1105     0.4854
  232    4.620   2247.41     0.1384     0.0041     0.0975     0.0462     0.1796     3.0064    73.9200     0.1057     0.4908
  233    4.640   2248.39     0.1391     0.0046     0.0889     0.0464     0.1780     3.3934    74.2400     0.1038     0.4474
  234    4.660   2249.37     0.1384     0.0046     0.0836     0.0466     0.1739     3.3167    74.5600     0.0994     0.3829
  235    4.680   2250.34     0.1370     0.0047     0.0804     0.0468     0.1709     3.4386    74.8800     0.0960     0.3525
  236    4.700   2251.33     0.1349     0.0046     0.0852     0.0470     0.1699     3.3956    75.2000     0.0947     0.3828
  237    4.720   2252.34     0.1312     0.0048     0.0896     0.0472     0.1684     3.6232    75.5200     0.0929     0.4456
  238    4.740   2253.33     0.1252     0.0045     0.0921     0.0474     0.1636     3.5946    75.8400     0.0878     0.5025
  239    4.760   2254.32     0.1284     0.0043     0.0960     0.0476     0.1682     3.3805    76.1600     0.0921     0.5124
  240    4.780   2255.29     0.1328     0.0042     0.0992     0.0478     0.1740     3.2477    76.4800     0.0975     0.5160
  241    4.800   2256.26     0.1465     0.0045     0.1005     0.0480     0.1889     3.0991    76.8000     0.1121     0.4741
  242    4.820   2257.23     0.1569     0.0045     0.0986     0.0482     0.1986     2.9077    77.1200     0.1215     0.4202
  243    4.840   2258.23     0.1615     0.0049     0.0998     0.0484     0.2027     3.0619    77.4400     0.1253     0.3968
  244    4.860   2259.19     0.1666     0.0053     0.0950     0.0486     0.2080     3.2355    77.7600     0.1302     0.3832
  245    4.880   2260.19     0.1680     0.0053     0.0895     0.0488     0.2064     3.1737    78.0800     0.1283     0.3328
  246    4.900   2261.20     0.1662     0.0054     0.0916     0.0490     0.2039     3.2583    78.4000     0.1255     0.3240
  247    4.920   2262.15     0.1607     0.0054     0.0987     0.0492     0.2010     3.4004    78.7200     0.1223     0.3836
  248    4.940   2263.16     0.1568     0.0056     0.1056     0.0494     0.2002     3.5734    79.0400     0.1212     0.4462
  249    4.960   2264.12     0.1592     0.0053     0.1100     0.0496     0.2050     3.3294    79.3600     0.1256     0.4719
  250    4.980   2265.08     0.1589     0.0050     0.1080     0.0498     0.2044     3.1607    79.6800     0.1247     0.4686
  251    5.000   2266.09     0.1605     0.0049     0.1081     0.0500     0.2062     3.0281    80.0000     0.1262     0.4664
  252    5.020   2267.08     0.1691     0.0049     0.1071     0.0502     0.2135     2.9408    80.3200     0.1331     0.4157
  253    5.040   2268.08     0.1723     0.0053     0.1077     0.0504     0.2182     3.0795    80.6400     0.1376     0.4283
  254    5.060   2269.06     0.1759     0.0055     0.1031     0.0506     0.2196     3.1153    80.9600     0.1387     0.3864
  255    5.080   2270.07     0.1780     0.0056     0.0997     0.0508     0.2206     3.1185    81.2800     0.1393     0.3631
  256    5.100   2271.07     0.1768     0.0056     0.0969     0.0510     0.2176     3.1558    81.6000     0.1360     0.3395
  257    5.120   2272.04     0.1711     0.0054     0.0985     0.0512     0.2122     3.1146    81.9200     0.1302     0.3580
  258    5.140   2273.05     0.1688     0.0056     0.0997     0.0514     0.2102     3.3121    82.2400     0.1280     0.3688
  259    5.160   2274.01     0.1677     0.0054     0.1077     0.0516     0.2117     3.1945    82.5600     0.1292     0.4118
  260    5.180   2275.00     0.1691     0.0054     0.1088     0.0518     0.2150     3.2184    82.8800     0.1321     0.4361
  261    5.200   2275.98     0.1690     0.0052     0.1090     0.0520     0.2146     3.0789    83.2000     0.1314     0.4309
  262    5.220   2276.97     0.1701     0.0051     0.1101     0.0522     0.2160     3.0096    83.5200     0.1325     0.4319
  263    5.240   2277.97     0.1663     0.0050     0.1133     0.0524     0.2135     3.0001    83.8400     0.1296     0.4630
  264    5.260   2278.96     0.1698     0.0051     0.1138     0.0526     0.2177     3.0433    84.1600     0.1336     0.4609
  265    5.280   2279.94     0.1690     0.0055     0.1136     0.0528     0.2165     3.2360    84.4800     0.1320     0.4574
  266    5.300   2280.92     0.1722     0.0057     0.1113     0.0530     0.2194     3.2944    84.8000     0.1346     0.4406
  267    5.320   2281.87     0.1699     0.0056     0.1090     0.0532     0.2160     3.2721    85.1200     0.1309     0.4316
  268    5.340   2282.87     0.1696     0.0057     0.1046     0.0534     0.2141     3.3304    85.4400     0.1287     0.4087
  269    5.360   2283.85     0.1668     0.0059     0.1071     0.0536     0.2110     3.5091    85.7600     0.1252     0.4132
  270    5.380   2284.85     0.1626     0.0059     0.1114     0.0538     0.2089     3.6403    86.0800     0.1228     0.4592
  271    5.400   2285.85     0.1639     0.0061     0.1081     0.0540     0.2097     3.7301    86.4000     0.1233     0.4475
  272    5.420   2286.81     0.1631     0.0060     0.1094     0.0542     0.2087     3.6699    86.7200     0.1219     0.4453
  273    5.440   2287.80     0.1660     0.0060     0.1148     0.0544     0.2134     3.6192    87.0400     0.1263     0.4627
  274    5.460   2288.79     0.1651     0.0061     0.1171     0.0546     0.2142     3.7029    87.3600     0.1268     0.4919
  275    5.480   2289.65     0.1656     0.0055     0.1191     0.0548     0.2154     3.3101    87.6800     0.1277     0.4991
  276    5.500   2290.56     0.1662     0.0058     0.1172     0.0550     0.2164     3.4436    88.0000     0.1284     0.5036
  277    5.520   2355.12     0.1696     0.0058     0.1070     0.0552     0.2160     3.5209    88.3200     0.1277     0.4331
  278    5.540   2426.91     0.1739     0.0056     0.0967     0.0554     0.2160     3.3328    88.6400     0.1274     0.3521
  279    5.560   2452.38     0.1705     0.0057     0.0954     0.0556     0.2110     3.3368    88.9600     0.1221     0.3347
  280    5.580   2453.41     0.1663     0.0060     0.0938     0.0558     0.2055     3.6167    89.2800     0.1163     0.3244
  281    5.600   2454.40     0.1593     0.0058     0.0996     0.0560     0.2002     3.6232    89.6000     0.1106     0.3741
  282    5.620   2455.40     0.1545     0.0053     0.1047     0.0562     0.1974     3.3820    89.9200     0.1075     0.4292
  283    5.640   2456.39     0.1486     0.0055     0.1089     0.0564     0.1940     3.6887    90.2400     0.1037     0.4970
  284    5.660   2457.38     0.1464     0.0052     0.1135     0.0566     0.1932     3.5048    90.5600     0.1026     0.5347
  285    5.680   2458.37     0.1480     0.0051     0.1183     0.0568     0.1970     3.4525    90.8800     0.1061     0.5636
  286    5.700   2459.35     0.1524     0.0047     0.1230     0.0570     0.2033     3.0923    91.2000     0.1121     0.5716
  287    5.720   2460.34     0.1563     0.0046     0.1267     0.0572     0.2090     2.9827    91.5200     0.1175     0.5814
  288    5.740   2461.21     0.1595     0.0046     0.1289     0.0574     0.2134     2.8946    91.8400     0.1216     0.5846
  289    5.760   2461.99     0.1602     0.0045     0.1271     0.0576     0.2140     2.8198    92.1600     0.1218     0.5789
  290    5.780   2462.87     0.1651     0.0045     0.1269     0.0578     0.2181     2.7200    92.4800     0.1256     0.5444
  291    5.800   2463.75     0.1682     0.0046     0.1312     0.0580     0.2226     2.7734    92.8000     0.1298     0.5507
  292    5.820   2464.75     0.1713     0.0050     0.1274     0.0582     0.2259     2.9144    93.1200     0.1328     0.5424
  293    5.840   2465.77     0.1785     0.0049     0.1244     0.0584     0.2317     2.7386    93.4400     0.1382     0.4937
  294    5.860   2466.71     0.1793     0.0050     0.1204     0.0586     0.2299     2.7830    93.7600     0.1362     0.4542
  295    5.880   2467.69     0.1840     0.0050     0.1190     0.0588     0.2342     2.7425    94.0800     0.1401     0.4332
  296    5.900   2468.69     0.1774     0.0051     0.1218     0.0590     0.2276     2.8906    94.4000     0.1332     0.4546
  297    5.920   2469.67     0.1742     0.0049     0.1292     0.0592     0.2273     2.8118    94.7200     0.1326     0.5078
  298    5.940   2470.67     0.1786     0.0050     0.1312     0.0594     0.2335     2.8320    95.0400     0.1384     0.5141
  299    5.960   2471.65     0.1819     0.0049     0.1289     0.0596     0.2360     2.6748    95.3600     0.1407     0.4932
  300    5.980   2472.67     0.1870     0.0052     0.1266     0.0598     0.2411     2.7777    95.6800     0.1454     0.4754
  301    6.000   2473.61     0.1868     0.0051     0.1227     0.0600     0.2388     2.7287    96.0000     0.1428     0.4460
  302    6.020   2474.61     0.1868     0.0055     0.1193     0.0602     0.2374     2.9289    96.3200     0.1410     0.4259
  303    6.040   2475.64     0.1883     0.0056     0.1212     0.0604     0.2389     2.9719    96.6400     0.1423     0.4228
  304    6.060   2476.59     0.1876     0.0058     0.1237     0.0606     0.2389     3.0784    96.9600     0.1420     0.4346
  305    6.080   2477.62     0.1859     0.0059     0.1277     0.0608     0.2391     3.1413    97.2800     0.1419     0.4649
  306    6.100   2478.60     0.1873     0.0063     0.1302     0.0610     0.2416     3.3873    97.6000     0.1440     0.4746
  307    6.120   2479.58     0.1821     0.0059     0.1290     0.0612     0.2369     3.2289    97.9200     0.1390     0.4998
  308    6.140   2481.86     0.1828     0.0058     0.1267     0.0614     0.2361     3.1536    98.2400     0.1379     0.4747
  309    6.160   2486.23     0.1816     0.0055     0.1261     0.0616     0.2346     2.9747    98.5600     0.1361     0.4755
  310    6.180   2490.28     0.1811     0.0054     0.1269     0.0618     0.2340     2.9986    98.8800     0.1351     0.4756
  311    6.200   2491.24     0.1829     0.0056     0.1314     0.0620     0.2375     3.0491    99.2000     0.1383     0.4919
  312    6.220   2492.27     0.1830     0.0054     0.1350     0.0622     0.2393     2.9556    99.5200     0.1398     0.5138
  313    6.240   2493.26     0.1852     0.0055     0.1374     0.0624     0.2427     2.9696    99.8400     0.1429     0.5209
  314    6.260   2494.23     0.1868     0.0053     0.1360     0.0626     0.2441     2.8472   100.1600     0.1439     0.5122
  315    6.280   2495.25     0.1904     0.0053     0.1346     0.0628     0.2469     2.7947   100.4800     0.1464     0.4895
  316    6.300   2496.22     0.1889     0.0055     0.1353     0.0630     0.2457     2.9035   100.8000     0.1449     0.4975
  317    6.320   2497.17     0.1919     0.0053     0.1370     0.0632     0.2490     2.7681   101.1200     0.1479     0.4921
  318    6.340   2498.13     0.1870     0.0054     0.1412     0.0634     0.2457     2.8732   101.4400     0.1443     0.5298
  319    6.360   2499.10     0.1799     0.0054     0.1436     0.0636     0.2399     3.0006   101.7600     0.1381     0.5738
  320    6.380   2500.13     0.1800     0.0052     0.1446     0.0638     0.2404     2.8989   102.0800     0.1383     0.5789
  321    6.400   2501.07     0.1757     0.0051     0.1441     0.0640     0.2365     2.9223   102.4000     0.1341     0.6015
  322    6.420   2502.08     0.1757     0.0053     0.1455     0.0642     0.2364     3.0088   102.7200     0.1337     0.6019
  323    6.440   2503.06     0.1733     0.0050     0.1478     0.0644     0.2350     2.8913   103.0400     0.1319     0.6247
  324    6.460   2503.98     0.1703     0.0049     0.1503     0.0646     0.2331     2.8828   103.3600     0.1297     0.6551
  325    6.480   2505.03     0.1725     0.0047     0.1525     0.0648     0.2362     2.7317   103.6800     0.1325     0.6561
  326    6.500   2505.99     0.1784     0.0051     0.1559     0.0650     0.2433     2.8782   104.0000     0.1393     0.6436
  327    6.520   2506.96     0.1875     0.0055     0.1578     0.0652     0.2537     2.9184   104.3200     0.1493     0.6177
  328    6.540   2507.90     0.1975     0.0057     0.1516     0.0654     0.2627     2.8854   104.6400     0.1580     0.5678
  329    6.560   2508.93     0.2034     0.0063     0.1413     0.0656     0.2635     3.1227   104.9600     0.1586     0.4892
  330    6.580   2509.93     0.2058     0.0069     0.1355     0.0658     0.2632     3.4228   105.2800     0.1579     0.4483
  331    6.600   2510.93     0.2034     0.0074     0.1411     0.0660     0.2613     3.6582   105.6000     0.1557     0.4609
  332    6.620   2511.92     0.2060     0.0073     0.1481     0.0662     0.2673     3.5756   105.9200     0.1614     0.4949
  333    6.640   2512.91     0.2097     0.0072     0.1537     0.0664     0.2736     3.4396   106.2400     0.1674     0.5128
  334    6.660   2517.37     0.2108     0.0068     0.1510     0.0666     0.2752     3.2467   106.5600     0.1686     0.5154
  335    6.680   2534.56     0.2181     0.0069     0.1441     0.0668     0.2796     3.2877   106.8800     0.1728     0.4633
  336    6.700   2551.75     0.2254     0.0068     0.1386     0.0670     0.2841     3.2686   107.2000     0.1769     0.4112
  337    6.720   2556.17     0.2273     0.0072     0.1428     0.0672     0.2868     3.1771   107.5200     0.1793     0.4147
  338    6.740   2556.81     0.2268     0.0066     0.1479     0.0674     0.2880     2.9150   107.8400     0.1802     0.4342
  339    6.760   2557.46     0.2319     0.0066     0.1523     0.0676     0.2954     2.8642   108.1600     0.1873     0.4469
  340    6.780   2558.11     0.2272     0.0066     0.1440     0.0678     0.2868     2.8898   108.4800     0.1784     0.4153
  341    6.800   2558.77     0.2240     0.0066     0.1560     0.0680     0.2888     2.9588   108.8000     0.1800     0.4790
  342    6.820   2559.38     0.2217     0.0066     0.1591     0.0682     0.2882     2.9482   109.1200     0.1791     0.5033
  343    6.840   2560.02     0.2240     0.0065     0.1626     0.0684     0.2917     2.9373   109.4400     0.1823     0.5097
  344    6.860   2560.62     0.2277     0.0064     0.1668     0.0686     0.2973     2.8407   109.7600     0.1875     0.5180
  345    6.880   2561.25     0.2248     0.0064     0.1690     0.0688     0.2956     2.8392   110.0800     0.1855     0.5368
  346    6.900   2561.89     0.2245     0.0064     0.1721     0.0690     0.2963     2.8378   110.4000     0.1859     0.5484
  347    6.920   2562.50     0.2255     0.0066     0.1739     0.0692     0.2984     2.9541   110.7200     0.1876     0.5552
  348    6.940   2563.13     0.2282     0.0069     0.1730     0.0694     0.3015     3.0604   111.0400     0.1904     0.5516
  349    6.960   2565.25     0.2321     0.0070     0.1653     0.0696     0.3031     3.0304   111.3600     0.1918     0.5187
  350    6.980   2579.91     0.2306     0.0069     0.1541     0.0698     0.2969     2.9753   111.6800     0.1853     0.4731
  351    7.000   2594.57     0.2291     0.0070     0.1429     0.0700     0.2908     3.0030   112.0000     0.1788     0.4275
  352    7.020   2602.19     0.2245     0.0066     0.1462     0.0702     0.2849     2.9480   112.3200     0.1725     0.4262
  353    7.040   2603.18     0.2205     0.0063     0.1547     0.0704     0.2844     2.8719   112.6400     0.1718     0.4760
  354    7.060   2604.21     0.2162     0.0063     0.1612     0.0706     0.2830     2.9048   112.9600     0.1700     0.5201
  355    7.080   2605.18     0.2155     0.0064     0.1656     0.0708     0.2847     2.9625   113.2800     0.1715     0.5485
  356    7.100   2606.16     0.2162     0.0059     0.1662     0.0710     0.2861     2.6994   113.6000     0.1725     0.5536
  357    7.120   2607.17     0.2176     0.0059     0.1674     0.0712     0.2877     2.6995   113.9200     0.1738     0.5513
  358    7.140   2608.22     0.2167     0.0060     0.1653     0.0714     0.2863     2.7729   114.2400     0.1721     0.5487
  359    7.160   2609.20     0.2140     0.0061     0.1638     0.0716     0.2833     2.8271   114.5600     0.1688     0.5532
  360    7.180   2610.18     0.2202     0.0066     0.1613     0.0718     0.2884     3.0056   114.8800     0.1735     0.5225
  361    7.200   2611.17     0.2168     0.0063     0.1593     0.0720     0.2835     2.9366   115.2000     0.1683     0.5153
  362    7.220   2612.18     0.2125     0.0063     0.1613     0.0722     0.2803     2.9691   115.5200     0.1648     0.5425
  363    7.240   2613.14     0.2094     0.0064     0.1601     0.0724     0.2769     3.0303   115.8400     0.1611     0.5485
  364    7.260   2614.14     0.2092     0.0064     0.1603     0.0726     0.2766     3.0733   116.1600     0.1604     0.5468
  365    7.280   2615.14     0.2106     0.0063     0.1597     0.0728     0.2777     2.9842   116.4800     0.1612     0.5388
  366    7.300   2616.15     0.2074     0.0062     0.1601     0.0730     0.2746     3.0054   116.8000     0.1578     0.5512
  367    7.320   2617.12     0.2034     0.0061     0.1623     0.0732     0.2711     3.0058   117.1200     0.1539     0.5705
  368    7.340   2618.07     0.2019     0.0062     0.1644     0.0734     0.2707     3.0595   117.4400     0.1533     0.5905
  369    7.360   2619.08     0.2014     0.0060     0.1684     0.0736     0.2715     2.9931   117.7600     0.1537     0.6062
  370    7.380   2620.08     0.1982     0.0058     0.1738     0.0738     0.2704     2.9603   118.0800     0.1523     0.6445
  371    7.400   2621.11     0.2013     0.0060     0.1751     0.0740     0.2753     2.9562   118.4000     0.1569     0.6510
  372    7.420   2622.04     0.2008     0.0055     0.1780     0.0742     0.2748     2.7086   118.7200     0.1561     0.6533
  373    7.440   2623.14     0.2070     0.0059     0.1837     0.0744     0.2834     2.8450   119.0400     0.1644     0.6538
  374    7.460   2624.11     0.2143     0.0054     0.1871     0.0746     0.2928     2.5133   119.3600     0.1734     0.6475
  375    7.480   2625.06     0.2168     0.0054     0.1864     0.0748     0.2953     2.4784   119.6800     0.1757     0.6387
  376    7.500   2626.04     0.2170     0.0060     0.1855     0.0750     0.2957     2.6958   120.0000     0.1757     0.6390
  377    7.520   2627.02     0.2285     0.0067     0.1827     0.0752     0.3052     2.9385   120.3200     0.1849     0.5808
  378    7.540   2628.03     0.2303     0.0072     0.1817     0.0754     0.3068     3.1031   120.6400     0.1861     0.5733
  379    7.560   2629.04     0.2359     0.0074     0.1761     0.0756     0.3111     3.1486   120.9600     0.1902     0.5443
  380    7.580   2630.05     0.2404     0.0072     0.1701     0.0758     0.3121     2.9982   121.2800     0.1908     0.4976
  381    7.600   2640.19     0.2404     0.0072     0.1708     0.0760     0.3121     3.0110   121.6000     0.1905     0.4973
  382    7.620   2667.55     0.2421     0.0072     0.1711     0.0762     0.3140     3.0156   121.9200     0.1920     0.4937
  383    7.640   2694.90     0.2439     0.0072     0.1726     0.0764     0.3159     2.9532   122.2400     0.1936     0.4902
  384    7.660   2697.12     0.2439     0.0071     0.1768     0.0766     0.3175     2.8999   122.5600     0.1950     0.5064
  385    7.680   2698.10     0.2425     0.0066     0.1810     0.0768     0.3178     2.7192   122.8800     0.1950     0.5268
  386    7.700   2699.12     0.2447     0.0066     0.1856     0.0770     0.3219     2.6783   123.2000     0.1987     0.5372
  387    7.720   2700.10     0.2446     0.0066     0.1871     0.0772     0.3235     2.6905   123.5200     0.1999     0.5528
  388    7.740   2701.06     0.2475     0.0067     0.1880     0.0774     0.3260     2.7295   123.8400     0.2022     0.5412
  389    7.760   2702.09     0.2501     0.0070     0.1895     0.0776     0.3295     2.8051   124.1600     0.2054     0.5430
  390    7.780   2703.07     0.2533     0.0068     0.1921     0.0778     0.3337     2.6896   124.4800     0.2092     0.5434
  391    7.800   2704.06     0.2563     0.0073     0.1868     0.0780     0.3357     2.8667   124.8000     0.2109     0.5265
  392    7.820   2705.08     0.2548     0.0071     0.1843     0.0782     0.3321     2.8054   125.1200     0.2069     0.5111
  393    7.840   2706.06     0.2522     0.0074     0.1856     0.0784     0.3300     2.9222   125.4400     0.2045     0.5221
  394    7.860   2707.05     0.2560     0.0075     0.1904     0.0786     0.3351     2.9174   125.7600     0.2093     0.5244
  395    7.880   2708.02     0.2532     0.0071     0.1959     0.0788     0.3350     2.8070   126.0800     0.2089     0.5541
  396    7.900   2709.00     0.2558     0.0071     0.1999     0.0790     0.3392     2.7697   126.4000     0.2128     0.5623
  397    7.920   2710.01     0.2576     0.0070     0.1950     0.0792     0.3399     2.7166   126.7200     0.2132     0.5480
  398    7.940   2711.00     0.2588     0.0069     0.1986     0.0794     0.3417     2.6786   127.0400     0.2147     0.5493
  399    7.960   2712.02     0.2574     0.0072     0.2016     0.0796     0.3417     2.7959   127.3600     0.2143     0.5645
  400    7.980   2712.99     0.2614     0.0074     0.2043     0.0798     0.3472     2.8392   127.6800     0.2195     0.5670
  401    8.000   2714.00     0.2689     0.0072     0.1943     0.0800     0.3522     2.7041   128.0000     0.2242     0.5279
  402    8.020   2714.99     0.2659     0.0069     0.1909     0.0802     0.3458     2.5982   128.3200     0.2175     0.5061
  403    8.040   2715.99     0.2609     0.0068     0.1969     0.0804     0.3426     2.6070   128.6400     0.2139     0.5336
  404    8.060   2716.99     0.2597     0.0074     0.2030     0.0806     0.3445     2.8523   128.9600     0.2155     0.5623
  405    8.080   2717.95     0.2551     0.0070     0.2055     0.0808     0.3411     2.7451   129.2800     0.2118     0.5848
  406    8.100   2718.96     0.2510     0.0070     0.2083     0.0810     0.3379     2.7935   129.6000     0.2083     0.6044
  407    8.120   2719.96     0.2511     0.0069     0.2087     0.0812     0.3391     2.7493   129.9200     0.2092     0.6136
  408    8.140   2720.98     0.2501     0.0066     0.2050     0.0814     0.3364     2.6114   130.2400     0.2061     0.6011
  409    8.160   2721.99     0.2508     0.0067     0.2102     0.0816     0.3383     2.6792   130.5600     0.2077     0.6100
  410    8.180   2723.00     0.2533     0.0065     0.2144     0.0818     0.3428     2.5910   130.8800     0.2120     0.6198
  411    8.200   2723.97     0.2547     0.0065     0.2170     0.0820     0.3456     2.5690   131.2000     0.2144     0.6267
  412    8.220   2724.93     0.2572     0.0065     0.2164     0.0822     0.3485     2.5285   131.5200     0.2169     0.6225
  413    8.240   2725.93     0.2657     0.0066     0.2081     0.0824     0.3543     2.5033   131.8400     0.2224     0.5781
  414    8.260   2726.90     0.2665     0.0068     0.2069     0.0826     0.3525     2.5304   132.1600     0.2204     0.5546
  415    8.280   2727.93     0.2679     0.0074     0.2078     0.0828     0.3543     2.7558   132.4800     0.2219     0.5544
  416    8.300   2728.93     0.2716     0.0073     0.2125     0.0830     0.3607     2.7186   132.8000     0.2279     0.5662
  417    8.320   2729.91     0.2768     0.0073     0.2085     0.0832     0.3647     2.6403   133.1200     0.2316     0.5448
  418    8.340   2730.91     0.2822     0.0071     0.2107     0.0834     0.3703     2.5199   133.4400     0.2369     0.5337
  419    8.360   2731.90     0.2800     0.0069     0.2108     0.0836     0.3687     2.4991   133.7600     0.2349     0.5429
  420    8.380   2732.85     0.2808     0.0073     0.2131     0.0838     0.3694     2.5744   134.0800     0.2353     0.5406
  421    8.400   2733.86     0.2808     0.0071     0.2147     0.0840     0.3709     2.5385   134.4000     0.2365     0.5521
  422    8.420   2734.86     0.2824     0.0070     0.2141     0.0842     0.3728     2.4954   134.7200     0.2381     0.5503
  423    8.440   2735.86     0.2859     0.0071     0.2044     0.0844     0.3730     2.4748   135.0400     0.2379     0.5169
  424    8.460   2736.81     0.2869     0.0072     0.2029     0.0846     0.3720     2.5187   135.3600     0.2366     0.4985
  425    8.480   2737.82     0.2876     0.0075     0.2057     0.0848     0.3735     2.6079   135.6800     0.2378     0.5031
  426    8.500   2738.84     0.2934     0.0077     0.2050     0.0850     0.3799     2.6225   136.0000     0.2439     0.4963
  427    8.520   2739.78     0.2924     0.0077     0.2050     0.0852     0.3782     2.6259   136.3200     0.2419     0.4926
  428    8.540   2740.81     0.2900     0.0078     0.2010     0.0854     0.3755     2.7073   136.6400     0.2388     0.4940
  429    8.560   2741.83     0.2940     0.0078     0.1965     0.0856     0.3766     2.6618   136.9600     0.2396     0.4636
  430    8.580   2742.80     0.2883     0.0081     0.1965     0.0858     0.3710     2.7898   137.2800     0.2337     0.4757
  431    8.600   2743.82     0.2790     0.0083     0.2047     0.0860     0.3636     2.9526   137.6000     0.2260     0.5113
  432    8.620   2744.83     0.2760     0.0081     0.2099     0.0862     0.3641     2.9280   137.9200     0.2261     0.5461
  433    8.640   2745.81     0.2773     0.0076     0.2133     0.0864     0.3665     2.7495   138.2400     0.2283     0.5523
  434    8.660   2746.79     0.2792     0.0068     0.2147     0.0866     0.3694     2.4311   138.5600     0.2308     0.5549
  435    8.680   2747.79     0.2797     0.0073     0.2202     0.0868     0.3714     2.6082   138.8800     0.2325     0.5660
  436    8.700   2748.74     0.2850     0.0080     0.2250     0.0870     0.3793     2.8061   139.2000     0.2401     0.5725
  437    8.720   2749.75     0.2915     0.0082     0.2170     0.0872     0.3848     2.8256   139.5200     0.2453     0.5503
  438    8.740   2750.75     0.2984     0.0081     0.2086     0.0874     0.3867     2.7211   139.8400     0.2469     0.4980
  439    8.760   2751.76     0.2985     0.0083     0.1998     0.0876     0.3835     2.7948   140.1600     0.2433     0.4716
  440    8.780   2752.70     0.2949     0.0085     0.2016     0.0878     0.3785     2.8639   140.4800     0.2380     0.4679
  441    8.800   2753.75     0.2882     0.0082     0.2084     0.0880     0.3747     2.8505   140.8000     0.2339     0.5035
  442    8.820   2754.71     0.2864     0.0086     0.2148     0.0882     0.3760     3.0062   141.1200     0.2348     0.5320
  443    8.840   2755.71     0.2899     0.0083     0.2197     0.0884     0.3819     2.8806   141.4400     0.2405     0.5433
  444    8.860   2756.66     0.2920     0.0083     0.2168     0.0886     0.3843     2.8414   141.7600     0.2426     0.5414
  445    8.880   2757.68     0.3027     0.0084     0.2071     0.0888     0.3923     2.8006   142.0800     0.2502     0.4979
  446    8.900   2758.70     0.3011     0.0088     0.2057     0.0890     0.3871     2.9021   142.4000     0.2447     0.4730
  447    8.920   2759.67     0.2989     0.0089     0.2126     0.0892     0.3870     2.9752   142.7200     0.2443     0.4933
  448    8.940   2760.63     0.3033     0.0087     0.2187     0.0894     0.3946     2.8939   143.0400     0.2516     0.5085
  449    8.960   2761.63     0.3051     0.0078     0.2221     0.0896     0.3976     2.5555   143.3600     0.2542     0.5134
  450    8.980   2762.63     0.3055     0.0073     0.2261     0.0898     0.4001     2.3711   143.6800     0.2564     0.5281
  451    9.000   2763.63     0.3031     0.0077     0.2306     0.0900     0.3992     2.5433   144.0000     0.2552     0.5439
  452    9.020   2764.64     0.3023     0.0073     0.2353     0.0902     0.4011     2.4247   144.3200     0.2568     0.5649
  453    9.040   2765.64     0.3064     0.0070     0.2298     0.0904     0.4052     2.2980   144.6400     0.2605     0.5556
  454    9.060   2766.61     0.3213     0.0058     0.2084     0.0906     0.4120     1.7983   144.9600     0.2670     0.4692
  455    9.080   2767.61     0.3242     0.0059     0.1961     0.0908     0.4054     1.8080   145.2800     0.2601     0.3934
  456    9.100   2768.63     0.3190     0.0069     0.2056     0.0910     0.4045     2.1703   145.6000     0.2589     0.4345
  457    9.120   2769.65     0.3312     0.0082     0.2047     0.0912     0.4182     2.4992   145.9200     0.2723     0.4261
  458    9.140   2770.65     0.3541     0.0089     0.1984     0.0914     0.4386     2.5350   146.2400     0.2924     0.3760
  459    9.160   2771.64     0.3694     0.0103     0.1651     0.0916     0.4442     2.7868   146.5600     0.2976     0.2900
  460    9.180   2772.65     0.3923     0.0102     0.1668     0.0918     0.4610     2.6137   146.8800     0.3141     0.2281
  461    9.200   2773.63     0.3955     0.0101     0.1735     0.0920     0.4660     2.5440   147.2000     0.3188     0.2383
  462    9.220   2774.59     0.3948     0.0108     0.1636     0.0922     0.4652     2.7435   147.5200     0.3176     0.2369
  463    9.240   2775.61     0.3859     0.0110     0.1774     0.0924     0.4561     2.8373   147.8400     0.3083     0.2426
  464    9.260   2776.58     0.3906     0.0102     0.2052     0.0926     0.4732     2.6033   148.1600     0.3251     0.3204
  465    9.280   2777.60     0.4178     0.0105     0.2015     0.0928     0.5067     2.5501   148.4800     0.3582     0.3321
  466    9.300   2778.60     0.4357     0.0109     0.1923     0.0930     0.5149     2.5411   148.8000     0.3661     0.2609
  467    9.320   2779.61     0.4572     0.0114     0.2010     0.0932     0.5418     2.5071   149.1200     0.3927     0.2756
  468    9.340   2780.55     0.4827     0.0130     0.1939     0.0934     0.5642     2.7051   149.4400     0.4147     0.2423
  469    9.360   2781.57     0.4964     0.0138     0.1792     0.0936     0.5746     2.7975   149.7600     0.4248     0.2178
  470    9.380   2782.52     0.5069     0.0145     0.1736     0.0938     0.5811     2.8842   150.0800     0.4310     0.1921
  471    9.400   2783.55     0.5150     0.0158     0.1580     0.0940     0.5827     3.0417   150.4000     0.4323     0.1557
  472    9.420   2784.55     0.4941     0.0155     0.1511     0.0942     0.5579     3.0889   150.7200     0.4072     0.1418
  473    9.440   2785.55     0.4769     0.0145     0.1609     0.0944     0.5423     3.0110   151.0400     0.3913     0.1568
  474    9.460   2786.52     0.4641     0.0130     0.1754     0.0946     0.5358     2.7810   151.3600     0.3845     0.1984
  475    9.480   2787.45     0.4422     0.0113     0.1938     0.0948     0.5209     2.5406   151.6800     0.3692     0.2506
  476    9.500   2788.38     0.4593     0.0100     0.2011     0.0950     0.5432     2.1738   152.0000     0.3912     0.2681
  477    9.520   2789.35     0.4466     0.0104     0.1977     0.0952     0.5291     2.3365   152.3200     0.3767     0.2683
  478    9.540   2790.37     0.4581     0.0112     0.1803     0.0954     0.5349     2.4336   152.6400     0.3823     0.2287
  479    9.560   2791.39     0.4411     0.0131     0.1547     0.0956     0.5105     2.9514   152.9600     0.3575     0.1942
  480    9.580   2792.41     0.4356     0.0140     0.1305     0.0958     0.4928     3.2189   153.2800     0.3395     0.1189
  481    9.600   2793.37     0.4260     0.0142     0.1189     0.0960     0.4778     3.3273   153.6000     0.3242     0.0843
  482    9.620   2794.35     0.3897     0.0142     0.1088     0.0962     0.4374     3.6079   153.9200     0.2835     0.0607
  483    9.640   2795.34     0.3535     0.0157     0.0880     0.0964     0.3927     4.3720   154.2400     0.2384    -0.0136
  484    9.660   2796.34     0.3647     0.0134     0.0750     0.0966     0.3962     3.8171   154.5600     0.2416    -0.0899
  485    9.680   2797.35     0.4351     0.0153     0.0886     0.0968     0.4713     3.7512   154.8800     0.3164    -0.0338
  486    9.700   2798.38     0.4996     0.0160     0.0870     0.0970     0.5354     3.4659   155.2000     0.3802    -0.0314
  487    9.720   2799.38     0.5471     0.0157     0.0725     0.0972     0.5773     2.9940   155.5200     0.4218    -0.0596
  488    9.740   2821.57     0.5662     0.0160     0.0796     0.0974     0.5987     2.7117   155.8400     0.4428    -0.0451
  489    9.760   2847.90     0.3921     0.0164     0.0986     0.0976     0.4329     3.7290   156.1600     0.2768    -0.0013
  490    9.780   2849.01     0.4684     0.0175     0.0882     0.0978     0.5054     3.6415   156.4800     0.3489    -0.0284
  491    9.800   2850.09     0.4356     0.0188     0.0903     0.0980     0.4721     4.3213   156.8000     0.3153    -0.0351
  492    9.820   2851.04     0.4734     0.0187     0.1076     0.0982     0.5157     4.0298   157.1200     0.3586     0.0067
  493    9.840   2852.05     0.5602     0.0187     0.1324     0.0984     0.6123     3.4748   157.4400     0.4549     0.0558
  494    9.860   2853.00     0.6750     0.0184     0.1489     0.0986     0.7358     2.7881   157.7600     0.5781     0.0799
  495    9.880   2853.97     0.7456     0.0178     0.1717     0.0988     0.8132     2.4156   158.0800     0.6551     0.0943
  496    9.900   2854.95     0.7677     0.0175     0.1997     0.0990     0.8477     2.3008   158.4000     0.6893     0.1326
  497    9.920   2856.02     0.8167     0.0177     0.2440     0.0992     0.9121     2.1848   158.7200     0.7534     0.1697
  498    9.940   2857.02     0.7641     0.0172     0.2620     0.0994     0.8736     2.1960   159.0400     0.7146     0.2261
  499    9.960   2858.02     0.6899     0.0184     0.2496     0.0996     0.7994     2.6621   159.3600     0.6400     0.2516
  500    9.980   2858.97     0.7083     0.0187     0.1855     0.0998     0.7940     2.6274   159.6800     0.6343     0.1636
  501   10.000   2859.94     0.7026     0.0190     0.1880     0.1000     0.7798     2.7164   160.0000     0.6198     0.1353
  502   10.020   2860.92     0.6816     0.0176     0.2154     0.1002     0.7688     2.5856   160.3200     0.6084     0.1763
  503   10.040   2861.92     0.7488     0.0178     0.1959     0.1004     0.8296     2.4105   160.6400     0.6690     0.1376
  504   10.060   2862.96     0.8144     0.0184     0.2281     0.1006     0.9071     2.2908   160.9600     0.7461     0.1607
  505   10.080   2864.03     0.8566     0.0197     0.2492     0.1008     0.9557     2.3158   161.2800     0.7945     0.1701
  506   10.100   2865.01     0.7698     0.0178     0.2282     0.1010     0.8751     2.2444   161.6000     0.7135     0.2101
  507   10.120   2866.00     0.6526     0.0167     0.1442     0.1012     0.7239     2.5409   161.9200     0.5620     0.1212
  508   10.140   2866.94     0.6350     0.0187     0.1149     0.1014     0.6842     2.9424   162.2400     0.5220     0.0305
  509   10.160   2867.92     0.6622     0.0203     0.1145     0.1016     0.7073     3.0659   162.5600     0.5447     0.0104
  510   10.180   2868.92     0.6488     0.0203     0.1551     0.1018     0.7074     3.1354   162.8800     0.5446     0.0692
  511   10.200   2870.00     0.5564     0.0209     0.1482     0.1020     0.6220     3.5000   163.2000     0.4588     0.1180
  512   10.220   2870.98     0.5323     0.0210     0.1160     0.1022     0.5869     4.0013   163.5200     0.4234     0.0658
  513   10.240   2872.00     0.6278     0.0205     0.1154     0.1024     0.6711     3.4592   163.8400     0.5073     0.0000
  514   10.260   2872.96     0.5880     0.0200     0.1409     0.1026     0.6446     3.3394   164.1600     0.4804     0.0677
  515   10.280   2873.95     0.6900     0.0184     0.1336     0.1028     0.7471     2.7377   164.4800     0.5826     0.0573
  516   10.300   2874.86     0.6592     0.0169     0.1416     0.1030     0.7152     2.6342   164.8000     0.5504     0.0549
  517   10.320   2875.89     0.6911     0.0168     0.1565     0.1032     0.7530     2.4312   165.1200     0.5879     0.0750
  518   10.340   2876.93     0.7178     0.0165     0.1643     0.1034     0.7874     2.2576   165.4400     0.6220     0.1001
  519   10.360   2877.92     0.6921     0.0174     0.1596     0.1036     0.7608     2.4796   165.7600     0.5951     0.1009
  520   10.380   2878.91     0.6424     0.0188     0.1338     0.1038     0.7015     2.8960   166.0800     0.5354     0.0689
  521   10.400   2879.88     0.5890     0.0193     0.1072     0.1040     0.6381     3.2571   166.4000     0.4717     0.0270
  522   10.420   2880.84     0.5836     0.0195     0.0804     0.1042     0.6202     3.3128   166.7200     0.4535    -0.0379
  523   10.440   2881.82     0.5613     0.0211     0.0697     0.1044     0.5911     3.7530   167.0400     0.4241    -0.0786
  524   10.460   2882.79     0.5557     0.0227     0.0726     0.1046     0.5852     4.0987   167.3600     0.4178    -0.0824
  525   10.480   2883.87     0.6094     0.0235     0.0832     0.1048     0.6416     3.9693   167.6800     0.4739    -0.0599
  526   10.500   2884.90     0.7074     0.0242     0.1034     0.1050     0.7495     3.4996   168.0000     0.5815    -0.0087
  527   10.520   2885.84     0.8003     0.0248     0.1229     0.1052     0.8471     3.1959   168.3200     0.6788     0.0086
  528   10.540   2886.83     0.8871     0.0252     0.1541     0.1054     0.9472     2.8416   168.6400     0.7786     0.0487
  529   10.560   2887.81     0.9121     0.0264     0.1896     0.1056     0.9859     2.9032   168.9600     0.8169     0.0856
  530   10.580   2888.78     0.9437     0.0259     0.2359     0.1058     1.0365     2.7577   169.2800     0.8673     0.1328
  531   10.600   2889.83     0.9618     0.0244     0.2729     0.1060     1.0707     2.5436   169.6000     0.9011     0.1700
  532   10.620   2890.85     0.9879     0.0243     0.3230     0.1062     1.1168     2.4591   169.9200     0.9468     0.2120
  533   10.640   2891.86     0.9817     0.0236     0.3616     0.1064     1.1285     2.4059   170.2400     0.9583     0.2537
  534   10.660   2892.86     0.9765     0.0217     0.3956     0.1066     1.1377     2.2196   170.5600     0.9672     0.2867
  535   10.680   2893.79     0.9468     0.0200     0.4127     0.1068     1.1190     2.0959   170.8800     0.9481     0.3198
  536   10.700   2894.75     0.8601     0.0184     0.3788     0.1070     1.0251     2.1229   171.2000     0.8539     0.3349
  537   10.720   2895.78     0.7858     0.0183     0.3350     0.1072     0.9325     2.2991   171.5200     0.7610     0.3181
  538   10.740   2896.82     0.7379     0.0179     0.2992     0.1074     0.8687     2.4004   171.8400     0.6968     0.2926
  539   10.760   2897.84     0.6915     0.0175     0.2224     0.1076     0.7911     2.4834   172.1600     0.6190     0.2092
  540   10.780   2898.82     0.6286     0.0197     0.1773     0.1078     0.7104     3.0850   172.4800     0.5380     0.1615
  541   10.800   2899.80     0.5664     0.0183     0.1398     0.1080     0.6298     3.1820   172.8000     0.4570     0.0939
  542   10.820   2900.75     0.4890     0.0191     0.1150     0.1082     0.5408     3.8386   173.1200     0.3677     0.0410
  543   10.840   2901.74     0.4426     0.0158     0.0936     0.1084     0.4853     3.5688   173.4400     0.3118    -0.0221
  544   10.860   2902.74     0.4402     0.0136     0.0680     0.1086     0.4699     3.0884   173.7600     0.2962    -0.1278
  545   10.880   2903.79     0.5143     0.0117     0.1042     0.1088     0.5512     2.3488   174.0800     0.3771    -0.0575
  546   10.900   2904.79     0.6572     0.0107     0.1268     0.1090     0.7079     1.7464   174.4000     0.5335     0.0216
  547   10.920   2905.77     0.6843     0.0111     0.1672     0.1092     0.7495     1.5870   174.7200     0.5748     0.0804
  548   10.940   2906.75     0.6020     0.0123     0.1443     0.1094     0.6693     2.0267   175.0400     0.4943     0.1026
  549   10.960   2907.77     0.5610     0.0162     0.1170     0.1096     0.6155     2.9044   175.3600     0.4402     0.0461
  550   10.980   2908.68     0.6098     0.0196     0.0880     0.1098     0.6444     3.2218   175.6800     0.4688    -0.0581
  551   11.000   2909.68     0.7299     0.0210     0.0836     0.1100     0.7714     2.9567   176.0000     0.5954    -0.0186
  552   11.020   2910.69     0.8182     0.0226     0.1012     0.1102     0.8615     2.7951   176.3200     0.6852    -0.0102
  553   11.040   2911.79     0.8602     0.0222     0.1169     0.1104     0.9005     2.6047   176.6400     0.7239    -0.0205
  554   11.060   2912.75     0.9626     0.0209     0.1646     0.1106     1.0244     2.2050   176.9600     0.8475     0.0433
  555   11.080   2913.76     0.9875     0.0203     0.2121     0.1108     1.0701     2.0718   177.2800     0.8928     0.0961
  556   11.100   2914.76     0.9993     0.0193     0.2562     0.1110     1.1024     1.9353   177.6000     0.9248     0.1454
  557   11.120   2915.66     1.0085     0.0172     0.2976     0.1112     1.1273     1.7030   177.9200     0.9494     0.1808
  558   11.140   2916.69     0.9517     0.0174     0.3063     0.1114     1.0846     1.8216   178.2400     0.9064     0.2263
  559   11.160   2917.69     0.8065     0.0166     0.2562     0.1116     0.9218     2.0240   178.5600     0.7432     0.2192
  560   11.180   2918.75     0.7511     0.0170     0.2452     0.1118     0.8544     2.2412   178.8800     0.6755     0.1988
  561   11.200   2919.75     0.7963     0.0181     0.2252     0.1120     0.9009     2.3328   179.2000     0.7217     0.1899
  562   11.220   2920.72     0.7769     0.0207     0.2187     0.1122     0.8634     2.6333   179.5200     0.6839     0.1371
  563   11.240   2921.73     0.8300     0.0224     0.2507     0.1124     0.9311     2.7619   179.8400     0.7513     0.1709
  564   11.260   2922.72     0.8763     0.0242     0.2543     0.1126     0.9813     2.7745   180.1600     0.8011     0.1716
  565   11.280   2923.62     0.9196     0.0254     0.2784     0.1128     1.0320     2.7781   180.4800     0.8515     0.1816
  566   11.300   2924.62     0.9601     0.0258     0.3006     0.1130     1.0849     2.6900   180.8000     0.9041     0.2036
  567   11.320   2925.64     0.9750     0.0262     0.3374     0.1132     1.1094     2.6994   181.1200     0.9283     0.2227
  568   11.340   2926.69     0.9643     0.0261     0.3772     0.1134     1.1169     2.7061   181.4400     0.9355     0.2673
  569   11.360   2927.67     0.9556     0.0264     0.4152     0.1136     1.1241     2.7593   181.7600     0.9424     0.3052
  570   11.380   2928.70     0.9391     0.0267     0.4464     0.1138     1.1234     2.8328   182.0800     0.9413     0.3454
  571   11.400   2929.58     0.9484     0.0265     0.4751     0.1140     1.1429     2.7951   182.4000     0.9605     0.3634
  572   11.420   2930.57     0.9611     0.0257     0.5054     0.1142     1.1690     2.6641   182.7200     0.9863     0.3859
  573   11.440   2931.66     0.9576     0.0250     0.5372     0.1144     1.1785     2.6025   183.0400     0.9955     0.4134
  574   11.460   2932.67     0.9609     0.0253     0.5659     0.1146     1.1952     2.6289   183.3600     1.0118     0.4379
  575   11.480   2933.60     0.9678     0.0251     0.5882     0.1148     1.2116     2.5970   183.6800     1.0279     0.4530
  576   11.500   2934.65     0.9581     0.0240     0.6103     0.1150     1.2113     2.5079   184.0000     1.0273     0.4748
  577   11.520   2935.61     0.9663     0.0233     0.6298     0.1152     1.2285     2.4161   184.3200     1.0442     0.4876
  578   11.540   2936.68     0.9815     0.0232     0.6288     0.1154     1.2462     2.3738   184.6400     1.0616     0.4850
  579   11.560   2937.64     0.9851     0.0232     0.6072     0.1156     1.2430     2.3539   184.9600     1.0580     0.4711
  580   11.580   2938.60     0.9848     0.0225     0.5839     0.1158     1.2329     2.2919   185.2800     1.0477     0.4534
  581   11.600   2939.51     0.9823     0.0214     0.5678     0.1160     1.2226     2.1847   185.6000     1.0370     0.4399
  582   11.620   2940.46     0.9896     0.0213     0.5572     0.1162     1.2261     2.1663   185.9200     1.0402     0.4296
  583   11.640   2941.47     1.0125     0.0208     0.5334     0.1164     1.2386     2.0758   186.2400     1.0523     0.4009
  584   11.660   2942.47     1.0143     0.0204     0.5169     0.1166     1.2358     1.9873   186.5600     1.0493     0.3916
  585   11.680   2943.54     0.9536     0.0193     0.5267     0.1168     1.1709     1.9422   186.8800     0.9841     0.4077
  586   11.700   2944.55     0.9038     0.0173     0.5251     0.1170     1.1267     1.9043   187.2000     0.9395     0.4404
  587   11.720   2945.52     0.8571     0.0147     0.5151     0.1172     1.0742     1.6617   187.5200     0.8867     0.4511
  588   11.740   2958.75     0.8694     0.0119     0.5119     0.1174     1.0848     1.4459   187.8400     0.8969     0.4436
  589   11.760   2980.35     0.9466     0.0114     0.5092     0.1176     1.1608     1.3777   188.1600     0.9727     0.4055
  590   11.780   2989.76     1.1391     0.0164     0.5397     0.1178     1.3616     1.4722   188.4800     1.1732     0.3516
  591   11.800   2990.78     1.4794     0.0235     0.4960     0.1180     1.6983     1.6159   188.8000     1.5095     0.2676
  592   11.820   2991.77     1.6527     0.0283     0.3361     0.1182     1.8242     1.7157   189.1200     1.6351     0.1776
  593   11.840   2992.76     1.8569     0.0329     0.2614     0.1184     1.9729     1.8074   189.4400     1.7834     0.0888
  594   11.860   2993.74     2.4985     0.0389     0.2750     0.1186     2.6348     1.6265   189.7600     2.4451     0.0853
  595   11.880   2994.73     3.5108     0.0470     0.1504     0.1188     3.5852     1.5321   190.0800     3.3951     0.0172
  596   11.900   2995.79     4.5334     0.0493     0.0896     0.1190     4.5799     1.0977   190.4000     4.3895    -0.0018
  597   11.920   2996.79     5.3067     0.0519     0.0818     0.1192     5.3396     0.9816   190.7200     5.1489    -0.0079
  598   11.940   2997.80     5.7674     0.0535     0.0876     0.1194     5.8037     0.9303   191.0400     5.6127    -0.0059
  599   11.960   2998.81     6.0829     0.0536     0.0880     0.1196     6.1191     0.8872   191.3600     5.9277    -0.0057
  600   11.980   2999.82     6.4117     0.0544     0.0935     0.1198     6.4504     0.8650   191.6800     6.2587    -0.0044
  601   12.000   3000.83     6.6777     0.0549     0.0954     0.1200     6.7169     0.8382   192.0000     6.5249    -0.0041
  602   12.020   3001.84     6.9298     0.0564     0.0978     0.1202     6.9706     0.8285   192.3200     6.7782    -0.0034
  603   12.040   3002.88     7.1610     0.0578     0.0968     0.1204     7.2015     0.8187   192.6400     7.0089    -0.0034
  604   12.060   3003.86     7.3271     0.0570     0.0974     0.1206     7.3678     0.7830   192.9600     7.1748    -0.0033
  605   12.080   3004.93     7.3741     0.0575     0.1022     0.1208     7.4160     0.7814   193.2800     7.2228    -0.0029
  606   12.100   3005.94     7.4761     0.0597     0.1033     0.1210     7.5192     0.8047   193.6000     7.3256    -0.0025
  607   12.120   3006.97     7.6744     0.0615     0.1126     0.1212     7.7207     0.8122   193.9200     7.5267    -0.0015
  608   12.140   3008.04     7.9384     0.0620     0.1079     0.1214     7.9850     0.7930   194.2400     7.7908    -0.0013
  609   12.160   3009.05     8.0623     0.0637     0.1004     0.1216     8.1049     0.7931   194.5600     7.9103    -0.0026
  610   12.180   3010.04     8.0428     0.0642     0.0996     0.1218     8.0850     0.7977   194.8800     7.8901    -0.0027
  611   12.200   3011.07     7.9967     0.0636     0.1003     0.1220     8.0382     0.7950   195.2000     7.8430    -0.0029
  612   12.220   3012.08     8.0628     0.0613     0.1034     0.1222     8.1058     0.7648   195.5200     7.9103    -0.0025
  613   12.240   3013.13     8.1717     0.0624     0.1053     0.1224     8.2155     0.7646   195.8400     8.0196    -0.0023
  614   12.260   3014.16     8.2329     0.0661     0.1084     0.1226     8.2785     0.8031   196.1600     8.0823    -0.0018
  615   12.280   3015.17     8.2429     0.0686     0.1059     0.1228     8.2875     0.8314   196.4800     8.0910    -0.0021
  616   12.300   3016.14     8.2308     0.0679     0.1044     0.1230     8.2751     0.8244   196.8000     8.0783    -0.0022
  617   12.320   3017.24     8.1547     0.0658     0.1057     0.1232     8.1980     0.8054   197.1200     8.0008    -0.0025
  618   12.340   3018.23     7.9709     0.0663     0.1078     0.1234     8.0164     0.8302   197.4400     7.8190    -0.0019
  619   12.360   3019.24     7.6705     0.0702     0.1084     0.1236     7.7160     0.9144   197.7600     7.5183    -0.0020
  620   12.380   3020.24     7.5224     0.0735     0.1023     0.1238     7.5653     0.9706   198.0800     7.3672    -0.0030
  621   12.400   3021.24     7.3688     0.0715     0.1066     0.1240     7.4116     0.9699   198.4000     7.2132    -0.0030
  622   12.420   3022.25     7.1142     0.0731     0.1139     0.1242     7.1620     1.0109   198.7200     6.9633    -0.0015
  623   12.440   3023.25     6.6865     0.0767     0.1104     0.1244     6.7361     1.1081   199.0400     6.5370    -0.0010
  624   12.460   3024.31     6.2446     0.0733     0.0942     0.1246     6.2858     1.1351   199.3600     6.0865    -0.0043
  625   12.480   3025.28     6.0509     0.0662     0.0818     0.1248     6.0858     1.0839   199.6800     5.8861    -0.0071
  626   12.500   3026.31     6.1793     0.0561     0.0939     0.1250     6.2142     0.9223   200.0000     6.0142    -0.0070
  627   12.520   3027.32     6.1844     0.0496     0.0920     0.1252     6.2275     0.8006   200.3200     6.0272    -0.0037
  628   12.540   3028.34     6.5879     0.0445     0.0496     0.1254     6.6151     0.7010   200.6400     6.4144    -0.0094
  629   12.560   3029.42     7.2066     0.0419    -0.0082     0.1256     7.2104     0.6007   200.9600     7.0094    -0.0166
  630   12.580   3030.45     7.5383     0.0413    -0.0128     0.1258     7.5328     0.5534   201.2800     7.3316    -0.0189
  631   12.600   3031.46     7.8161     0.0468    -0.0084     0.1260     7.8114     0.6098   201.6000     7.6098    -0.0180
  632   12.620   3032.49     8.0465     0.0545    -0.0013     0.1262     8.0444     0.6850   201.9200     7.8424    -0.0167
  633   12.640   3033.50     8.1960     0.0620     0.0056     0.1264     8.1975     0.7610   202.2400     7.9953    -0.0154
  634   12.660   3034.53     8.4235     0.0672     0.0165     0.1266     8.4286     0.8085   202.5600     8.2260    -0.0139
  635   12.680   3035.58     8.7254     0.0727     0.0332     0.1268     8.7378     0.8469   202.8800     8.5349    -0.0114
  636   12.700   3036.60     9.1095     0.0789     0.0440     0.1270     9.1256     0.8831   203.2000     8.9224    -0.0099
  637   12.720   3037.66     9.5433     0.0842     0.0607     0.1272     9.5668     0.9003   203.5200     9.3633    -0.0076
  638   12.740   3038.69     9.8260     0.0885     0.0663     0.1274     9.8541     0.9088   203.8400     9.6502    -0.0063
  639   12.760   3039.70     9.9015     0.0878     0.0747     0.1276     9.9327     0.8878   204.1600     9.7285    -0.0055
  640   12.780   3040.73     9.8786     0.0856     0.0768     0.1278     9.9112     0.8649   204.4800     9.7067    -0.0052
  641   12.800   3041.75     9.7211     0.0854     0.0812     0.1280     9.7544     0.8755   204.8000     9.5496    -0.0051
  642   12.820   3042.79     9.7185     0.0856     0.0821     0.1282     9.7529     0.8830   205.1200     9.5478    -0.0048
  643   12.840   3043.80     9.9427     0.0850     0.0867     0.1284     9.9787     0.8634   205.4400     9.7733    -0.0044
  644   12.860   3044.86    10.3731     0.0876     0.0850     0.1286    10.4087     0.8583   205.7600    10.2029    -0.0043
  645   12.880   3045.91    10.8224     0.0926     0.0813     0.1288    10.8577     0.8672   206.0800    10.6516    -0.0042
  646   12.900   3046.95    11.2912     0.0994     0.0829     0.1290    11.3252     0.8927   206.4000    11.1188    -0.0043
  647   12.920   3047.96    11.5936     0.1057     0.0719     0.1292    11.6258     0.9174   206.7200    11.4191    -0.0046
  648   12.940   3049.03    11.8093     0.1101     0.0619     0.1294    11.8362     0.9368   207.0400    11.6292    -0.0056
  649   12.960   3050.06    11.9450     0.1105     0.0603     0.1296    11.9698     0.9272   207.3600    11.7624    -0.0060
  650   12.980   3051.11    12.0556     0.1114     0.0715     0.1298    12.0847     0.9263   207.6800    11.8771    -0.0051
  651   13.000   3052.20    12.0161     0.1111     0.0769     0.1300    12.0481     0.9236   208.0000    11.8401    -0.0046
  652   13.020   3053.27    12.0769     0.1111     0.0822     0.1302    12.1107     0.9212   208.3200    11.9023    -0.0042
  653   13.040   3054.32    12.2932     0.1100     0.0850     0.1304    12.3300     0.8995   208.6400    12.1214    -0.0035
  654   13.060   3055.37    12.6368     0.1090     0.0749     0.1306    12.6692     0.8678   208.9600    12.4603    -0.0043
  655   13.080   3056.43    12.9558     0.1113     0.0735     0.1308    12.9872     0.8622   209.2800    12.7779    -0.0044
  656   13.100   3057.52    13.3110     0.1150     0.0536     0.1310    13.3347     0.8689   209.6000    13.1251    -0.0057
  657   13.120   3058.63    13.4187     0.1147     0.0409     0.1312    13.4398     0.8561   209.9200    13.2298    -0.0061
  658   13.140   3059.70    13.4351     0.1138     0.0340     0.1314    13.4500     0.8461   210.2400    13.2397    -0.0073
  659   13.160   3060.77    13.4076     0.1146     0.0282     0.1316    13.4217     0.8547   210.5600    13.2112    -0.0074
  660   13.180   3061.75    13.3769     0.1119     0.0234     0.1318    13.3885     0.8364   210.8800    13.1776    -0.0079
  661   13.200   3062.86    13.5242     0.1076     0.0126     0.1320    13.5305     0.7982   211.2000    13.3193    -0.0088
  662   13.220   3063.97    13.7710     0.1016     0.0048     0.1322    13.7743     0.7407   211.5200    13.5628    -0.0092
  663   13.240   3065.06    14.0010     0.0997    -0.0115     0.1324    13.9989     0.7141   211.8400    13.7870    -0.0100
  664   13.260   3066.16    14.1646     0.1028    -0.0260     0.1326    14.1553     0.7266   212.1600    13.9431    -0.0111
  665   13.280   3067.15    14.3749     0.1078    -0.0481     0.1328    14.3545     0.7517   212.4800    14.1421    -0.0128
  666   13.300   3068.25    14.4276     0.1098    -0.0574     0.1330    14.4033     0.7613   212.8000    14.1905    -0.0134
  667   13.320   3069.29    14.3129     0.1143    -0.0598     0.1332    14.2882     0.7968   213.1200    14.0751    -0.0136
  668   13.340   3070.42    14.0144     0.1199    -0.0601     0.1334    13.9899     0.8493   213.4400    13.7765    -0.0139
  669   13.360   3071.48    13.5928     0.1259    -0.0419     0.1336    13.5715     0.9196   213.7600    13.3577    -0.0138
  670   13.380   3072.52    13.3286     0.1268    -0.0298     0.1338    13.3148     0.9479   214.0800    13.1007    -0.0127
  671   13.400   3073.56    13.1891     0.1216    -0.0106     0.1340    13.1826     0.9208   214.4000    12.9682    -0.0115
  672   13.420   3074.67    13.3168     0.1144     0.0045     0.1342    13.3152     0.8611   214.7200    13.1005    -0.0105
  673   13.440   3075.70    13.4752     0.1116     0.0162     0.1344    13.4840     0.8295   215.0400    13.2689    -0.0086
  674   13.460   3076.76    13.6031     0.1138     0.0109     0.1346    13.6081     0.8384   215.3600    13.3928    -0.0092
  675   13.480   3077.85    13.6787     0.1155    -0.0039     0.1348    13.6799     0.8439   215.6800    13.4642    -0.0098
  676   13.500   3078.93    13.5588     0.1140     0.0065     0.1350    13.5604     0.8391   216.0000    13.3444    -0.0098
  677   13.520   3080.01    13.4564     0.1126     0.0065     0.1352    13.4580     0.8374   216.3200    13.2417    -0.0099
  678   13.540   3081.09    13.6719     0.1086     0.0184     0.1354    13.6782     0.7959   216.6400    13.4616    -0.0089
  679   13.560   3082.21    14.0341     0.1059     0.0109     0.1356    14.0423     0.7602   216.9600    13.8254    -0.0084
  680   13.580   3083.27    14.3305     0.1071    -0.0045     0.1358    14.3330     0.7554   217.2800    14.1157    -0.0092
  681   13.600   3084.33    14.5674     0.1083    -0.0486     0.1360    14.5529     0.7505   217.6000    14.3353    -0.0119
  682   13.620   3085.43    14.5541     0.1100    -0.0845     0.1362    14.5208     0.7548   217.9200    14.3029    -0.0151
  683   13.640   3086.54    14.3854     0.1153    -0.0720     0.1364    14.3537     0.7987   218.2400    14.1355    -0.0150
  684   13.660   3087.59    14.1879     0.1228    -0.0572     0.1366    14.1607     0.8576   218.5600    13.9422    -0.0144
  685   13.680   3089.39    13.9537     0.1311    -0.0337     0.1368    13.9362     0.9210   218.8800    13.7173    -0.0130
  686   13.700   3091.31    13.7139     0.1395    -0.0102     0.1370    13.7062     0.9843   219.2000    13.4870    -0.0115
  687   13.720   3093.22    13.4747     0.1379     0.0054     0.1372    13.4766     0.9908   219.5200    13.2571    -0.0100
  688   13.740   3094.30    13.2360     0.1374     0.0172     0.1374    13.2423     1.0252   219.8400    13.0224    -0.0094
  689   13.760   3096.33    13.0681     0.1350     0.0359     0.1376    13.0799     1.0271   220.1600    12.8598    -0.0085
  690   13.780   3104.52    12.8815     0.1318     0.0586     0.1378    12.9028     1.0067   220.4800    12.6823    -0.0068
  691   13.800   3112.70    12.6948     0.1332     0.0813     0.1380    12.7257     1.0173   220.8000    12.5049    -0.0051
  692   13.820   3119.01    12.5745     0.1288     0.0896     0.1382    12.6119     1.0234   221.1200    12.3908    -0.0040
  693   13.840   3135.36    12.4349     0.1254     0.0909     0.1384    12.4729     0.9969   221.4400    12.2515    -0.0039
  694   13.860   3147.03    12.2851     0.1214     0.0740     0.1386    12.3188     0.9816   221.7600    12.0971    -0.0048
  695   13.880   3148.00    12.0266     0.1181     0.0632     0.1388    12.0549     0.9752   222.0800    11.8328    -0.0060
  696   13.900   3149.10    11.5563     0.1215     0.0520     0.1390    11.5799     1.0287   222.4000    11.3575    -0.0073
  697   13.920   3150.16    10.8150     0.1307     0.0407     0.1392    10.8330     1.1703   222.7200    10.6103    -0.0091
  698   13.940   3151.19     9.6669     0.1487     0.0258     0.1394     9.6788     1.4471   223.0400     9.4558    -0.0117
  699   13.960   3152.27     8.3180     0.1593     0.0312     0.1396     8.3306     1.8927   223.3600     8.1073    -0.0135
  700   13.980   3153.29     6.8776     0.1618     0.0444     0.1398     6.8936     2.3398   223.6800     6.6699    -0.0153
  701   14.000   3154.31     5.7793     0.1521     0.0621     0.1400     5.8022     2.4424   224.0000     5.5782    -0.0153
  702   14.020   3155.31     4.8840     0.1341     0.1303     0.1402     4.9266     2.5769   224.3200     4.7023    -0.0082
  703   14.040   3156.32     4.2170     0.1153     0.2004     0.1404     4.2919     2.5822   224.6400     4.0672     0.0094
  704   14.060   3157.30     3.7095     0.1079     0.2589     0.1406     3.8146     2.7810   224.9600     3.5897     0.0306
  705   14.080   3158.36     3.3625     0.0972     0.2728     0.1408     3.4706     2.8249   225.2800     3.2453     0.0359
  706   14.100   3159.42     3.2449     0.0867     0.3175     0.1410     3.3720     2.6717   225.6000     3.1464     0.0514
  707   14.120   3160.47     3.3374     0.0879     0.3375     0.1412     3.4799     2.6399   225.9200     3.2540     0.0608
  708   14.140   3161.52     3.4272     0.0838     0.2750     0.1414     3.5525     2.4651   226.2400     3.3262     0.0472
  709   14.160   3162.55     3.5348     0.0713     0.2389     0.1416     3.6434     2.0642   226.5600     3.4169     0.0342
  710   14.180   3163.54     3.8458     0.0697     0.2043     0.1418     3.9339     1.8839   226.8800     3.7070     0.0183
  711   14.200   3164.50     4.0663     0.0786     0.1567     0.1420     4.1399     1.9747   227.2000     3.9127     0.0085
  712   14.220   3165.56     4.3550     0.0802     0.1388     0.1422     4.4171     1.8871   227.5200     4.1896     0.0014
  713   14.240   3166.68     4.6584     0.0875     0.1521     0.1424     4.7190     1.9255   227.8400     4.4912     0.0005
  714   14.260   3167.68     4.8353     0.0896     0.1413     0.1426     4.8980     1.8827   228.1600     4.6698     0.0014
  715   14.280   3168.69     5.0325     0.0856     0.1338     0.1428     5.0864     1.7373   228.4800     4.8579    -0.0030
  716   14.300   3169.68     5.4173     0.0845     0.0938     0.1430     5.4621     1.6074   228.8000     5.2333    -0.0069
  717   14.320   3170.70     5.9058     0.0862     0.0855     0.1432     5.9465     1.5179   229.1200     5.7174    -0.0081
  718   14.340   3171.80     6.5533     0.0931     0.0428     0.1434     6.5765     1.4326   229.4400     6.3470    -0.0139
  719   14.360   3172.84     7.0886     0.0934    -0.0167     0.1436     7.0897     1.3220   229.7600     6.8599    -0.0206
  720   14.380   3173.86     7.1525     0.0771    -0.0603     0.1438     7.1271     1.0756   230.0800     6.8970    -0.0297
  721   14.400   3174.90     6.9719     0.0685    -0.0818     0.1440     6.9390     0.9799   230.4000     6.7086    -0.0332
  722   14.420   3175.87     6.7415     0.0658    -0.1394     0.1442     6.6911     0.9691   230.7200     6.4603    -0.0409
  723   14.440   3176.85     6.4592     0.0596    -0.1969     0.1444     6.3826     0.9022   231.0400     6.1516    -0.0532
  724   14.460   3177.87     6.0143     0.0469    -0.1951     0.1446     5.9298     0.7503   231.3600     5.6985    -0.0607
  725   14.480   3178.93     5.3149     0.0425    -0.1902     0.1448     5.2347     0.7893   231.6800     5.0030    -0.0672
  726   14.500   3179.95     4.3102     0.0408    -0.1814     0.1450     4.2312     0.9199   232.0000     3.9992    -0.0835
  727   14.520   3180.94     3.5580     0.0318    -0.1518     0.1452     3.4887     0.8720   232.3200     3.2564    -0.0953
  728   14.540   3181.95     2.9963     0.0267    -0.1387     0.1454     2.9383     0.8739   232.6400     2.7056    -0.1052
  729   14.560   3182.98     2.4577     0.0239    -0.1034     0.1456     2.4076     0.9608   232.9600     2.1746    -0.1221
  730   14.580   3183.96     2.1264     0.0215    -0.0362     0.1458     2.1017     0.9758   233.2800     1.8684    -0.1093
  731   14.600   3184.95     1.7971     0.0200     0.0227     0.1460     1.7984     1.0579   233.6000     1.5648    -0.0911
  732   14.620   3185.93     1.5711     0.0191     0.0987     0.1462     1.6045     1.2093   233.9200     1.3706    -0.0484
  733   14.640   3186.92     1.4736     0.0184     0.1609     0.1464     1.5309     1.2469   234.2400     1.2967    -0.0075
  734   14.660   3188.04     1.3906     0.0186     0.2300     0.1466     1.4775     1.3264   234.5600     1.2430     0.0486
  735   14.680   3189.04     1.3677     0.0211     0.2920     0.1468     1.4807     1.5415   234.8800     1.2458     0.0981
  736   14.700   3190.03     1.3943     0.0217     0.3609     0.1470     1.5389     1.5628   235.2000     1.3037     0.1514
  737   14.720   3190.99     1.4672     0.0221     0.3987     0.1472     1.6284     1.4842   235.5200     1.3928     0.1699
  738   14.740   3191.98     1.4152     0.0235     0.4338     0.1474     1.5948     1.6584   235.8400     1.3589     0.2063
  739   14.760   3192.99     1.4349     0.0250     0.3386     0.1476     1.6013     1.7454   236.1600     1.3651     0.1823
  740   14.780   3193.98     1.3675     0.0259     0.3096     0.1478     1.4825     1.8845   236.4800     1.2461     0.1015
  741   14.800   3194.97     1.3490     0.0258     0.4030     0.1480     1.5055     1.9085   236.8000     1.2687     0.1771
  742   14.820   3196.05     1.3601     0.0263     0.4459     0.1482     1.5440     1.9420   237.1200     1.3069     0.2217
  743   14.840   3197.06     1.3562     0.0252     0.4709     0.1484     1.5483     1.8535   237.4400     1.3108     0.2356
  744   14.860   3198.05     1.3238     0.0247     0.5113     0.1486     1.5343     1.8643   237.7600     1.2965     0.2719
  745   14.880   3199.03     1.2837     0.0236     0.5400     0.1488     1.5060     1.8350   238.0800     1.2679     0.3001
  746   14.900   3200.02     1.2798     0.0220     0.5477     0.1490     1.5091     1.7221   238.4000     1.2707     0.3123
  747   14.920   3201.02     1.2448     0.0220     0.5683     0.1492     1.4807     1.7652   238.7200     1.2420     0.3322
  748   14.940   3202.03     1.2642     0.0220     0.5704     0.1494     1.5066     1.7405   239.0400     1.2676     0.3374
  749   14.960   3203.07     1.3154     0.0226     0.5453     0.1496     1.5455     1.7255   239.3600     1.3062     0.3050
  750   14.980   3204.14     1.3582     0.0230     0.5664     0.1498     1.5957     1.6998   239.6800     1.3560     0.3065
  751   15.000   3205.08     1.3895     0.0236     0.5368     0.1500     1.6206     1.7123   240.0000     1.3806     0.2898
  752   15.020   3206.05     1.3875     0.0242     0.5448     0.1502     1.6129     1.7352   240.3200     1.3726     0.2816
  753   15.040   3207.09     1.3717     0.0258     0.5613     0.1504     1.6046     1.8731   240.6400     1.3640     0.2962
  754   15.060   3208.09     1.3639     0.0256     0.5283     0.1506     1.5932     1.8781   240.9600     1.3523     0.2923
  755   15.080   3209.17     1.3914     0.0273     0.5079     0.1508     1.6076     1.9691   241.2800     1.3664     0.2665
  756   15.100   3210.20     1.4058     0.0275     0.5224     0.1510     1.6212     1.9542   241.6000     1.3796     0.2623
  757   15.120   3211.22     1.4150     0.0277     0.5370     0.1512     1.6382     1.9564   241.9200     1.3963     0.2724
  758   15.140   3212.21     1.4194     0.0267     0.5429     0.1514     1.6448     1.8854   242.2400     1.4026     0.2747
  759   15.160   3213.23     1.4254     0.0267     0.5630     0.1516     1.6590     1.8776   242.5600     1.4165     0.2856
  760   15.180   3214.22     1.4546     0.0266     0.5573     0.1518     1.6901     1.8356   242.8800     1.4473     0.2826
  761   15.200   3215.19     1.5050     0.0260     0.5626     0.1520     1.7440     1.7328   243.2000     1.5008     0.2780
  762   15.220   3216.15     1.4733     0.0252     0.5359     0.1522     1.7006     1.7000   243.5200     1.4571     0.2669
  763   15.240   3217.13     1.3939     0.0254     0.5548     0.1524     1.6229     1.8159   243.8400     1.3791     0.2849
  764   15.260   3218.11     1.3931     0.0251     0.5726     0.1526     1.6320     1.8022   244.1600     1.3878     0.2999
  765   15.280   3219.19     1.3071     0.0245     0.5826     0.1528     1.5535     1.8484   244.4800     1.3090     0.3315
  766   15.300   3220.21     1.2013     0.0233     0.5961     0.1530     1.4492     1.9045   244.8000     1.2044     0.3631
  767   15.320   3221.16     1.1123     0.0239     0.6051     0.1532     1.3629     2.1408   245.1200     1.1178     0.3967
  768   15.340   3222.15     1.0978     0.0239     0.6332     0.1534     1.3603     2.1783   245.4400     1.1149     0.4229
  769   15.360   3223.12     1.1076     0.0231     0.6590     0.1536     1.3805     2.0873   245.7600     1.1347     0.4372
  770   15.380   3224.13     1.1331     0.0241     0.6971     0.1538     1.4202     2.1242   246.0800     1.1742     0.4512
  771   15.400   3225.14     1.1736     0.0244     0.7256     0.1540     1.4766     2.0893   246.4000     1.2302     0.4613
  772   15.420   3226.14     1.2181     0.0247     0.7325     0.1542     1.5276     2.0258   246.7200     1.2809     0.4550
  773   15.440   3227.18     1.2342     0.0240     0.7375     0.1544     1.5420     1.9510   247.0400     1.2950     0.4467
  774   15.460   3228.18     1.3024     0.0238     0.7408     0.1546     1.6138     1.8493   247.3600     1.3665     0.4295
  775   15.480   3229.16     1.3253     0.0243     0.7458     0.1548     1.6384     1.8366   247.6800     1.3907     0.4248
  776   15.500   3230.14     1.3142     0.0268     0.7540     0.1550     1.6290     2.0398   248.0000     1.3810     0.4306
  777   15.520   3231.12     1.3041     0.0264     0.7722     0.1552     1.6260     2.0217   248.3200     1.3777     0.4436
  778   15.540   3232.12     1.3034     0.0243     0.7777     0.1554     1.6330     1.8635   248.6400     1.3844     0.4547
  779   15.560   3233.10     1.3248     0.0242     0.7399     0.1556     1.6439     1.8241   248.9600     1.3950     0.4332
  780   15.580   3234.16     1.2641     0.0273     0.7439     0.1558     1.5709     2.1474   249.2800     1.3216     0.4348
  781   15.600   3235.16     1.2651     0.0298     0.7790     0.1560     1.5913     2.3661   249.6000     1.3417     0.4625
  782   15.620   3236.18     1.3969     0.0316     0.7436     0.1562     1.7107     2.3790   249.9200     1.4608     0.4046
  783   15.640   3237.17     1.4158     0.0335     0.6789     0.1564     1.7087     2.3919   250.2400     1.4584     0.3709
  784   15.660   3238.18     1.3721     0.0338     0.6924     0.1566     1.6585     2.4052   250.5600     1.4079     0.3730
  785   15.680   3239.19     1.3026     0.0351     0.7280     0.1568     1.6055     2.6245   250.8800     1.3546     0.4166
  786   15.700   3240.18     1.2670     0.0345     0.7085     0.1570     1.5845     2.7109   251.2000     1.3333     0.4493
  787   15.720   3258.32     1.3514     0.0309     0.5466     0.1572     1.6044     2.4378   251.5200     1.3529     0.3316
  788   15.740   3277.15     1.4398     0.0293     0.3848     0.1574     1.6249     2.2724   251.8400     1.3730     0.2078
  789   15.760   3285.80     1.4149     0.0286     0.4035     0.1576     1.5797     2.0076   252.1600     1.3275     0.1769
  790   15.780   3286.84     1.3384     0.0291     0.4412     0.1578     1.5191     2.1578   252.4800     1.2666     0.2152
  791   15.800   3287.84     1.2828     0.0248     0.4767     0.1580     1.4771     1.9327   252.8000     1.2243     0.2488
  792   15.820   3288.86     1.2857     0.0261     0.5072     0.1582     1.4939     2.0317   253.1200     1.2408     0.2721
  793   15.840   3289.88     1.2820     0.0251     0.5466     0.1584     1.5067     1.9629   253.4400     1.2533     0.3005
  794   15.860   3290.82     1.3399     0.0241     0.5760     0.1586     1.5778     1.8079   253.7600     1.3240     0.3079
  795   15.880   3291.84     1.3662     0.0241     0.5975     0.1588     1.6139     1.7623   254.0800     1.3598     0.3169
  796   15.900   3292.82     1.3825     0.0242     0.6224     0.1590     1.6395     1.7488   254.4000     1.3851     0.3270
  797   15.920   3293.83     1.3818     0.0266     0.6515     0.1592     1.6518     1.9155   254.7200     1.3971     0.3463
  798   15.940   3294.86     1.3254     0.0269     0.6940     0.1594     1.6109     2.0312   255.0400     1.3559     0.3838
  799   15.960   3295.87     1.3502     0.0279     0.7351     0.1596     1.6543     2.0711   255.3600     1.3989     0.4034
  800   15.980   3296.84     1.3689     0.0271     0.7726     0.1598     1.6889     1.9823   255.6800     1.4332     0.4201
  801   16.000   3297.86     1.4540     0.0366     0.8149     0.1600     1.7897     2.5625   256.0000     1.5337     0.4169
  802   16.020   3298.86     1.5476     0.0523     0.8744     0.1602     1.9050     3.4334   256.3200     1.6487     0.4190
  803   16.040   3299.90     1.9449     0.0644     0.9672     0.1604     2.3327     3.5689   256.6400     2.0761     0.3691
  804   16.060   3300.91     3.0651     0.0807     1.0585     0.1606     3.5004     3.3651   256.9600     3.2434     0.2731
  805   16.080   3301.93     4.6758     0.0996     0.9790     0.1608     5.0970     2.5408   257.2800     4.8397     0.1751
  806   16.100   3302.96     5.3177     0.1147     1.0778     0.1610     5.7727     2.1553   257.6000     5.5151     0.1672
  807   16.120   3303.95     5.0196     0.1323     1.1159     0.1612     5.4855     2.6319   257.9200     5.2276     0.1815
  808   16.140   3305.01     4.7383     0.1457     1.0034     0.1614     5.1842     3.0279   258.2400     4.9260     0.1827
  809   16.160   3305.99     4.1923     0.1401     0.8947     0.1616     4.5856     3.3263   258.5600     4.3270     0.1792
  810   16.180   3307.01     3.6824     0.1279     0.7921     0.1618     4.0265     3.4538   258.8800     3.7676     0.1746
  811   16.200   3308.04     3.2520     0.1037     0.8133     0.1620     3.5784     3.1596   259.2000     3.3192     0.1855
  812   16.220   3309.04     2.9991     0.0918     0.9390     0.1622     3.3824     3.0064   259.5200     3.1229     0.2404
  813   16.240   3310.05     2.9488     0.1014     0.9963     0.1624     3.3574     3.4363   259.8400     3.0975     0.2616
  814   16.260   3311.05     3.0788     0.1113     1.0633     0.1626     3.5165     3.7189   260.1600     3.2563     0.2701
  815   16.280   3312.08     3.5491     0.1173     0.9817     0.1628     3.9827     3.5131   260.4800     3.7222     0.2340
  816   16.300   3313.08     4.1595     0.1272     0.8516     0.1630     4.5336     3.0758   260.8000     4.2728     0.1706
  817   16.320   3314.12     4.7235     0.1290     0.7007     0.1632     5.0391     2.8109   261.1200     4.7780     0.1232
  818   16.340   3315.12     5.0872     0.1261     0.6168     0.1634     5.3597     2.5596   261.4400     5.0983     0.0953
  819   16.360   3316.09     5.1259     0.1331     0.5030     0.1636     5.3541     2.5969   261.7600     5.0923     0.0746
  820   16.380   3317.15     5.1988     0.1309     0.4572     0.1638     5.3842     2.5206   262.0800     5.1222     0.0542
  821   16.400   3318.18     5.2243     0.1388     0.4092     0.1640     5.4117     2.6322   262.4000     5.1493     0.0548
  822   16.420   3319.18     5.0799     0.1392     0.4719     0.1642     5.2635     2.7001   262.7200     5.0008     0.0546
  823   16.440   3320.21     4.7273     0.1330     0.5126     0.1644     4.9462     2.7229   263.0400     4.6832     0.0762
  824   16.460   3321.19     4.5936     0.1345     0.4922     0.1646     4.7998     2.9230   263.3600     4.5364     0.0720
  825   16.480   3322.25     4.8691     0.1458     0.4730     0.1648     5.0869     3.0764   263.6800     4.8233     0.0734
  826   16.500   3323.28     5.5726     0.1522     0.4008     0.1650     5.7453     2.8978   264.0000     5.4813     0.0450
  827   16.520   3324.31     6.2747     0.1541     0.3666     0.1652     6.4343     2.5446   264.3200     6.1699     0.0348
  828   16.540   3325.34     6.6708     0.1572     0.2567     0.1654     6.7959     2.3916   264.6400     6.5312     0.0203
  829   16.560   3326.44     6.7034     0.1620     0.2167     0.1656     6.7948     2.4199   264.9600     6.5299     0.0080
  830   16.580   3327.49     6.6091     0.1624     0.2320     0.1658     6.7097     2.4351   265.2800     6.4444     0.0114
  831   16.600   3328.52     6.4747     0.1620     0.1551     0.1660     6.5512     2.4763   265.6000     6.2856     0.0026
  832   16.620   3329.52     6.1885     0.1569     0.0483     0.1662     6.2239     2.4655   265.9200     5.9580    -0.0139
  833   16.640   3330.57     5.7709     0.1522     0.0311     0.1664     5.7878     2.5590   266.2400     5.5215    -0.0229
  834   16.660   3331.60     5.5999     0.1415     0.0313     0.1666     5.6099     2.5017   266.5600     5.3433    -0.0267
  835   16.680   3332.62     5.5004     0.1288     0.0113     0.1668     5.5052     2.3303   266.8800     5.2383    -0.0297
  836   16.700   3333.62     5.4133     0.1069     0.0073     0.1670     5.4124     1.9687   267.2000     5.1452    -0.0329
  837   16.720   3334.67     5.3368     0.0928    -0.0111     0.1672     5.3417     1.7251   267.5200     5.0742    -0.0306
  838   16.740   3335.67     5.3433     0.0852    -0.0463     0.1674     5.3248     1.5945   267.8400     5.0569    -0.0418
  839   16.760   3336.71     5.4047     0.0824    -0.0242     0.1676     5.3952     1.5323   268.1600     5.1270    -0.0371
  840   16.780   3337.71     5.4549     0.0799     0.0054     0.1678     5.4501     1.4698   268.4800     5.1816    -0.0346
  841   16.800   3338.76     5.4495     0.0712    -0.0018     0.1680     5.4513     1.3059   268.8000     5.1825    -0.0316
  842   16.820   3339.77     5.3792     0.0682    -0.0043     0.1682     5.3719     1.2674   269.1200     5.1027    -0.0364
  843   16.840   3340.75     5.3721     0.0746     0.0135     0.1684     5.3772     1.3925   269.4400     5.1078    -0.0306
  844   16.860   3341.78     5.2941     0.0713     0.0251     0.1686     5.2993     1.3437   269.7600     5.0295    -0.0311
  845   16.880   3342.81     5.0567     0.0755     0.0631     0.1688     5.0746     1.4865   270.0800     4.8045    -0.0262
  846   16.900   3343.86     4.7034     0.0738     0.0938     0.1690     4.7436     1.5651   270.4000     4.4732    -0.0164
  847   16.920   3344.84     4.3614     0.0736     0.1281     0.1692     4.4111     1.6835   270.7200     4.1403    -0.0123
  848   16.940   3345.88     4.0068     0.0665     0.1882     0.1694     4.0737     1.6538   271.0400     3.8026    -0.0025
  849   16.960   3346.86     3.6317     0.0696     0.2098     0.1696     3.7220     1.8873   271.3600     3.4506     0.0131
  850   16.980   3347.85     3.2932     0.0724     0.1724     0.1698     3.3666     2.1006   271.6800     3.0949     0.0015
  851   17.000   3348.92     2.9571     0.0727     0.2030     0.1700     3.0383     2.4469   272.0000     2.7663     0.0085
  852   17.020   3349.92     2.7319     0.0664     0.2485     0.1702     2.8288     2.4078   272.3200     2.5565     0.0238
  853   17.040   3350.92     2.6871     0.0587     0.2956     0.1704     2.8037     2.1739   272.6400     2.5310     0.0423
  854   17.060   3351.94     2.7362     0.0554     0.3024     0.1706     2.8620     2.0556   272.9600     2.5890     0.0498
  855   17.080   3352.99     2.9680     0.0568     0.3142     0.1708     3.1001     1.9258   273.2800     2.8268     0.0508
  856   17.100   3353.98     3.0792     0.0513     0.3111     0.1710     3.2084     1.6687   273.6000     2.9348     0.0466
  857   17.120   3355.01     3.0749     0.0485     0.3147     0.1712     3.2079     1.5744   273.9200     2.9340     0.0496
  858   17.140   3356.06     3.0034     0.0537     0.3124     0.1714     3.1328     1.7834   274.2400     2.8586     0.0478
  859   17.160   3357.04     2.9171     0.0550     0.3334     0.1716     3.0568     1.8816   274.5600     2.7823     0.0579
  860   17.180   3358.03     2.9048     0.0524     0.3378     0.1718     3.0434     1.8051   274.8800     2.7685     0.0571
  861   17.200   3359.02     2.9635     0.0505     0.3605     0.1720     3.1122     1.7232   275.2000     2.8370     0.0641
  862   17.220   3360.04     3.0578     0.0546     0.3576     0.1722     3.2090     1.7894   275.5200     2.9334     0.0640
  863   17.240   3361.07     3.2237     0.0584     0.3649     0.1724     3.3746     1.8160   275.8400     3.0987     0.0603
  864   17.260   3362.08     3.3790     0.0551     0.3968     0.1726     3.5423     1.6796   276.1600     3.2662     0.0662
  865   17.280   3363.11     3.8114     0.0624     0.4068     0.1728     3.9820     1.6970   276.4800     3.7055     0.0630
  866   17.300   3364.13     4.1049     0.0742     0.3962     0.1730     4.2725     1.8242   276.8000     3.9957     0.0566
  867   17.320   3365.13     4.1028     0.0700     0.3576     0.1732     4.2604     1.7065   277.1200     3.9833     0.0508
  868   17.340   3366.10     4.6547     0.0611     0.3776     0.1734     4.8040     1.4306   277.4400     4.5266     0.0403
  869   17.360   3367.18     7.0252     0.0574     0.3448     0.1736     7.1837     0.9527   277.7600     6.9059     0.0296
  870   17.380   3368.33    11.6321     0.0633     0.1808     0.1738    11.7305     0.6555   278.0800    11.4524     0.0055
  871   17.400   3369.47    15.1660     0.0938    -0.0730     0.1740    15.1771     0.6210   278.4000    14.8987    -0.0097
  872   17.420   3370.59    18.5619     0.1283    -0.1495     0.1742    18.5032     0.7069   278.7200    18.2245    -0.0172
  873   17.440   3371.72    21.8653     0.1636    -0.1553     0.1744    21.8054     0.7691   279.0400    21.5264    -0.0147
  874   17.460   3372.88    24.6333     0.1984    -0.1723     0.1746    24.5648     0.8324   279.3600    24.2854    -0.0139
  875   17.480   3374.01    26.7978     0.2333    -0.1470     0.1748    26.7320     0.8956   279.6800    26.4523    -0.0125
  876   17.500   3375.02    28.3229     0.2651    -0.0961     0.1750    28.2753     0.9526   280.0000    27.9953    -0.0103
  877   17.520   3376.05    29.6995     0.2838    -0.0594     0.1752    29.6707     0.9713   280.3200    29.3903    -0.0083
  878   17.540   3377.11    31.1032     0.2990    -0.0020     0.1754    31.0939     0.9821   280.6400    30.8133    -0.0064
  879   17.560   3390.94    32.3619     0.3178     0.0486     0.1756    32.3750     1.0169   280.9600    32.0940    -0.0046
  880   17.580   3406.09    33.5846     0.3343     0.0991     0.1758    33.6189     1.0696   281.2800    33.3376    -0.0029
  881   17.600   3420.26    34.7554     0.3511     0.1223     0.1760    34.8090     1.0363   281.6000    34.5274    -0.0014
  882   17.620   3421.27    35.1668     0.3612     0.1256     0.1762    35.2138     1.0284   281.9200    34.9319    -0.0018
  883   17.640   3422.26    35.2792     0.3673     0.1332     0.1764    35.3272     1.0413   282.2400    35.0450    -0.0018
  884   17.660   3423.24    35.0622     0.3671     0.1272     0.1766    35.1195     1.0459   282.5600    34.8369    -0.0012
  885   17.680   3424.21    34.5637     0.3618     0.1143     0.1768    34.6117     1.0446   282.8800    34.3288    -0.0018
  886   17.700   3425.18    33.6889     0.3396     0.1415     0.1770    33.7484     1.0007   283.2000    33.4652    -0.0011
  887   17.720   3426.20    32.8706     0.3115     0.1270     0.1772    32.9244     0.9416   283.5200    32.6409    -0.0015
  888   17.740   3427.18    31.7729     0.2915     0.1399     0.1774    31.8244     0.9100   283.8400    31.5406    -0.0017
  889   17.760   3428.15    30.7414     0.2818     0.1517     0.1776    30.8075     0.9111   284.1600    30.5233    -0.0007
  890   17.780   3429.14    29.8840     0.2800     0.1602     0.1778    29.9527     0.9336   284.4800    29.6682    -0.0005
  891   17.800   3430.06    29.3573     0.2726     0.1476     0.1780    29.4206     0.9272   284.8000    29.1358    -0.0009
  892   17.820   3431.02    29.2845     0.2607     0.1526     0.1782    29.3457     0.8905   285.1200    29.0605    -0.0011
  893   17.840   3432.05    29.8449     0.2616     0.1744     0.1784    29.9161     0.8802   285.4400    29.6306    -0.0003
  894   17.860   3433.09    30.5665     0.2795     0.1804     0.1786    30.6434     0.9152   285.7600    30.3576     0.0001
  895   17.880   3434.10    31.3399     0.3014     0.1383     0.1788    31.4031     0.9650   286.0800    31.1170    -0.0009
  896   17.900   3435.07    31.8761     0.3133     0.1195     0.1790    31.9283     0.9844   286.4000    31.6419    -0.0017
  897   17.920   3436.07    32.3493     0.3028     0.1147     0.1792    32.3991     0.9371   286.7200    32.1124    -0.0019
  898   17.940   3437.13    32.8278     0.2893     0.1147     0.1794    32.8757     0.8819   287.0400    32.5886    -0.0020
  899   17.960   3438.10    32.8943     0.2824     0.1074     0.1796    32.9419     0.8585   287.3600    32.6545    -0.0020
  900   17.980   3439.10    32.9571     0.2812     0.1086     0.1798    33.0025     0.8551   287.6800    32.7148    -0.0022
  901   18.000   3440.06    33.7399     0.2844     0.1159     0.1800    33.7892     0.8439   288.0000    33.5012    -0.0019
  902   18.020   3441.11    34.9373     0.2907     0.1254     0.1802    34.9875     0.8346   288.3200    34.6992    -0.0018
  903   18.040   3442.19    35.4368     0.2968     0.1276     0.1804    35.4875     0.8379   288.6400    35.1989    -0.0017
  904   18.060   3443.20    35.2454     0.3039     0.1504     0.1806    35.3023     0.8614   288.9600    35.0133    -0.0013
  905   18.080   3444.21    34.7126     0.3115     0.1566     0.1808    34.7776     0.8960   289.2800    34.4883    -0.0008
  906   18.100   3445.13    34.0794     0.3218     0.1661     0.1810    34.1500     0.9377   289.6000    33.8604    -0.0004
  907   18.120   3446.17    33.8003     0.3283     0.1810     0.1812    33.8773     0.9703   289.9200    33.5874     0.0001
  908   18.140   3447.16    33.9193     0.3347     0.1574     0.1814    33.9912     0.9889   290.2400    33.7009    -0.0003
  909   18.160   3448.19    34.4630     0.3401     0.1743     0.1816    34.5371     0.9879   290.5600    34.2465    -0.0002
  910   18.180   3449.23    35.2905     0.3511     0.1707     0.1818    35.3654     0.9959   290.8800    35.0746    -0.0001
  911   18.200   3450.21    36.1803     0.3675     0.1722     0.1820    36.2484     1.0271   291.2000    35.9572    -0.0006
  912   18.220   3451.26    37.4472     0.3835     0.1775     0.1822    37.5202     1.0395   291.5200    37.2287    -0.0002
  913   18.240   3452.30    38.5186     0.3972     0.1939     0.1824    38.6008     1.0326   291.8400    38.3090     0.0004
  914   18.260   3453.27    39.0598     0.4022     0.1526     0.1826    39.1282     1.0356   292.1600    38.8361    -0.0005
  915   18.280   3454.26    39.2302     0.3961     0.1156     0.1828    39.2715     1.0134   292.4800    38.9791    -0.0022
  916   18.300   3455.38    39.4653     0.3900     0.1184     0.1830    39.5140     0.9911   292.8000    39.2212    -0.0017
  917   18.320   3456.38    39.4951     0.3861     0.1640     0.1832    39.5552     0.9767   293.1200    39.2621    -0.0010
  918   18.340   3457.39    39.4824     0.3837     0.1490     0.1834    39.5471     0.9718   293.4400    39.2537    -0.0007
  919   18.360   3458.41    39.5054     0.3819     0.1496     0.1836    39.5659     0.9673   293.7600    39.2721    -0.0010
  920   18.380   3460.41    39.4640     0.3830     0.1468     0.1838    39.5261     0.9683   294.0800    39.2320    -0.0009
  921   18.400   3462.84    39.3340     0.3831     0.1439     0.1840    39.3948     0.9685   294.4000    39.1004    -0.0010
  922   18.420   3465.24    39.2024     0.3766     0.1543     0.1842    39.2623     0.9543   294.7200    38.9676    -0.0011
  923   18.440   3466.33    39.0626     0.3619     0.1542     0.1844    39.1304     0.9254   295.0400    38.8353    -0.0006
  924   18.460   3467.39    38.9791     0.3609     0.1820     0.1846    39.0504     0.9256   295.3600    38.7551    -0.0004
  925   18.480   3468.41    39.0815     0.3642     0.1745     0.1848    39.1591     0.9344   295.6800    38.8634     0.0000
  926   18.500   3469.44    39.6914     0.3627     0.1668     0.1850    39.7621     0.9164   296.0000    39.4661    -0.0004
  927   18.520   3470.45    40.8392     0.3535     0.1705     0.1852    40.9111     0.8672   296.3200    40.6148    -0.0003
  928   18.540   3471.50    41.9285                0.1566     0.1854    41.9981              296.6400    41.7015    -0.0005
  929   18.560   3472.54    42.6777                0.1708     0.1856    42.7480              296.9600    42.4511    -0.0004
  930   18.580   3473.64    43.5741                0.1587     0.1858    43.6438              297.2800    43.3466    -0.0005
  931   18.600   3474.68    44.3258                0.1551     0.1860    44.3891              297.6000    44.0915    -0.0008
  932   18.620   3481.81    44.4729                0.1696     0.1862    44.5420              297.9200    44.2441    -0.0005
  933   18.633   3486.75    44.5566                           0.1863    44.6298              298.1357    44.3317    -0.0003
 
 
