

 Program UNIPLOT                         version 05.36.02
 _______________
 (c) Fugro Netherlands Marine, Nootdorp, The Netherlands


 ASCII representation of data plotted on a graph.

 This ASCII file presents data interpolated to values per fixed depth interval.
 The data are corrected for the depth-offset differences between the various 
 transducers in the penetrometer.

 The records at the start of penetration may include no values or anomalous
 values where a depth offset implies incomplete penetration of a particular
 sensor into the ground.

 The records at the end of penetration may include no values for data channels
 where the transducer did not reach this depth.

 The reference level for test values is (1) the ground surface for onshore tests and (2) the seafloor for nearshore and offshore tests.

 UNICAS data file          : CPT-2013(S).000                         
 Output using command file : PlotASCII.cmd

 ASCII file created at : date          :24-May-2022
                         time          :16:07:25
 Project number                        :20024805                                                                                            
 Date of testing                       :26-Apr-2022                                                                                         
 Location                              :Hong Kong Offshore Wind Farm Project                                                                
 Test name                             :CPT-2013(S)
 Penetrometer                          :F7.5CKE2X3S\B\2753
 Serial no                             :1701-2753

 Table description:
 Column ID                             :Parameter name
 ___________________________________________________________________________________
 Rec                                   :Record ID, Record ID [-]
 Depth                                 :Depth, Depth [m]
 Time                                  :Time, Time [s]
 Cone                                  :Cone Resistance, Cone Resistance [MPa]
 Friction                              :Sleeve Friction, Sleeve Friction [MPa]
 Pore 2                                :Porewater Pressure, Porewater Pressure at Shoulder [MPa]
 HydroPress                            :Hydrostatic Pressure, Hydrostatic Pressure [MPa]
 qt                                    :Total Cone Resistance, Total Cone Resistance [MPa]
 Fric_ratio                            :Friction Ratio, Friction Ratio [%]
 SigmaVert                             :Vertical stress, Vertical stress [kPa] as specified in ground model
 Qnet                                  :Net Cone Resistance, Net Cone Resistance [MPa], unit weight as specified in ground model
 Bq                                    :Porewater Pressure Ratio, Porewater Pressure Ratio [-], unit weight as specified in ground model


 Data table:
  Rec    Depth      Time       Cone   Friction     Pore 2 HydroPress         qt Fric_ratio  SigmaVert       Qnet         Bq
   No        m         s        MPa        MPa        MPa        MPa        MPa          %        kPa        MPa          -
    1    0.000   2562.50     0.0000                           0.0000     0.0000                0.0000     0.0000           
    2    0.020   2563.55     0.0015                0.0007     0.0002     0.0017                0.3200     0.0014     0.2094
    3    0.040   2564.50     0.0036                0.0008     0.0004     0.0038                0.6400     0.0032     0.0599
    4    0.060   2565.51     0.0047     0.0005     0.0013     0.0006     0.0053     9.8931     0.9600     0.0044     0.1854
    5    0.080   2566.51     0.0049     0.0005     0.0011     0.0008     0.0056    10.5108     1.2800     0.0043     0.1863
    6    0.100   2567.51     0.0063     0.0006     0.0021     0.0010     0.0063     9.8516     1.6000     0.0047    -0.1917
    7    0.120   2568.51     0.0050     0.0007     0.0042     0.0012     0.0065    13.0625     1.9200     0.0046     0.5275
    8    0.140   2569.51     0.0071     0.0008     0.0043     0.0014     0.0090    11.5188     2.2400     0.0068     0.4653
    9    0.160   2570.51     0.0084     0.0009     0.0049     0.0016     0.0104    10.6924     2.5600     0.0079     0.4011
   10    0.180   2571.52     0.0102     0.0010     0.0039     0.0018     0.0120    10.2248     2.8800     0.0091     0.2873
   11    0.200   2572.52     0.0107     0.0011     0.0039     0.0020     0.0123    10.1960     3.2000     0.0091     0.1919
   12    0.220   2573.52     0.0098     0.0012     0.0046     0.0022     0.0118    11.6991     3.5200     0.0083     0.3234
   13    0.240   2574.52     0.0111     0.0013     0.0046     0.0024     0.0129    11.7217     3.8400     0.0091     0.2014
   14    0.260   2575.52     0.0124     0.0013     0.0066     0.0026     0.0146    11.1652     4.1600     0.0104     0.2437
   15    0.280   2576.47     0.0113     0.0014     0.0093     0.0028     0.0149    12.6727     4.4800     0.0104     0.5567
   16    0.300   2577.52     0.0105     0.0014     0.0083     0.0030     0.0142    13.4361     4.8000     0.0094     0.6135
   17    0.320   2578.48     0.0112     0.0014     0.0076     0.0032     0.0144    12.7975     5.1200     0.0093     0.4727
   18    0.340   2579.48     0.0102     0.0015     0.0086     0.0034     0.0136    14.0951     5.4400     0.0081     0.5681
   19    0.360   2580.48     0.0093     0.0015     0.0102     0.0036     0.0134    16.5384     5.7600     0.0077     0.8130
   20    0.380   2581.48     0.0089     0.0016     0.0111     0.0038     0.0133    18.2009     6.0800     0.0072     0.9403
   21    0.400   2582.48     0.0091     0.0015     0.0110     0.0040     0.0138    17.1027     6.4000     0.0074     0.9900
   22    0.420   2583.48     0.0087     0.0015     0.0106     0.0042     0.0132    17.8132     6.7200     0.0065     1.0180
   23    0.440   2584.48     0.0075     0.0015     0.0107     0.0044     0.0118    20.2712     7.0400     0.0047     1.2476
   24    0.460   2585.49     0.0084     0.0015     0.0121     0.0046     0.0133    18.6438     7.3600     0.0059     1.2055
   25    0.480   2586.44     0.0090     0.0016     0.0131     0.0048     0.0143    18.2089     7.6800     0.0066     1.1955
   26    0.500   2587.44     0.0089     0.0016     0.0135     0.0050     0.0147    18.2392     8.0000     0.0067     1.2959
   27    0.520   2588.44     0.0101     0.0017     0.0133     0.0052     0.0158    16.8261     8.3200     0.0075     1.1329
   28    0.540   2589.44     0.0114     0.0018     0.0130     0.0054     0.0169    15.9571     8.6400     0.0083     0.9309
   29    0.560   2590.45     0.0117     0.0018     0.0122     0.0056     0.0170    16.1116     8.9600     0.0080     0.8654
   30    0.580   2591.45     0.0122     0.0019     0.0123     0.0058     0.0172    15.8611     9.2800     0.0079     0.7872
   31    0.600   2592.40     0.0116     0.0020     0.0122     0.0060     0.0169    16.0788     9.6000     0.0073     0.9000
   32    0.620   2593.40     0.0124     0.0021     0.0126     0.0062     0.0175    17.5157     9.9200     0.0076     0.7934
   33    0.640   2594.40     0.0128     0.0023     0.0134     0.0064     0.0183    18.9525    10.2400     0.0081     0.8347
   34    0.660   2595.35     0.0125     0.0022     0.0143     0.0066     0.0184    16.8467    10.5600     0.0079     0.9498
   35    0.680   2596.35     0.0137     0.0021     0.0142     0.0068     0.0197    15.3558    10.8800     0.0088     0.8568
   36    0.700   2599.35     0.0153     0.0020     0.0138     0.0070     0.0212    13.1044    11.2000     0.0100     0.7037
   37    0.720   2607.04     0.0144     0.0018     0.0135     0.0072     0.0201    11.5765    11.5200     0.0086     0.7728
   38    0.740   2614.73     0.0134     0.0017     0.0132     0.0074     0.0190    10.7513    11.8400     0.0072     0.8420
   39    0.760   2618.96     0.0132     0.0017     0.0149     0.0076     0.0193    12.7353    12.1600     0.0071     0.9650
   40    0.780   2620.01     0.0141     0.0017     0.0165     0.0078     0.0210    11.7932    12.4800     0.0085     1.0109
   41    0.800   2621.01     0.0142     0.0017     0.0166     0.0080     0.0213    12.3604    12.8000     0.0085     1.0300
   42    0.820   2621.92     0.0149     0.0019     0.0151     0.0082     0.0215    13.0464    13.1200     0.0084     0.8982
   43    0.840   2622.92     0.0140     0.0020     0.0146     0.0084     0.0202    14.0436    13.4400     0.0067     0.9210
   44    0.860   2623.93     0.0118     0.0020     0.0153     0.0086     0.0181    16.4893    13.7600     0.0043     1.4878
   45    0.880   2624.92     0.0115     0.0020     0.0163     0.0088     0.0181    17.8587    14.0800     0.0040     1.7393
   46    0.900   2625.88     0.0151     0.0019     0.0180     0.0090     0.0223    13.3269    14.4000     0.0079     1.0355
   47    0.920   2626.87     0.0156     0.0019     0.0216     0.0092     0.0241    11.8808    14.7200     0.0094     1.1693
   48    0.940   2627.84     0.0164     0.0018     0.0206     0.0094     0.0254    11.0749    15.0400     0.0104     1.1601
   49    0.960   2628.83     0.0191     0.0018     0.0218     0.0096     0.0279     9.5887    15.3600     0.0125     0.9065
   50    0.980   2629.83     0.0217     0.0018     0.0240     0.0098     0.0316     8.4305    15.6800     0.0160     0.8629
   51    1.000   2630.83     0.0227     0.0019     0.0208     0.0100     0.0318     8.7476    16.0000     0.0158     0.7359
   52    1.020   2631.80     0.0232     0.0020     0.0228     0.0102     0.0326     8.5875    16.3200     0.0163     0.7412
   53    1.040   2632.78     0.0234     0.0021     0.0229     0.0104     0.0330     8.7744    16.6400     0.0164     0.7671
   54    1.060   2633.73     0.0241     0.0021     0.0234     0.0106     0.0338     8.8433    16.9600     0.0169     0.7373
   55    1.080   2634.74     0.0257     0.0022     0.0246     0.0108     0.0357     8.7480    17.2800     0.0185     0.7156
   56    1.100   2635.74     0.0279     0.0022     0.0248     0.0110     0.0383     7.9354    17.6000     0.0207     0.6659
   57    1.120   2636.69     0.0278     0.0022     0.0262     0.0112     0.0387     8.1155    17.9200     0.0208     0.7108
   58    1.140   2637.69     0.0296     0.0023     0.0261     0.0114     0.0404     7.7872    18.2400     0.0222     0.6534
   59    1.160   2638.64     0.0293     0.0023     0.0288     0.0116     0.0411     7.6566    18.5600     0.0225     0.7321
   60    1.180   2639.63     0.0295     0.0023     0.0283     0.0118     0.0413     7.9712    18.8800     0.0224     0.7316
   61    1.200   2640.60     0.0292     0.0023     0.0295     0.0120     0.0412     7.9866    19.2000     0.0220     0.7506
   62    1.220   2641.59     0.0310     0.0025     0.0322     0.0122     0.0433     8.0946    19.5200     0.0238     0.7204
   63    1.240   2642.55     0.0323     0.0025     0.0351     0.0124     0.0465     7.6591    19.8400     0.0267     0.8023
   64    1.260   2643.55     0.0337     0.0023     0.0368     0.0126     0.0490     6.9927    20.1600     0.0288     0.8225
   65    1.280   2644.50     0.0356     0.0024     0.0359     0.0128     0.0512     6.7427    20.4800     0.0307     0.7932
   66    1.300   2645.50     0.0385     0.0026     0.0375     0.0130     0.0541     6.7766    20.8000     0.0333     0.7270
   67    1.320   2646.50     0.0390     0.0031     0.0397     0.0132     0.0553     7.9117    21.1200     0.0342     0.7480
   68    1.340   2647.46     0.0583     0.0033     0.0365     0.0134     0.0745     6.7538    21.4400     0.0531     0.4829
   69    1.360   2648.46     0.0553     0.0032     0.0344     0.0136     0.0698     5.7513    21.7600     0.0481     0.4359
   70    1.380   2649.46     0.0536     0.0033     0.0324     0.0138     0.0676     6.2079    22.0800     0.0455     0.4287
   71    1.400   2650.41     0.0530     0.0034     0.0354     0.0140     0.0667     6.1070    22.4000     0.0443     0.4225
   72    1.420   2651.41     0.0445     0.0032     0.0440     0.0142     0.0631     6.9991    22.7200     0.0404     0.7443
   73    1.440   2652.41     0.0378     0.0031     0.0472     0.0144     0.0580     7.4021    23.0400     0.0350     0.9652
   74    1.460   2653.37     0.0379     0.0031     0.0462     0.0146     0.0569     7.8116    23.3600     0.0336     0.9122
   75    1.480   2654.37     0.0363     0.0031     0.0491     0.0148     0.0567     8.2505    23.6800     0.0330     1.0226
   76    1.500   2655.37     0.0376     0.0030     0.0481     0.0150     0.0581     8.1691    24.0000     0.0341     0.9888
   77    1.520   2656.32     0.0388     0.0031     0.0473     0.0152     0.0586     8.2283    24.3200     0.0343     0.9308
   78    1.540   2661.79     0.0430     0.0032     0.0457     0.0154     0.0627     7.6399    24.6400     0.0380     0.8276
   79    1.560   2676.71     0.0451     0.0032     0.0422     0.0156     0.0634     7.5978    24.9600     0.0384     0.7261
   80    1.580   2691.64     0.0473     0.0032     0.0391     0.0158     0.0641     7.6587    25.2800     0.0388     0.6245
   81    1.600   2697.21     0.0489     0.0033     0.0442     0.0160     0.0671     6.8094    25.6000     0.0415     0.6562
   82    1.620   2698.18     0.0510     0.0032     0.0467     0.0162     0.0704     6.4211    25.9200     0.0445     0.6717
   83    1.640   2699.16     0.0525     0.0034     0.0454     0.0164     0.0719     6.5425    26.2400     0.0456     0.6491
   84    1.660   2700.13     0.0554     0.0035     0.0452     0.0166     0.0743     6.4384    26.5600     0.0477     0.5938
   85    1.680   2701.12     0.0563     0.0038     0.0453     0.0168     0.0751     6.8165    26.8800     0.0483     0.5827
   86    1.700   2702.08     0.0600     0.0042     0.0457     0.0170     0.0791     7.1029    27.2000     0.0519     0.5523
   87    1.720   2703.03     0.0672     0.0044     0.0451     0.0172     0.0857     6.9094    27.5200     0.0582     0.4628
   88    1.740   2704.03     0.0731     0.0045     0.0423     0.0174     0.0910     6.3429    27.8400     0.0631     0.3970
   89    1.760   2704.94     0.0765     0.0048     0.0360     0.0176     0.0928     6.3262    28.1600     0.0646     0.3277
   90    1.780   2705.82     0.0776     0.0052     0.0336     0.0178     0.0918     6.6118    28.4800     0.0633     0.2523
   91    1.800   2706.74     0.0780     0.0055     0.0359     0.0180     0.0925     7.0162    28.8000     0.0637     0.2591
   92    1.820   2707.69     0.0781     0.0059     0.0395     0.0182     0.0940     7.5780    29.1200     0.0649     0.3020
   93    1.840   2708.69     0.0815     0.0060     0.0380     0.0184     0.0981     7.5004    29.4400     0.0686     0.3078
   94    1.860   2709.68     0.0827     0.0063     0.0345     0.0186     0.0984     7.7040    29.7600     0.0686     0.2712
   95    1.880   2710.65     0.0845     0.0069     0.0268     0.0188     0.0965     8.1864    30.0800     0.0664     0.1494
   96    1.900   2711.65     0.0853     0.0072     0.0233     0.0190     0.0949     8.5966    30.4000     0.0645     0.0623
   97    1.920   2712.64     0.0849     0.0076     0.0262     0.0192     0.0954     9.0030    30.7200     0.0647     0.0912
   98    1.940   2713.64     0.0835     0.0077     0.0255     0.0194     0.0946     9.2177    31.0400     0.0636     0.1114
   99    1.960   2714.64     0.0838     0.0075     0.0318     0.0196     0.0969     8.9090    31.3600     0.0655     0.1780
  100    1.980   2715.60     0.0851     0.0073     0.0348     0.0198     0.1000     8.6335    31.6800     0.0683     0.2301
  101    2.000   2717.48     0.0833     0.0072     0.0390     0.0200     0.0990     8.5800    32.0000     0.0670     0.2598
  102    2.020   2719.94     0.0820     0.0067     0.0436     0.0202     0.0997     7.9403    32.3200     0.0674     0.3230
  103    2.040   2722.40     0.0808     0.0062     0.0464     0.0204     0.1003     7.3811    32.6400     0.0677     0.3863
  104    2.060   2723.30     0.0819     0.0060     0.0468     0.0206     0.1015     7.3489    32.9600     0.0685     0.3805
  105    2.080   2724.21     0.0845     0.0057     0.0426     0.0208     0.1032     6.8151    33.2800     0.0699     0.3384
  106    2.100   2725.19     0.0851     0.0057     0.0443     0.0210     0.1031     6.7566    33.6000     0.0695     0.3120
  107    2.120   2726.16     0.0867     0.0057     0.0382     0.0212     0.1049     6.6651    33.9200     0.0710     0.3100
  108    2.140   2727.12     0.0899     0.0056     0.0407     0.0214     0.1069     6.3050    34.2400     0.0727     0.2630
  109    2.160   2728.11     0.0937     0.0058     0.0398     0.0216     0.1100     6.3150    34.5600     0.0755     0.2276
  110    2.180   2729.06     0.0950     0.0060     0.0372     0.0218     0.1113     6.3483    34.8800     0.0764     0.2219
  111    2.200   2730.06     0.0950     0.0061     0.0365     0.0220     0.1087     6.4263    35.2000     0.0735     0.1439
  112    2.220   2731.02     0.0932     0.0062     0.0351     0.0222     0.1087     6.6325    35.5200     0.0732     0.2022
  113    2.240   2732.02     0.0936     0.0062     0.0344     0.0224     0.1080     6.5798    35.8400     0.0721     0.1629
  114    2.260   2732.97     0.0920     0.0060     0.0333     0.0226     0.1065     6.5099    36.1600     0.0703     0.1686
  115    2.280   2733.93     0.0895     0.0060     0.0358     0.0228     0.1039     6.6279    36.4800     0.0674     0.1697
  116    2.300   2734.93     0.0882     0.0057     0.0402     0.0230     0.1043     6.5054    36.8000     0.0675     0.2273
  117    2.320   2735.93     0.0859     0.0054     0.0474     0.0232     0.1045     6.1668    37.1200     0.0674     0.3114
  118    2.340   2736.89     0.0843     0.0053     0.0554     0.0234     0.1067     6.2636    37.4400     0.0693     0.4327
  119    2.360   2737.85     0.0835     0.0051     0.0559     0.0236     0.1070     6.1298    37.7600     0.0692     0.4654
  120    2.380   2738.80     0.0807     0.0050     0.0564     0.0238     0.1045     6.1442    38.0800     0.0664     0.4941
  121    2.400   2739.78     0.0763     0.0051     0.0540     0.0240     0.0994     6.5900    38.4000     0.0610     0.5092
  122    2.420   2740.79     0.0746     0.0050     0.0513     0.0242     0.0966     6.7232    38.7200     0.0579     0.4857
  123    2.440   2741.79     0.0738     0.0051     0.0495     0.0244     0.0945     6.8561    39.0400     0.0555     0.4506
  124    2.460   2742.74     0.0717     0.0054     0.0512     0.0246     0.0929     7.5048    39.3600     0.0536     0.4859
  125    2.480   2743.74     0.0701     0.0052     0.0462     0.0248     0.0907     7.3252    39.6800     0.0510     0.4725
  126    2.500   2744.69     0.0709     0.0052     0.0392     0.0250     0.0897     7.3291    40.0000     0.0497     0.3946
  127    2.520   2745.68     0.0760     0.0051     0.0277     0.0252     0.0886     6.8311    40.3200     0.0482     0.0954
  128    2.540   2746.64     0.0797     0.0051     0.0346     0.0254     0.0923     6.3839    40.6400     0.0517     0.0890
  129    2.560   2747.63     0.0752     0.0049     0.0513     0.0256     0.0949     6.4176    40.9600     0.0540     0.3958
  130    2.580   2748.60     0.0713     0.0049     0.0580     0.0258     0.0949     6.8983    41.2800     0.0536     0.5674
  131    2.600   2749.59     0.0685     0.0050     0.0594     0.0260     0.0934     7.2656    41.6000     0.0518     0.6402
  132    2.620   2750.59     0.0680     0.0049     0.0602     0.0262     0.0934     7.1264    41.9200     0.0515     0.6655
  133    2.640   2751.55     0.0672     0.0047     0.0618     0.0264     0.0931     7.0119    42.2400     0.0509     0.6950
  134    2.660   2752.50     0.0670     0.0048     0.0584     0.0266     0.0921     7.2387    42.5600     0.0495     0.6673
  135    2.680   2753.50     0.0721     0.0054     0.0592     0.0268     0.0965     7.5808    42.8800     0.0536     0.5824
  136    2.700   2754.46     0.0827     0.0051     0.0673     0.0270     0.1095     6.3219    43.2000     0.0663     0.5563
  137    2.720   2755.42     0.0801     0.0049     0.0704     0.0272     0.1099     6.0585    43.5200     0.0664     0.6589
  138    2.740   2756.37     0.0793     0.0047     0.0414     0.0274     0.1034     5.8735    43.8400     0.0595     0.4975
  139    2.760   2757.37     0.0670     0.0043     0.0466     0.0276     0.0830     6.3179    44.1600     0.0388     0.2658
  140    2.780   2758.33     0.0643     0.0041     0.0608     0.0278     0.0887     6.3945    44.4800     0.0442     0.6829
  141    2.800   2759.35     0.0660     0.0043     0.0618     0.0280     0.0918     6.3973    44.8000     0.0470     0.7123
  142    2.820   2760.31     0.0680     0.0037     0.0614     0.0282     0.0944     5.4277    45.1200     0.0493     0.7056
  143    2.840   2761.27     0.0668     0.0037     0.0593     0.0284     0.0911     5.4997    45.4400     0.0457     0.6439
  144    2.860   2762.24     0.0710     0.0038     0.0621     0.0286     0.0967     5.4538    45.7600     0.0509     0.6403
  145    2.880   2763.22     0.0770     0.0038     0.0606     0.0288     0.1031     5.0997    46.0800     0.0571     0.5887
  146    2.900   2764.19     0.0871     0.0042     0.0660     0.0290     0.1142     4.9220    46.4000     0.0678     0.5254
  147    2.920   2765.20     0.0899     0.0043     0.0710     0.0292     0.1188     4.7737    46.7200     0.0721     0.5485
  148    2.940   2766.17     0.0902     0.0045     0.0614     0.0294     0.1177     4.9590    47.0400     0.0707     0.5101
  149    2.960   2767.12     0.0906     0.0049     0.0569     0.0296     0.1143     5.3717    47.3600     0.0670     0.4025
  150    2.980   2768.11     0.0911     0.0053     0.0611     0.0298     0.1160     5.7845    47.6800     0.0683     0.4308
  151    3.000   2769.08     0.0927     0.0056     0.0673     0.0300     0.1198     6.0802    48.0000     0.0718     0.4788
  152    3.020   2770.03     0.0939     0.0056     0.0734     0.0302     0.1237     5.9814    48.3200     0.0753     0.5391
  153    3.040   2770.98     0.0913     0.0054     0.0758     0.0304     0.1231     5.8906    48.6400     0.0744     0.6066
  154    3.060   2784.22     0.0985     0.0052     0.0763     0.0306     0.1304     5.6710    48.9600     0.0815     0.5668
  155    3.080   2797.73     0.1058     0.0050     0.0769     0.0308     0.1380     5.5095    49.2800     0.0888     0.5251
  156    3.100   2811.24     0.1132     0.0049     0.0801     0.0310     0.1457     4.7358    49.6000     0.0961     0.4834
  157    3.120   2814.02     0.1173     0.0049     0.0858     0.0312     0.1548     4.2109    49.9200     0.1049     0.5551
  158    3.140   2814.66     0.1196     0.0049     0.0838     0.0314     0.1542     4.1153    50.2400     0.1040     0.4898
  159    3.160   2815.30     0.1221     0.0049     0.0831     0.0316     0.1574     4.0564    50.5600     0.1068     0.4901
  160    3.180   2815.93     0.1245     0.0052     0.0738     0.0318     0.1559     4.1981    50.8800     0.1050     0.4085
  161    3.200   2816.56     0.1275     0.0053     0.0759     0.0320     0.1591     4.2073    51.2000     0.1079     0.4001
  162    3.220   2817.21     0.1325     0.0054     0.0749     0.0322     0.1643     4.0577    51.5200     0.1128     0.3867
  163    3.240   2817.85     0.1326     0.0054     0.0751     0.0324     0.1641     4.0663    51.8400     0.1122     0.3782
  164    3.260   2818.47     0.1345     0.0052     0.0762     0.0326     0.1666     3.9839    52.1600     0.1145     0.3829
  165    3.280   2819.13     0.1304     0.0051     0.0830     0.0328     0.1633     3.9250    52.4800     0.1108     0.4109
  166    3.300   2819.76     0.1261     0.0049     0.0834     0.0330     0.1616     3.8843    52.8000     0.1088     0.4733
  167    3.320   2820.40     0.1218     0.0050     0.0739     0.0332     0.1545     3.9950    53.1200     0.1014     0.4398
  168    3.340   2821.03     0.1147     0.0053     0.0673     0.0334     0.1424     4.4012    53.4400     0.0890     0.3672
  169    3.360   2842.20     0.1175     0.0054     0.0747     0.0336     0.1475     4.7018    53.7600     0.0938     0.3999
  170    3.380   2911.31     0.1266     0.0055     0.0842     0.0338     0.1605     4.7651    54.0800     0.1065     0.4353
  171    3.400   2980.42     0.1356     0.0056     0.0915     0.0340     0.1736     4.7988    54.4000     0.1192     0.4708
  172    3.420   2998.23     0.1484     0.0067     0.0696     0.0342     0.1813     4.5955    54.7200     0.1266     0.3482
  173    3.440   2999.23     0.1765     0.0068     0.0867     0.0344     0.2096     4.1210    55.0400     0.1546     0.2858
  174    3.460   3000.21     0.2387     0.0073     0.0898     0.0346     0.2758     3.2250    55.3600     0.2205     0.2453
  175    3.480   3001.19     0.2765     0.0087     0.0710     0.0348     0.3111     3.2126    55.6800     0.2554     0.1857
  176    3.500   3002.19     0.2920     0.0097     0.0561     0.0350     0.3174     3.3757    56.0000     0.2614     0.0982
  177    3.520   3003.15     0.3324     0.0116     0.0776     0.0352     0.3593     3.5773    56.3200     0.3030     0.0937
  178    3.540   3004.11     0.3584     0.0141     0.0492     0.0354     0.3778     4.0104    56.6400     0.3212     0.0336
  179    3.560   3005.11     0.4170     0.0157     0.0205     0.0356     0.4314     3.9345    56.9600     0.3745    -0.0027
  180    3.580   3006.10     0.4558     0.0195     0.0254     0.0358     0.4659     4.3445    57.2800     0.4087    -0.0288
  181    3.600   3007.07     0.4796     0.0239     0.0154     0.0360     0.4841     5.0271    57.6000     0.4265    -0.0595
  182    3.620   3008.06     0.4786     0.0278     0.0278     0.0362     0.4906     5.8238    57.9200     0.4327    -0.0177
  183    3.640   3009.02     0.5093     0.0274     0.0367     0.0364     0.5240     5.4004    58.2400     0.4657    -0.0031
  184    3.660   3009.97     0.5689     0.0270     0.0533     0.0366     0.5849     5.1135    58.5600     0.5263     0.0027
  185    3.680   3010.93     0.5778     0.0272     0.0867     0.0368     0.6133     4.6622    58.8800     0.5544     0.0859
  186    3.700   3024.10     0.3889     0.0268     0.0825     0.0370     0.4236     6.6223    59.2000     0.3644     0.1261
  187    3.720   3025.57     0.5173     0.0264     0.0005     0.0372     0.5193     5.5187    59.5200     0.4597    -0.0706
  188    3.740   3026.57     0.5156     0.0254    -0.0265     0.0374     0.5116     4.9328    59.8400     0.4517    -0.1044
  189    3.760   3027.58     0.5501     0.0248    -0.0269     0.0376     0.5353     4.6498    60.1600     0.4751    -0.1533
  190    3.780   3028.58     0.6118     0.0242    -0.0019     0.0378     0.6097     4.0745    60.4800     0.5492    -0.0782
  191    3.800   3029.53     0.6684     0.0231     0.0372     0.0380     0.6828     3.4700    60.8000     0.6220    -0.0060
  192    3.820   3030.53     0.6786     0.0226     0.0480     0.0382     0.6982     3.3324    61.1200     0.6371     0.0134
  193    3.840   3031.48     0.6291     0.0235     0.0567     0.0384     0.6535     3.7019    61.4400     0.5920     0.0330
  194    3.860   3032.48     0.6489     0.0243     0.0597     0.0386     0.6729     3.7611    61.7600     0.6112     0.0305
  195    3.880   3033.48     0.6478     0.0237     0.0803     0.0388     0.6762     3.7125    62.0800     0.6142     0.0472
  196    3.900   3034.48     0.6159     0.0240     0.0584     0.0390     0.6481     3.8198    62.4000     0.5857     0.0644
  197    3.920   3035.43     0.5454     0.0226     0.0462     0.0392     0.5639     4.0264    62.7200     0.5012     0.0093
  198    3.940   3036.43     0.5372     0.0208     0.0718     0.0394     0.5625     4.0040    63.0400     0.4994     0.0415
  199    3.960   3037.43     0.5776     0.0202     0.1265     0.0396     0.6256     3.4383    63.3600     0.5623     0.1330
  200    3.980   3038.39     0.5508     0.0196     0.1584     0.0398     0.6144     3.5168    63.6800     0.5508     0.2030
  201    4.000   3039.34     0.5825     0.0192     0.1987     0.0400     0.6604     3.3370    64.0000     0.5964     0.2435
  202    4.020   3040.34     0.6263     0.0181     0.1739     0.0402     0.7044     2.9466    64.3200     0.6401     0.2280
  203    4.040   3041.34     0.6345     0.0190     0.1208     0.0404     0.6918     2.9646    64.6400     0.6272     0.1527
  204    4.060   3042.29     0.5831     0.0184     0.0942     0.0406     0.6287     3.0769    64.9600     0.5637     0.1203
  205    4.080   3043.27     0.5236     0.0176     0.0408     0.0408     0.5476     3.2587    65.2800     0.4823     0.0329
  206    4.100   3044.24     0.4375     0.0183    -0.0293     0.0410     0.4361     3.8972    65.6000     0.3705    -0.1266
  207    4.120   3045.24     0.3707     0.0193    -0.0628     0.0412     0.3451     5.1328    65.9200     0.2792    -0.3668
  208    4.140   3046.19     0.3372     0.0184    -0.0042     0.0414     0.3202     5.4024    66.2400     0.2539    -0.3258
  209    4.160   3047.18     0.3633     0.0175     0.0457     0.0416     0.3824     5.0740    66.5600     0.3158     0.0123
  210    4.180   3048.15     0.5086     0.0168     0.0165     0.0418     0.5181     3.6300    66.8800     0.4513    -0.0420
  211    4.200   3049.13     0.7313     0.0157     0.0348     0.0420     0.7399     2.2662    67.2000     0.6727    -0.0320
  212    4.220   3050.10     0.7539     0.0163     0.1410     0.0422     0.7910     2.1432    67.5200     0.7235     0.0644
  213    4.240   3051.10     0.6473     0.0180     0.1259     0.0424     0.7065     2.6874    67.8400     0.6387     0.1539
  214    4.260   3052.05     0.5943     0.0184     0.0713     0.0426     0.6321     3.0620    68.1600     0.5639     0.0838
  215    4.280   3053.05     0.5734     0.0182     0.0310     0.0428     0.5931     3.1578    68.4800     0.5246     0.0072
  216    4.300   3054.00     0.5282     0.0178    -0.0112     0.0430     0.5326     3.2823    68.8000     0.4638    -0.0706
  217    4.320   3055.00     0.5124     0.0182    -0.0263     0.0432     0.4994     3.4990    69.1200     0.4302    -0.1723
  218    4.340   3055.96     0.4565     0.0185    -0.0493     0.0434     0.4481     3.9137    69.4400     0.3787    -0.1670
  219    4.360   3056.95     0.4197     0.0178    -0.0728     0.0436     0.3898     4.1635    69.7600     0.3201    -0.3587
  220    4.380   3057.91     0.3643     0.0177    -0.0685     0.0438     0.3367     4.6031    70.0800     0.2666    -0.4115
  221    4.400   3058.87     0.3809     0.0166    -0.0668     0.0440     0.3522     4.3379    70.4000     0.2818    -0.3977
  222    4.420   3059.91     0.3902     0.0165    -0.0586     0.0442     0.3645     4.3008    70.7200     0.2938    -0.3589
  223    4.440   3060.86     0.3565     0.0178    -0.0731     0.0444     0.3278     4.8724    71.0400     0.2567    -0.4410
  224    4.460   3061.83     0.3557     0.0158    -0.0742     0.0446     0.3239     4.6144    71.3600     0.2525    -0.4770
  225    4.480   3062.81     0.3826     0.0134    -0.0426     0.0448     0.3575     3.5598    71.6800     0.2858    -0.3673
  226    4.500   3063.81     0.4488     0.0126     0.0180     0.0450     0.4499     2.9628    72.0000     0.3779    -0.1157
  227    4.520   3064.78     0.5371     0.0125     0.0642     0.0452     0.5559     2.3875    72.3200     0.4836    -0.0022
  228    4.540   3065.74     0.5187     0.0129     0.0882     0.0454     0.5561     2.3214    72.6400     0.4835     0.0915
  229    4.560   3066.71     0.4903     0.0144     0.0523     0.0456     0.5137     2.9378    72.9600     0.4407     0.0230
  230    4.580   3067.66     0.4697     0.0159    -0.0058     0.0458     0.4786     3.2954    73.2800     0.4053    -0.0604
  231    4.600   3068.67     0.4930     0.0187    -0.0221     0.0460     0.4854     3.9695    73.6000     0.4118    -0.1555
  232    4.620   3069.62     0.4569     0.0214    -0.0282     0.0462     0.4479     4.6435    73.9200     0.3740    -0.1807
  233    4.640   3070.57     0.4355     0.0193    -0.0510     0.0464     0.4198     4.4201    74.2400     0.3455    -0.2431
  234    4.660   3071.57     0.4016     0.0167    -0.0650     0.0466     0.3780     4.0695    74.5600     0.3034    -0.3403
  235    4.680   3072.64     0.3545     0.0138    -0.0542     0.0468     0.3279     3.8368    74.8800     0.2530    -0.4409
  236    4.700   3080.05     0.2556     0.0117    -0.0278     0.0470     0.2401     3.2825    75.2000     0.1649    -0.7886
  237    4.720   3087.46     0.1567     0.0106    -0.0014     0.0472     0.1523     2.9664    75.5200     0.0768    -1.1363
  238    4.740   3091.52     0.1011     0.0108     0.0400     0.0474     0.1157    10.5789    75.8400     0.0399    -0.3301
  239    4.760   3092.52     0.2276     0.0128     0.0008     0.0476     0.2317     7.0207    76.1600     0.1556    -0.2427
  240    4.780   3093.52     0.3776     0.0151    -0.0171     0.0478     0.3787     4.4546    76.4800     0.3022    -0.1492
  241    4.800   3094.48     0.5997     0.0171     0.0313     0.0480     0.6108     3.1001    76.8000     0.5340    -0.0420
  242    4.820   3095.48     0.7249     0.0185     0.0637     0.0482     0.7461     2.6319    77.1200     0.6690     0.0034
  243    4.840   3096.47     0.7771     0.0193     0.0740     0.0484     0.8018     2.4947    77.4400     0.7244     0.0144
  244    4.860   3097.43     0.7982     0.0219     0.0840     0.0486     0.8348     2.7397    77.7600     0.7570     0.0509
  245    4.880   3098.42     0.7872     0.0234     0.0819     0.0488     0.8170     3.1111    78.0800     0.7389     0.0302
  246    4.900   3099.38     0.7616     0.0248     0.1007     0.0490     0.8033     3.1765    78.4000     0.7249     0.0696
  247    4.920   3100.35     0.8293     0.0241     0.1249     0.0492     0.8796     2.9472    78.7200     0.8009     0.0879
  248    4.940   3101.33     0.7870     0.0230     0.0986     0.0494     0.8297     2.8817    79.0400     0.7506     0.0691
  249    4.960   3102.30     0.8496     0.0222     0.1761     0.0496     0.9078     2.6623    79.3600     0.8285     0.1066
  250    4.980   3103.28     0.8624     0.0226     0.1969     0.0498     0.9503     2.5725    79.6800     0.8707     0.1830
  251    5.000   3104.29     0.8453     0.0230     0.2178     0.0500     0.9355     2.6914    80.0000     0.8555     0.1928
  252    5.020   3105.29     0.7529     0.0234     0.1589     0.0502     0.8288     3.0048    80.3200     0.7485     0.1739
  253    5.040   3106.24     0.6876     0.0232     0.0859     0.0504     0.7355     3.3089    80.6400     0.6548     0.0958
  254    5.060   3107.19     0.6445     0.0222     0.0381     0.0506     0.6652     3.4092    80.9600     0.5843    -0.0026
  255    5.080   3108.16     0.6446     0.0235     0.0703     0.0508     0.6646     3.6283    81.2800     0.5833    -0.0053
  256    5.100   3109.16     0.5774     0.0244     0.0527     0.0510     0.6047     4.0939    81.6000     0.5231     0.0261
  257    5.120   3110.14     0.5956     0.0252    -0.0045     0.0512     0.6029     4.3992    81.9200     0.5210    -0.0641
  258    5.140   3111.13     0.6428     0.0266     0.0219     0.0514     0.6480     4.1157    82.2400     0.5658    -0.0687
  259    5.160   3112.12     0.6435     0.0271     0.0503     0.0516     0.6636     4.2529    82.5600     0.5811    -0.0065
  260    5.180   3113.09     0.7051     0.0273     0.0714     0.0518     0.7351     3.9718    82.8800     0.6522     0.0301
  261    5.200   3114.04     0.7446     0.0273     0.0292     0.0520     0.7649     3.7463    83.2000     0.6817    -0.0053
  262    5.220   3115.00     0.7896     0.0279     0.0905     0.0522     0.8065     3.5158    83.5200     0.7230    -0.0165
  263    5.240   3115.95     0.8563     0.0282     0.2055     0.0524     0.9377     3.2531    83.8400     0.8538     0.1654
  264    5.260   3117.00     0.8022     0.0284     0.2006     0.0526     0.8865     3.5522    84.1600     0.8024     0.1847
  265    5.280   3117.95     0.8457     0.0281     0.2126     0.0528     0.9373     3.3988    84.4800     0.8529     0.1938
  266    5.300   3118.91     0.8429     0.0274     0.1804     0.0530     0.9219     3.2850    84.8000     0.8371     0.1614
  267    5.320   3119.90     0.8343     0.0282     0.1684     0.0532     0.9044     3.3975    85.1200     0.8192     0.1386
  268    5.340   3120.91     0.8487     0.0269     0.1820     0.0534     0.9175     3.1309    85.4400     0.8321     0.1325
  269    5.360   3121.86     0.8710     0.0256     0.2148     0.0536     0.9548     2.9255    85.7600     0.8690     0.1678
  270    5.380   3122.86     0.8748     0.0259     0.2279     0.0538     0.9704     2.9145    86.0800     0.8843     0.1964
  271    5.400   3123.81     0.8473     0.0262     0.2438     0.0540     0.9469     3.0286    86.4000     0.8605     0.2132
  272    5.420   3124.76     0.8912     0.0280     0.2892     0.0542     1.0081     3.2206    86.7200     0.9214     0.2429
  273    5.440   3125.76     0.8066     0.0311     0.2328     0.0544     0.9159     3.5045    87.0400     0.8288     0.2485
  274    5.460   3126.76     0.7844     0.0339     0.2131     0.0546     0.8633     3.9760    87.3600     0.7759     0.1712
  275    5.480   3127.76     0.8184     0.0367     0.1958     0.0548     0.9133     4.4476    87.6800     0.8256     0.2064
  276    5.500   3128.68     0.8694     0.0373     0.1956     0.0550     0.9497     4.4242    88.0000     0.8617     0.1581
  277    5.520   3129.68     0.9420     0.0375     0.3115     0.0552     1.0495     4.0921    88.3200     0.9612     0.2070
  278    5.540   3133.37     1.0116     0.0379     0.4207     0.0554     1.1799     3.7722    88.6400     1.0912     0.3158
  279    5.560   3150.50     1.0233     0.0381     0.4792     0.0556     1.2161     3.7777    88.9600     1.1271     0.3558
  280    5.580   3167.64     1.0350     0.0382     0.5376     0.0558     1.2523     3.7751    89.2800     1.1630     0.3958
  281    5.600   3175.52     1.0306     0.0381     0.5670     0.0560     1.2641     3.7478    89.6000     1.1745     0.4258
  282    5.620   3176.52     1.0222     0.0380     0.5860     0.0562     1.2672     3.7205    89.9200     1.1773     0.4479
  283    5.640   3177.52     1.0169     0.0368     0.6094     0.0564     1.2587     3.6163    90.2400     1.1685     0.4445
  284    5.660   3178.52     0.9977     0.0358     0.6405     0.0566     1.2648     3.5805    90.5600     1.1742     0.4934
  285    5.680   3179.48     0.9850     0.0357     0.6243     0.0568     1.2509     3.6112    90.8800     1.1600     0.4968
  286    5.700   3183.80     0.9779     0.0354     0.5984     0.0570     1.2330     3.5930    91.2000     1.1418     0.4817
  287    5.720   3188.21     0.9710     0.0351     0.5726     0.0572     1.2153     3.5699    91.5200     1.1237     0.4663
  288    5.740   3190.98     0.9549     0.0349     0.5603     0.0574     1.1922     3.6311    91.8400     1.1004     0.4614
  289    5.760   3191.98     0.9898     0.0343     0.5734     0.0576     1.2259     3.4867    92.1600     1.1338     0.4449
  290    5.780   3192.94     0.9975     0.0329     0.6241     0.0578     1.2513     3.2996    92.4800     1.1588     0.4714
  291    5.800   3193.93     1.0139     0.0322     0.6663     0.0580     1.2908     3.1928    92.8000     1.1980     0.5019
  292    5.820   3194.90     1.0193     0.0313     0.6737     0.0582     1.3026     3.0651    93.1200     1.2095     0.5097
  293    5.840   3195.89     1.0099     0.0310     0.6783     0.0584     1.2916     3.0340    93.4400     1.1982     0.5111
  294    5.860   3196.89     0.9996     0.0297     0.6920     0.0586     1.2888     2.9639    93.7600     1.1950     0.5271
  295    5.880   3197.85     0.9978     0.0280     0.7026     0.0588     1.2921     2.7994    94.0800     1.1980     0.5358
  296    5.900   3198.84     0.9917     0.0284     0.7005     0.0590     1.2877     2.8702    94.4000     1.1933     0.5411
  297    5.920   3199.79     1.0212     0.0288     0.6918     0.0592     1.3123     2.8336    94.7200     1.2176     0.5207
  298    5.940   3200.79     1.0199     0.0277     0.7088     0.0594     1.3115     2.6818    95.0400     1.2165     0.5221
  299    5.960   3201.77     1.0556     0.0265     0.6307     0.0596     1.3421     2.5678    95.3600     1.2468     0.4997
  300    5.980   3202.74     1.0829     0.0261     0.6141     0.0598     1.3276     2.4110    95.6800     1.2319     0.4242
  301    6.000   3203.75     1.0478     0.0262     0.6794     0.0600     1.3220     2.4762    96.0000     1.2260     0.4835
  302    6.020   3204.72     1.0298     0.0263     0.6970     0.0602     1.3203     2.5394    96.3200     1.2240     0.5160
  303    6.040   3205.73     1.0224     0.0241     0.6988     0.0604     1.3186     2.3662    96.6400     1.2219     0.5276
  304    6.060   3206.68     1.0050     0.0235     0.6628     0.0606     1.2883     2.3100    96.9600     1.1914     0.5153
  305    6.080   3207.65     0.9684     0.0236     0.7082     0.0608     1.2632     2.4188    97.2800     1.1659     0.5498
  306    6.100   3208.64     0.9535     0.0236     0.7158     0.0610     1.2519     2.4755    97.6000     1.1543     0.5626
  307    6.120   3209.60     0.9467     0.0236     0.7197     0.0612     1.2451     2.4911    97.9200     1.1472     0.5660
  308    6.140   3210.60     0.9566     0.0231     0.7010     0.0614     1.2522     2.4213    98.2400     1.1540     0.5567
  309    6.160   3211.55     0.9305     0.0232     0.7027     0.0616     1.2254     2.4759    98.5600     1.1268     0.5683
  310    6.180   3212.56     0.9054     0.0235     0.7077     0.0618     1.2022     2.5835    98.8800     1.1033     0.5844
  311    6.200   3213.51     0.9051     0.0239     0.7053     0.0620     1.2006     2.6462    99.2000     1.1014     0.5826
  312    6.220   3214.51     0.9061     0.0235     0.6965     0.0622     1.2033     2.5959    99.5200     1.1038     0.5849
  313    6.240   3215.46     0.9259     0.0234     0.6927     0.0624     1.2205     2.5352    99.8400     1.1207     0.5703
  314    6.260   3216.46     0.9132     0.0242     0.6752     0.0626     1.1956     2.6383   100.1600     1.0954     0.5566
  315    6.280   3217.42     0.9097     0.0245     0.7037     0.0628     1.2041     2.6952   100.4800     1.1036     0.5782
  316    6.300   3218.41     0.9198     0.0240     0.6754     0.0630     1.2098     2.6164   100.8000     1.1090     0.5659
  317    6.320   3219.38     0.9325     0.0238     0.6669     0.0632     1.2129     2.5392   101.1200     1.1118     0.5437
  318    6.340   3220.36     0.9423     0.0237     0.6647     0.0634     1.2222     2.5308   101.4400     1.1207     0.5380
  319    6.360   3221.37     0.9535     0.0235     0.6619     0.0636     1.2312     2.4760   101.7600     1.1295     0.5291
  320    6.380   3222.33     0.9634     0.0234     0.6537     0.0638     1.2393     2.4253   102.0800     1.1372     0.5215
  321    6.400   3223.32     0.9682     0.0224     0.6286     0.0640     1.2356     2.3162   102.4000     1.1332     0.5054
  322    6.420   3224.29     0.9515     0.0220     0.6332     0.0642     1.2179     2.3072   102.7200     1.1151     0.5112
  323    6.440   3225.22     0.9405     0.0220     0.6300     0.0644     1.2029     2.3386   103.0400     1.0999     0.5096
  324    6.460   3226.27     0.9368     0.0220     0.6530     0.0646     1.2069     2.3459   103.3600     1.1035     0.5243
  325    6.480   3227.22     0.9263     0.0214     0.6998     0.0648     1.2152     2.3224   103.6800     1.1115     0.5605
  326    6.500   3228.22     0.9836     0.0205     0.6296     0.0650     1.2606     2.0914   104.0000     1.1566     0.5138
  327    6.520   3229.20     0.9870     0.0207     0.6432     0.0652     1.2523     2.1087   104.3200     1.1480     0.4934
  328    6.540   3230.14     0.9793     0.0207     0.6545     0.0654     1.2469     2.1012   104.6400     1.1423     0.5006
  329    6.560   3231.18     0.9743     0.0211     0.6760     0.0656     1.2526     2.1686   104.9600     1.1476     0.5201
  330    6.580   3232.13     1.0089     0.0210     0.6726     0.0658     1.2946     2.1170   105.2838     1.1893     0.5167
  331    6.600   3233.13     1.0463     0.0211     0.6296     0.0660     1.3155     2.0589   105.6400     1.2099     0.4753
  332    6.620   3234.12     1.0671     0.0217     0.6581     0.0662     1.3415     2.0525   106.0000     1.2355     0.4752
  333    6.640   3235.07     1.0880     0.0233     0.6454     0.0664     1.3614     2.1481   106.3600     1.2551     0.4659
  334    6.660   3236.03     1.0882     0.0244     0.6495     0.0666     1.3633     2.2401   106.7200     1.2566     0.4684
  335    6.680   3237.42     1.1039     0.0259     0.6131     0.0668     1.3741     2.3699   107.0800     1.2670     0.4562
  336    6.700   3242.54     1.2335     0.0259     0.5257     0.0670     1.4670     2.3724   107.4400     1.3596     0.3672
  337    6.720   3247.66     1.3632     0.0245     0.4657     0.0672     1.5599     2.0895   107.8000     1.4521     0.2783
  338    6.740   3249.34     1.3583     0.0217     0.4928     0.0674     1.5627     1.5897   108.1600     1.4545     0.2883
  339    6.760   3250.34     1.3196     0.0202     0.5540     0.0676     1.5420     1.5161   108.5200     1.4335     0.3224
  340    6.780   3251.34     1.2457     0.0217     0.6145     0.0678     1.4945     1.7200   108.8800     1.3856     0.3786
  341    6.800   3252.29     1.2152     0.0253     0.6696     0.0680     1.4903     2.0996   109.2400     1.3811     0.4250
  342    6.820   3253.29     1.4000     0.0279     0.6671     0.0682     1.6860     2.1219   109.6000     1.5764     0.3897
  343    6.840   3254.24     1.7977     0.0267     0.4980     0.0684     2.0387     1.5601   109.9600     1.9287     0.2637
  344    6.860   3255.24     2.1135     0.0239     0.3628     0.0686     2.2785     1.1572   110.3200     2.1682     0.1498
  345    6.880   3256.24     2.0904     0.0244     0.3515     0.0688     2.2343     1.1387   110.6800     2.1237     0.1291
  346    6.900   3257.20     1.7471     0.0249     0.4063     0.0690     1.9092     1.3587   111.0400     1.7982     0.1773
  347    6.920   3258.18     1.3958     0.0253     0.4486     0.0692     1.5750     1.7231   111.4000     1.4636     0.2453
  348    6.940   3259.15     1.1776     0.0244     0.5462     0.0694     1.3948     2.0328   111.7559     1.2831     0.3492
  349    6.960   3260.15     1.1117     0.0242     0.6128     0.0696     1.3623     2.1583   112.0800     1.2502     0.4217
  350    6.980   3261.10     1.0752     0.0241     0.6553     0.0698     1.3440     2.2313   112.4000     1.2316     0.4630
  351    7.000   3262.10     1.0783     0.0248     0.6784     0.0700     1.3605     2.2926   112.7200     1.2478     0.4825
  352    7.020   3263.05     1.0656     0.0249     0.6949     0.0702     1.3554     2.3334   113.0400     1.2423     0.4989
  353    7.040   3264.05     1.0795     0.0251     0.7047     0.0704     1.3719     2.3443   113.3600     1.2586     0.4972
  354    7.060   3265.05     1.0938     0.0251     0.6931     0.0706     1.3817     2.2987   113.6800     1.2680     0.4850
  355    7.080   3266.00     1.0949     0.0254     0.6970     0.0708     1.3844     2.3169   114.0000     1.2704     0.4868
  356    7.100   3267.01     1.0839     0.0258     0.7245     0.0710     1.3844     2.3664   114.3200     1.2701     0.5075
  357    7.120   3267.96     1.0961     0.0250     0.7150     0.0712     1.4003     2.2992   114.6400     1.2857     0.5080
  358    7.140   3268.96     1.1236     0.0247     0.7243     0.0714     1.4254     2.2108   114.9600     1.3104     0.4938
  359    7.160   3269.92     1.1319     0.0241     0.7214     0.0716     1.4366     2.1294   115.2830     1.3213     0.4949
  360    7.180   3270.87     1.1358     0.0228     0.7120     0.0718     1.4374     2.0118   115.6400     1.3218     0.4891
  361    7.200   3271.86     1.1273     0.0224     0.7149     0.0720     1.4253     1.9832   116.0000     1.3093     0.4870
  362    7.220   3272.81     1.1182     0.0226     0.7201     0.0722     1.4211     2.0270   116.3600     1.3047     0.4974
  363    7.240   3273.81     1.1322     0.0232     0.7097     0.0724     1.4321     2.0491   116.7200     1.3154     0.4878
  364    7.260   3274.81     1.1486     0.0240     0.6840     0.0726     1.4399     2.1044   117.0800     1.3229     0.4695
  365    7.280   3276.43     1.2014     0.0242     0.6718     0.0728     1.4860     2.0273   117.4400     1.3686     0.4420
  366    7.300   3278.22     1.2507     0.0237     0.6562     0.0730     1.5283     1.9280   117.8000     1.4105     0.4171
  367    7.320   3279.24     1.3455     0.0236     0.6191     0.0732     1.6129     1.7534   118.1600     1.4947     0.3769
  368    7.340   3280.22     1.2981     0.0244     0.6120     0.0734     1.5537     1.8618   118.5200     1.4352     0.3730
  369    7.360   3281.25     1.2918     0.0237     0.6361     0.0736     1.5574     1.8356   118.8800     1.4386     0.3884
  370    7.380   3282.20     1.2694     0.0251     0.6628     0.0738     1.5444     1.9671   119.2400     1.4251     0.4075
  371    7.400   3283.16     1.2703     0.0247     0.6703     0.0740     1.5497     1.9463   119.6000     1.4301     0.4134
  372    7.420   3284.12     1.2760     0.0247     0.6780     0.0742     1.5619     1.9316   119.9600     1.4420     0.4206
  373    7.440   3285.08     1.2310     0.0249     0.6741     0.0744     1.5110     2.0121   120.3200     1.3907     0.4259
  374    7.460   3286.11     1.1961     0.0244     0.7011     0.0746     1.4878     2.0329   120.6800     1.3671     0.4535
  375    7.480   3287.08     1.1720     0.0239     0.7185     0.0748     1.4665     2.0282   121.0400     1.3455     0.4657
  376    7.500   3288.03     1.1934     0.0248     0.7502     0.0750     1.5046     2.0991   121.4000     1.3832     0.4814
  377    7.520   3289.07     1.2928     0.0253     0.7414     0.0752     1.6059     1.9897   121.7600     1.4842     0.4516
  378    7.540   3290.03     1.3787     0.0255     0.7341     0.0754     1.6842     1.8510   122.1200     1.5621     0.4175
  379    7.560   3290.98     1.5722     0.0260     0.6922     0.0756     1.8684     1.7213   122.4800     1.7459     0.3607
  380    7.580   3292.03     1.6747     0.0276     0.5959     0.0758     1.9370     1.7439   122.8400     1.8142     0.3025
  381    7.600   3292.98     1.6703     0.0290     0.5558     0.0760     1.9083     1.8190   123.2000     1.7851     0.2749
  382    7.620   3300.21     1.5491     0.0303     0.5571     0.0762     1.7819     1.8942   123.5477     1.6584     0.2901
  383    7.640   3314.11     1.4388     0.0316     0.5655     0.0764     1.6751     1.9712   123.8823     1.5512     0.3167
  384    7.660   3328.01     1.3285     0.0320     0.5783     0.0766     1.5683     1.9952   124.2169     1.4440     0.3434
  385    7.680   3332.59     1.2269     0.0328     0.6044     0.0768     1.4784     2.6346   124.5400     1.3539     0.3856
  386    7.700   3336.41     1.2190     0.0323     0.6204     0.0770     1.4773     2.6245   124.8600     1.3524     0.3978
  387    7.720   3340.24     1.2111     0.0302     0.6365     0.0772     1.4761     2.4580   125.1800     1.3509     0.4099
  388    7.740   3342.54     1.1870     0.0231     0.6714     0.0774     1.4627     1.9288   125.5014     1.3372     0.4329
  389    7.760   3343.54     1.1521     0.0171     0.6791     0.0776     1.4381     1.4746   125.8600     1.3123     0.4598
  390    7.780   3344.49     1.1256     0.0197     0.7231     0.0778     1.4207     1.7459   126.2200     1.2945     0.4827
  391    7.800   3345.49     1.1889     0.0227     0.7693     0.0780     1.5068     1.9467   126.5800     1.3803     0.4919
  392    7.820   3346.49     1.6247     0.0282     0.7479     0.0782     1.9570     1.8822   126.9400     1.8301     0.3897
  393    7.840   3347.45     2.5480     0.0348     0.4416     0.0784     2.7852     1.5080   127.3000     2.6579     0.1847
  394    7.860   3348.45     3.2025     0.0368     0.2204     0.0786     3.3105     1.1829   127.6600     3.1828     0.0563
  395    7.880   3349.45     2.9067     0.0407     0.2499     0.0788     3.0031     1.3550   128.0200     2.8751     0.0525
  396    7.900   3350.41     2.3072     0.0442     0.3366     0.0790     2.4330     1.8351   128.3800     2.3046     0.0962
  397    7.920   3351.40     1.7139     0.0438     0.4220     0.0792     1.8839     2.4011   128.7400     1.7551     0.1868
  398    7.940   3352.36     1.3013     0.0383     0.4911     0.0794     1.4853     2.7913   129.1000     1.3562     0.2655
  399    7.960   3353.35     1.1692     0.0305     0.6295     0.0796     1.4250     2.6364   129.4600     1.2955     0.4083
  400    7.980   3354.35     1.3439     0.0227     0.6639     0.0798     1.6182     1.7537   129.8200     1.4884     0.3854
  401    8.000   3355.35     1.6388     0.0251     0.6525     0.0800     1.9160     1.6356   130.1800     1.7859     0.3258
  402    8.020   3356.30     2.3090     0.0350     0.5454     0.0802     2.5601     1.6927   130.5400     2.4296     0.2162
  403    8.040   3357.31     3.0751     0.0463     0.2488     0.0804     3.2314     1.5715   130.9000     3.1005     0.0950
  404    8.060   3358.26     3.1082     0.0538     0.0776     0.0806     3.1491     1.6891   131.2600     3.0179     0.0052
  405    8.080   3359.26     2.6588     0.0579     0.1734     0.0808     2.7173     2.0909   131.6200     2.5857     0.0229
  406    8.100   3360.21     2.2191     0.0568     0.2728     0.0810     2.3252     2.4353   131.9751     2.1932     0.0788
  407    8.120   3361.19     1.7090     0.0563     0.3802     0.0812     1.8595     3.1363   132.3000     1.7272     0.1617
  408    8.140   3362.16     1.3883     0.0534     0.5044     0.0814     1.5796     3.7773   132.6200     1.4470     0.2591
  409    8.160   3363.16     1.2312     0.0458     0.5963     0.0816     1.4709     3.6638   132.9400     1.3379     0.3657
  410    8.180   3364.15     1.2231     0.0350     0.6456     0.0818     1.4911     2.9056   133.2600     1.3578     0.4098
  411    8.200   3365.11     1.3729     0.0297     0.6350     0.0820     1.6397     2.2162   133.5835     1.5061     0.3675
  412    8.220   3366.11     1.4830     0.0266     0.5550     0.0822     1.7277     1.8166   133.9400     1.5938     0.3140
  413    8.240   3367.12     1.4436     0.0265     0.5645     0.0824     1.6680     1.8073   134.3000     1.5337     0.2947
  414    8.260   3368.07     1.3297     0.0249     0.6097     0.0826     1.5769     1.8333   134.6600     1.4422     0.3510
  415    8.280   3369.06     1.2139     0.0260     0.6599     0.0828     1.4838     2.1057   135.0200     1.3488     0.4151
  416    8.300   3370.02     1.2259     0.0283     0.6897     0.0830     1.5077     2.3336   135.3800     1.3724     0.4286
  417    8.320   3371.02     1.3309     0.0295     0.7048     0.0832     1.6253     2.2592   135.7400     1.4896     0.4148
  418    8.340   3371.97     1.4175     0.0295     0.6762     0.0834     1.7044     2.0967   136.1000     1.5683     0.3825
  419    8.360   3372.97     1.5996     0.0296     0.5796     0.0836     1.8509     1.9212   136.4600     1.7144     0.3003
  420    8.380   3373.93     1.6263     0.0304     0.5603     0.0838     1.8690     1.8693   136.8200     1.7322     0.2852
  421    8.400   3374.92     1.5132     0.0333     0.5802     0.0840     1.7561     2.1646   137.1800     1.6189     0.3055
  422    8.420   3375.92     1.4848     0.0355     0.6152     0.0842     1.7399     2.4024   137.5400     1.6023     0.3264
  423    8.440   3376.88     1.5581     0.0321     0.5905     0.0844     1.8109     2.0816   137.9000     1.6730     0.3094
  424    8.460   3377.84     1.6568     0.0283     0.5809     0.0846     1.9018     1.7344   138.2600     1.7636     0.2830
  425    8.480   3378.83     1.7420     0.0272     0.5533     0.0848     1.9794     1.5710   138.6200     1.8408     0.2610
  426    8.500   3379.81     1.7321     0.0264     0.5547     0.0850     1.9632     1.5180   138.9800     1.8242     0.2550
  427    8.520   3380.80     1.6494     0.0272     0.5376     0.0852     1.8753     1.6229   139.3400     1.7360     0.2608
  428    8.540   3381.83     1.4506     0.0273     0.5685     0.0854     1.6877     1.8299   139.7000     1.5480     0.3097
  429    8.560   3382.76     1.3693     0.0256     0.6112     0.0856     1.6158     1.8579   140.0600     1.4758     0.3398
  430    8.580   3383.74     1.3384     0.0278     0.6610     0.0858     1.6092     2.0604   140.4140     1.4688     0.3805
  431    8.600   3384.73     1.3062     0.0320     0.7062     0.0860     1.6004     2.3894   140.7400     1.4597     0.4209
  432    8.620   3385.71     1.3488     0.0362     0.7235     0.0862     1.6511     2.7184   141.0600     1.5100     0.4196
  433    8.640   3386.71     1.4492     0.0432     0.7408     0.0864     1.7569     3.0349   141.3800     1.6155     0.3999
  434    8.660   3387.69     1.6458     0.0568     0.6899     0.0866     1.9422     3.6071   141.7000     1.8005     0.3446
  435    8.680   3389.02     2.0848     0.0597     0.5531     0.0868     2.3513     3.0892   142.0242     2.2092     0.2605
  436    8.700   3392.80     2.9337     0.0657     0.3171     0.0870     3.1010     3.3388   142.3745     2.9587     0.1523
  437    8.720   3396.57     3.7826     0.0801     0.0811     0.0872     3.8508     4.0705   142.7249     3.7081     0.0441
  438    8.740   3399.04     4.2722     0.0884     0.0603     0.0874     4.3083     2.0779   143.0800     4.1652    -0.0004
  439    8.760   3400.04     4.7096     0.0918     0.0126     0.0876     4.6973     1.9590   143.4400     4.5539    -0.0257
  440    8.780   3401.04     5.2239     0.1005     0.0260     0.0878     5.2196     1.9291   143.8000     5.0758    -0.0194
  441    8.800   3401.99     5.2723     0.1022     0.0813     0.0880     5.3125     1.9442   144.1600     5.1683     0.0015
  442    8.820   3403.04     6.3205     0.1006     0.0570     0.0882     6.3451     1.7887   144.5200     6.2006    -0.0048
  443    8.840   3404.05     8.1930     0.1009    -0.0160     0.0884     8.2208     1.4884   144.8900     8.0759    -0.0026
  444    8.860   3405.10    10.0852     0.1004    -0.1497     0.0886    10.0312     1.2412   145.2700     9.8859    -0.0220
  445    8.880   3406.10    11.2270     0.0998    -0.1417     0.0888    11.1616     0.9940   145.6500    11.0160    -0.0222
  446    8.900   3407.11    11.9888     0.0930    -0.1448     0.0890    11.9323     0.7977   146.0300    11.7862    -0.0190
  447    8.920   3408.15    12.8009     0.0827    -0.1554     0.0892    12.7371     0.6517   146.4100    12.5907    -0.0192
  448    8.940   3409.36    13.6868     0.0861    -0.1465     0.0894    13.6222     0.6353   146.7900    13.4755    -0.0181
  449    8.960   3411.73    14.5725     0.0868    -0.1256     0.0896    14.5167     0.6407   147.1700    14.3696    -0.0158
  450    8.980   3414.11    15.4582     0.0887    -0.1047     0.0898    15.4112     0.6543   147.5500    15.2636    -0.0134
  451    9.000   3416.20    16.2654     0.0958    -0.0971     0.0900    16.2251     0.5928   147.9300    16.0771    -0.0116
  452    9.020   3417.20    16.6263     0.1001    -0.0911     0.0902    16.5867     0.6039   148.3100    16.4384    -0.0112
  453    9.040   3418.23    16.7538     0.1081    -0.1133     0.0904    16.7136     0.6456   148.6900    16.5649    -0.0112
  454    9.060   3419.19    16.8634     0.1168    -0.1455     0.0906    16.8071     0.6952   149.0700    16.6580    -0.0135
  455    9.080   3420.14    17.1408     0.1226    -0.1369     0.0908    17.0792     0.7213   149.4500    16.9298    -0.0140
  456    9.100   3421.11    17.6345     0.1273    -0.1177     0.0910    17.5809     0.7312   149.8300    17.4310    -0.0125
  457    9.120   3422.06    18.1227     0.1307    -0.0850     0.0912    18.0823     0.7290   150.2100    17.9321    -0.0105
  458    9.140   3423.01    18.5741     0.1333    -0.0499     0.0914    18.5501     0.7260   150.5900    18.3995    -0.0081
  459    9.160   3423.96    18.9845     0.1350    -0.0429     0.0916    18.9682     0.7167   150.9700    18.8172    -0.0069
  460    9.180   3424.88    19.3703     0.1373    -0.0433     0.0918    19.3522     0.7146   151.3500    19.2008    -0.0070
  461    9.200   3425.83    19.6909     0.1395    -0.0281     0.0920    19.6769     0.7134   151.7300    19.5252    -0.0064
  462    9.220   3426.79    19.9028     0.1424    -0.0349     0.0922    19.8894     0.7179   152.1100    19.7373    -0.0063
  463    9.240   3427.72    20.0163     0.1444    -0.0393     0.0924    19.9990     0.7229   152.4900    19.8465    -0.0067
  464    9.260   3428.67    20.1214     0.1460    -0.0212     0.0926    20.1118     0.7276   152.8700    19.9589    -0.0058
  465    9.280   3429.62    20.1630     0.1458    -0.0334     0.0928    20.1499     0.7234   153.2500    19.9967    -0.0062
  466    9.300   3430.56    20.1732     0.1462    -0.0276     0.0930    20.1634     0.7240   153.6300    20.0097    -0.0058
  467    9.320   3431.47    20.2120     0.1485    -0.0294     0.0932    20.1982     0.7353   154.0100    20.0442    -0.0063
  468    9.340   3432.43    20.2949     0.1509    -0.0032     0.0934    20.2897     0.7439   154.3900    20.1353    -0.0053
  469    9.360   3433.38    20.3162     0.1512    -0.0166     0.0936    20.3114     0.7438   154.7700    20.1566    -0.0052
  470    9.380   3434.31    20.4019     0.1515    -0.0073     0.0938    20.3973     0.7437   155.1500    20.2422    -0.0052
  471    9.400   3435.29    20.3313     0.1511    -0.0001     0.0940    20.3306     0.7419   155.5300    20.1751    -0.0047
  472    9.420   3436.23    19.9510     0.1481    -0.0085     0.0942    19.9470     0.7371   155.9100    19.7911    -0.0052
  473    9.440   3437.16    19.5285     0.1472    -0.0132     0.0944    19.5253     0.7508   156.2900    19.3690    -0.0053
  474    9.460   3439.15    19.4476     0.1454     0.0031     0.0946    19.4464     0.7507   156.6700    19.2897    -0.0051
  475    9.480   3441.78    19.5693     0.1429     0.0203     0.0948    19.5754     0.7375   157.0500    19.4183    -0.0042
  476    9.500   3444.42    19.6911     0.1406     0.0353     0.0950    19.7043     0.7256   157.4300    19.5469    -0.0033
  477    9.520   3445.83    20.0145     0.1393     0.0265     0.0952    20.0280     0.7045   157.8100    19.8701    -0.0032
  478    9.540   3446.76    20.2810     0.1379     0.0083     0.0954    20.2866     0.6835   158.1900    20.1284    -0.0041
  479    9.560   3447.73    20.4763     0.1394     0.0024     0.0956    20.4793     0.6819   158.5700    20.3207    -0.0044
  480    9.580   3448.71    20.7746     0.1435     0.0104     0.0958    20.7740     0.6915   158.9500    20.6150    -0.0047
  481    9.600   3449.67    21.2509     0.1479     0.0252     0.0960    21.2582     0.7016   159.3300    21.0988    -0.0037
  482    9.620   3459.52    21.5088     0.1522     0.0316     0.0962    21.5212     0.7118   159.7100    21.3615    -0.0031
  483    9.640   3474.54    21.7012     0.1565     0.0377     0.0964    21.7162     0.7316   160.0900    21.5561    -0.0028
  484    9.660   3486.24    21.9319     0.1617     0.0281     0.0966    21.9469     0.7434   160.4700    21.7864    -0.0028
  485    9.680   3487.26    22.2515     0.1644     0.0104     0.0968    22.2566     0.7420   160.8500    22.0957    -0.0038
  486    9.700   3497.77    22.2100     0.1660     0.0260     0.0970    22.2187     0.7445   161.2300    22.0574    -0.0035
  487    9.720   3510.81    22.0920     0.1671     0.0417     0.0972    22.1072     0.7491   161.6100    21.9456    -0.0028
  488    9.740   3516.09    22.0472     0.1670     0.0288     0.0974    22.0573     0.7573   161.9900    21.8954    -0.0033
  489    9.760   3517.04    22.0550     0.1656     0.0150     0.0976    22.0566     0.7512   162.3700    21.8942    -0.0043
  490    9.780   3517.99    22.1032     0.1629     0.0127     0.0978    22.1093     0.7374   162.7500    21.9465    -0.0038
  491    9.800   3518.95    21.9883     0.1578     0.0022     0.0980    21.9930     0.7163   163.1300    21.8299    -0.0040
  492    9.820   3519.90    21.8191     0.1547    -0.0224     0.0982    21.8135     0.7066   163.5100    21.6500    -0.0051
  493    9.840   3520.86    21.5923     0.1524    -0.0330     0.0984    21.5785     0.7019   163.8900    21.4146    -0.0061
  494    9.860   3521.85    21.1599     0.1502    -0.0582     0.0986    21.1396     0.7037   164.2700    20.9753    -0.0070
  495    9.880   3522.77    20.6646     0.1479    -0.0811     0.0988    20.6346     0.7099   164.6500    20.4699    -0.0083
  496    9.900   3523.77    20.0634     0.1459    -0.0459     0.0990    20.0350     0.7191   165.0300    19.8699    -0.0084
  497    9.920   3524.70    19.5056     0.1464    -0.0141     0.0992    19.4974     0.7417   165.4100    19.3320    -0.0061
  498    9.940   3525.68    18.9212     0.1465    -0.0097     0.0994    18.9229     0.7649   165.7900    18.7571    -0.0051
  499    9.960   3526.64    18.3250     0.1442    -0.0227     0.0996    18.3167     0.7768   166.1700    18.1506    -0.0066
  500    9.980   3527.59    17.6684     0.1377    -0.0071     0.0998    17.6675     0.7682   166.5500    17.5009    -0.0058
  501   10.000   3528.50    17.1175     0.1311    -0.0239     0.1000    17.1127     0.7559   166.9300    16.9458    -0.0066
  502   10.020   3529.50    16.4955     0.1227    -0.0262     0.1002    16.4828     0.7336   167.3100    16.3155    -0.0080
  503   10.040   3530.41    16.1718     0.1139    -0.0037     0.1004    16.1647     0.7001   167.6900    15.9970    -0.0073
  504   10.060   3531.41    16.1027     0.1039    -0.0076     0.1006    16.1033     0.6436   168.0700    15.9353    -0.0062
  505   10.080   3532.33    15.7772     0.0992    -0.0479     0.1008    15.7621     0.6229   168.4500    15.5936    -0.0088
  506   10.100   3533.28    15.4490     0.1025    -0.0775     0.1010    15.4217     0.6583   168.8300    15.2528    -0.0109
  507   10.120   3534.24    15.0872     0.1062    -0.0616     0.1012    15.0566     0.6969   169.2100    14.8874    -0.0117
  508   10.140   3535.16    14.6614     0.1053    -0.0509     0.1014    14.6384     0.7097   169.5900    14.4688    -0.0108
  509   10.160   3536.10    14.1159     0.1040    -0.0734     0.1016    14.0874     0.7263   169.9700    13.9174    -0.0122
  510   10.180   3537.06    13.5315     0.1047    -0.0927     0.1018    13.4964     0.7643   170.3500    13.3261    -0.0139
  511   10.200   3537.97    13.1895     0.1056    -0.0726     0.1020    13.1550     0.7959   170.7300    12.9842    -0.0142
  512   10.220   3538.97    13.0973     0.1029    -0.0323     0.1022    13.0784     0.7856   171.1100    12.9072    -0.0114
  513   10.240   3539.92    13.2332     0.0963    -0.0312     0.1024    13.2229     0.7301   171.4900    13.0514    -0.0097
  514   10.260   3540.88    13.3275     0.0886    -0.0538     0.1026    13.3073     0.6660   171.8700    13.1354    -0.0115
  515   10.280   3541.87    13.4353     0.0854    -0.0628     0.1028    13.4073     0.6400   172.2500    13.2351    -0.0128
  516   10.300   3542.84    13.7020     0.0879    -0.0410     0.1030    13.6822     0.6441   172.6300    13.5095    -0.0111
  517   10.320   3543.77    13.8513     0.0907    -0.0531     0.1032    13.8340     0.6571   173.0100    13.6610    -0.0106
  518   10.340   3544.72    13.9371     0.0949    -0.0810     0.1034    13.9055     0.6817   173.3900    13.7321    -0.0130
  519   10.360   3545.70    13.8789     0.0987    -0.0832     0.1036    13.8430     0.7092   173.7700    13.6693    -0.0138
  520   10.380   3546.66    13.7538     0.1033    -0.0866     0.1038    13.7165     0.7493   174.1500    13.5424    -0.0142
  521   10.400   3547.62    13.7479     0.1069    -0.0850     0.1040    13.7129     0.7776   174.5300    13.5384    -0.0138
  522   10.420   3548.61    13.8450     0.1088    -0.0796     0.1042    13.8094     0.7884   174.9100    13.6345    -0.0139
  523   10.440   3549.53    13.9219     0.1106    -0.0537     0.1044    13.8946     0.7951   175.2900    13.7193    -0.0123
  524   10.460   3550.52    13.8174     0.1113    -0.0375     0.1046    13.8002     0.8036   175.6700    13.6246    -0.0107
  525   10.480   3551.48    13.7183     0.1108    -0.0157     0.1048    13.7092     0.8066   176.0500    13.5332    -0.0093
  526   10.500   3552.44    13.5821     0.1085    -0.0062     0.1050    13.5786     0.7958   176.4300    13.4022    -0.0085
  527   10.520   3553.43    13.3891     0.1053     0.0042     0.1052    13.3887     0.7829   176.8100    13.2119    -0.0080
  528   10.540   3554.38    13.2415     0.1042     0.0264     0.1054    13.2499     0.7841   177.1900    13.0728    -0.0065
  529   10.560   3555.30    13.1117     0.1023     0.0412     0.1056    13.1267     0.7773   177.5700    12.9491    -0.0054
  530   10.580   3556.28    13.0871     0.1011     0.0226     0.1058    13.1016     0.7730   177.9500    12.9236    -0.0055
  531   10.600   3557.26    13.0026     0.1001     0.0003     0.1060    13.0065     0.7689   178.3300    12.8282    -0.0075
  532   10.620   3558.19    12.8406     0.0990    -0.0024     0.1062    12.8370     0.7672   178.7100    12.6583    -0.0091
  533   10.640   3559.12    12.7145     0.0994    -0.0046     0.1064    12.7124     0.7805   179.0900    12.5333    -0.0089
  534   10.660   3560.08    12.6367     0.1015     0.0078     0.1066    12.6400     0.8016   179.4700    12.4605    -0.0079
  535   10.680   3562.82    12.5313     0.1010     0.0283     0.1068    12.5399     0.7998   179.8500    12.3600    -0.0070
  536   10.700   3567.14    12.3450     0.0996     0.0517     0.1070    12.3633     0.7885   180.2300    12.1831    -0.0052
  537   10.720   3571.46    12.1586     0.0993     0.0647     0.1072    12.1867     0.7883   180.6100    12.0061    -0.0033
  538   10.740   3572.45    12.2132     0.0976     0.0474     0.1074    12.2344     0.8005   180.9900    12.0534    -0.0047
  539   10.760   3573.44    12.1207     0.1001     0.0360     0.1076    12.1362     0.8217   181.3700    11.9548    -0.0059
  540   10.780   3574.36    11.8306     0.1085     0.0324     0.1078    11.8451     0.9036   181.7500    11.6633    -0.0063
  541   10.800   3575.27    11.3650     0.1187     0.0381     0.1080    11.3796     1.0199   182.1300    11.1975    -0.0065
  542   10.820   3576.18    10.7558     0.1258     0.0390     0.1082    10.7705     1.1377   182.5100    10.5880    -0.0069
  543   10.840   3577.13    10.1752     0.1243     0.0537     0.1084    10.1936     1.1890   182.8900    10.0107    -0.0064
  544   10.860   3578.05     9.6810     0.1238     0.0730     0.1086     9.7107     1.2486   183.2700     9.5275    -0.0040
  545   10.880   3579.00     9.2438     0.1326    -0.0533     0.1088     9.2401     1.4039   183.6500     9.0564    -0.0130
  546   10.900   3579.91     8.8405     0.1360    -0.0804     0.1090     8.8023     1.5104   184.0300     8.6183    -0.0232
  547   10.920   3580.87     8.5819     0.1138    -0.0394     0.1092     8.5616     1.3097   184.4100     8.3772    -0.0188
  548   10.940   3581.77     8.4102     0.1058    -0.0496     0.1094     8.3928     1.2457   184.7900     8.2081    -0.0184
  549   10.960   3582.75     8.2577     0.0977    -0.1305     0.1096     8.2189     1.1759   185.1700     8.0337    -0.0252
  550   10.980   3583.69     8.2892     0.0984    -0.2139     0.1098     8.2074     1.1897   185.5500     8.0218    -0.0380
  551   11.000   3584.64     8.1450     0.1078    -0.2288     0.1100     8.0482     1.3018   185.9300     7.8622    -0.0433
  552   11.020   3585.55     7.6306     0.1044    -0.2341     0.1102     7.5306     1.3169   186.3100     7.3443    -0.0474
  553   11.040   3586.46     7.1683     0.0942    -0.2251     0.1104     7.0710     1.2544   186.6900     6.8843    -0.0497
  554   11.060   3587.42     6.5512     0.0848    -0.1817     0.1106     6.4678     1.2478   187.0600     6.2807    -0.0492
  555   11.080   3588.36     6.2547     0.0795    -0.1267     0.1108     6.1911     1.2563   187.4200     6.0037    -0.0437
  556   11.100   3589.28     6.1555     0.0803    -0.0509     0.1110     6.1258     1.2966   187.7800     5.9381    -0.0306
  557   11.120   3590.19     6.1376     0.0823    -0.0242     0.1112     6.1209     1.3420   188.1400     5.9328    -0.0254
  558   11.140   3591.11     6.0781     0.0883     0.0264     0.1114     6.0817     1.4391   188.5000     5.8932    -0.0174
  559   11.160   3592.06     5.9547     0.0975     0.0339     0.1116     5.9672     1.6289   188.8600     5.7783    -0.0142
  560   11.180   3593.02     6.0933     0.1100     0.0378     0.1118     6.1066     1.8304   189.2200     5.9174    -0.0135
  561   11.200   3593.97     6.4409     0.1154     0.0535     0.1120     6.4633     1.8353   189.5800     6.2737    -0.0094
  562   11.220   3594.92     6.7709     0.1088     0.0255     0.1122     6.7845     1.6361   189.9400     6.5946    -0.0121
  563   11.240   3595.82     6.8798     0.0926    -0.0757     0.1124     6.8678     1.3580   190.3000     6.6775    -0.0211
  564   11.260   3596.79     7.1785     0.0847    -0.1231     0.1126     7.1293     1.2107   190.6600     6.9386    -0.0331
  565   11.280   3597.80     7.7809     0.0810    -0.1567     0.1128     7.7222     1.0819   191.0200     7.5312    -0.0335
  566   11.300   3598.75     8.1075     0.0902    -0.2062     0.1130     8.0258     1.1248   191.3800     7.8344    -0.0393
  567   11.320   3599.66     7.9141     0.1003    -0.2238     0.1132     7.8215     1.2470   191.7400     7.6298    -0.0437
  568   11.340   3600.61     7.3175     0.1068    -0.2273     0.1134     7.2223     1.4297   192.1000     7.0302    -0.0484
  569   11.360   3601.52     6.7682     0.0936    -0.2171     0.1136     6.6751     1.3623   192.4600     6.4827    -0.0517
  570   11.380   3602.47     6.1524     0.0895    -0.2055     0.1138     6.0656     1.4421   192.8200     5.8728    -0.0545
  571   11.400   3603.43     5.6709     0.0907    -0.2102     0.1140     5.5830     1.5442   193.1800     5.3898    -0.0600
  572   11.420   3604.48     5.2191     0.0919    -0.1973     0.1142     5.1328     1.7450   193.5400     4.9393    -0.0647
  573   11.440   3605.48     4.8111     0.0937    -0.1569     0.1144     4.7407     1.9282   193.9000     4.5468    -0.0620
  574   11.460   3606.44     4.6842     0.0963    -0.1011     0.1146     4.6332     2.0391   194.2600     4.4389    -0.0532
  575   11.480   3607.48     4.6592     0.1033    -0.0855     0.1148     4.6238     2.1954   194.6200     4.4291    -0.0450
  576   11.500   3608.48     4.6834     0.1102    -0.0147     0.1150     4.6594     2.3517   194.9800     4.4644    -0.0386
  577   11.520   3609.53     4.8774     0.1111     0.0029     0.1152     4.8764     2.3342   195.3400     4.6810    -0.0251
  578   11.540   3610.54     5.4390     0.1008     0.0597     0.1154     5.4555     1.9277   195.7000     5.2598    -0.0145
  579   11.560   3612.21     6.1267     0.0975     0.0175     0.1156     6.1411     1.6883   196.0600     5.9450    -0.0136
  580   11.580   3631.69     6.4738     0.1090    -0.0315     0.1158     6.4677     1.8402   196.4200     6.2713    -0.0202
  581   11.600   3651.16     6.8210     0.1205    -0.0805     0.1160     6.7943     1.9920   196.7800     6.5975    -0.0267
  582   11.620   3665.29     6.8889     0.1272    -0.1381     0.1162     6.8377     1.8362   197.1400     6.6405    -0.0360
  583   11.640   3666.29     6.0432     0.1284    -0.1530     0.1164     5.9822     2.0201   197.5000     5.7847    -0.0453
  584   11.660   3667.24     5.1395     0.1324    -0.1191     0.1166     5.0810     2.3996   197.8600     4.8831    -0.0524
  585   11.680   3669.98     4.7030     0.1380    -0.0901     0.1168     4.6609     2.8853   198.1985     4.4627    -0.0484
  586   11.700   3673.31     4.5936     0.1455    -0.0612     0.1170     4.5637     3.0414   198.5295     4.3652    -0.0429
  587   11.720   3676.55     4.4594     0.1354    -0.0095     0.1172     4.4428     2.9788   198.8600     4.2440    -0.0369
  588   11.740   3677.55     4.0701     0.1281     0.0772     0.1174     4.1081     3.1327   199.1800     3.9089    -0.0069
  589   11.760   3678.55     3.7846     0.1199     0.1762     0.1176     3.8369     3.0988   199.5000     3.6374     0.0021
  590   11.780   3679.55     3.3923     0.1123     0.3417     0.1178     3.5001     3.2975   199.8200     3.3003     0.0421
  591   11.800   3680.59     3.2567     0.1107     0.5729     0.1180     3.4747     3.3691   200.1400     3.2745     0.1225
  592   11.820   3681.55     3.2442     0.1024     0.5516     0.1182     3.4779     3.1626   200.4600     3.2774     0.1337
  593   11.840   3682.55     3.2372     0.0906     0.5253     0.1184     3.4588     2.7956   200.7800     3.2580     0.1256
  594   11.860   3683.50     3.2041     0.0776     0.5141     0.1186     3.4272     2.4178   201.1000     3.2261     0.1279
  595   11.880   3684.51     3.0485     0.0821     0.5142     0.1188     3.2589     2.6843   201.4200     3.0575     0.1251
  596   11.900   3685.51     2.8720     0.0802     0.5700     0.1190     3.1085     2.7824   201.7400     2.9068     0.1528
  597   11.920   3686.51     2.7365     0.0633     0.6020     0.1192     2.9804     2.3071   202.0600     2.7784     0.1661
  598   11.940   3687.51     2.5206     0.0600     0.6247     0.1194     2.7811     2.3723   202.3800     2.5788     0.1943
  599   11.960   3688.51     2.5399     0.0724     0.7241     0.1196     2.8159     2.9263   202.7000     2.6132     0.2057
  600   11.980   3689.56     2.8637     0.0800     0.9040     0.1198     3.2215     2.8282   203.0200     3.0185     0.2426
  601   12.000   3690.56     3.6285     0.0832     0.9483     0.1200     4.0627     2.3406   203.3400     3.8594     0.2379
  602   12.020   3691.56     4.9840     0.0839     0.2315     0.1202     5.1767     1.7121   203.6600     4.9730     0.0691
  603   12.040   3692.57     6.3903     0.0908     0.0148     0.1204     6.4013     1.4325   203.9800     6.1973    -0.0152
  604   12.060   3693.62     7.3434     0.0955    -0.0704     0.1206     7.3297     1.3117   204.3054     7.1254    -0.0215
  605   12.080   3694.62     7.9741     0.0972    -0.1603     0.1208     7.9164     1.2301   204.6800     7.7117    -0.0334
  606   12.100   3695.62     8.6268     0.0898    -0.2026     0.1210     8.5475     1.0436   205.0600     8.3424    -0.0371
  607   12.120   3696.62     8.9377     0.0822    -0.2199     0.1212     8.8457     0.9210   205.4400     8.6403    -0.0394
  608   12.140   3697.62     9.0840     0.0828    -0.2307     0.1214     8.9888     0.9122   205.8200     8.7830    -0.0396
  609   12.160   3698.62     9.3275     0.0886    -0.2444     0.1216     9.2260     0.9513   206.2000     9.0198    -0.0403
  610   12.180   3699.63     9.7287     0.0870    -0.2278     0.1218     9.6301     0.8974   206.5800     9.4235    -0.0379
  611   12.200   3700.64    10.3459     0.0864    -0.2492     0.1220    10.2457     0.8413   206.9600    10.0387    -0.0359
  612   12.220   3701.68    10.9140     0.0780    -0.2598     0.1222    10.8066     0.7196   207.3400    10.5993    -0.0356
  613   12.240   3702.68    11.3424     0.0698    -0.2775     0.1224    11.2289     0.6210   207.7200    11.0212    -0.0356
  614   12.260   3703.68    11.7310     0.0656    -0.2912     0.1226    11.6100     0.5641   208.1000    11.4019    -0.0360
  615   12.280   3704.68    12.0339     0.0641    -0.3037     0.1228    11.9076     0.5368   208.4800    11.6992    -0.0362
  616   12.300   3705.63    12.3189     0.0670    -0.3092     0.1230    12.1893     0.5484   208.8600    11.9804    -0.0360
  617   12.320   3706.63    12.6992     0.0786    -0.3142     0.1232    12.5685     0.6239   209.2400    12.3593    -0.0352
  618   12.340   3707.54    12.9767     0.0889    -0.3153     0.1234    12.8443     0.6891   209.6200    12.6347    -0.0347
  619   12.360   3708.53    13.0818     0.0960    -0.3170     0.1236    12.9489     0.7334   210.0000    12.7389    -0.0345
  620   12.380   3709.49    12.9289     0.1059    -0.3139     0.1238    12.7967     0.8149   210.3800    12.5864    -0.0348
  621   12.400   3710.49    12.5027     0.1121    -0.3111     0.1240    12.3713     0.8868   210.7600    12.1605    -0.0359
  622   12.420   3711.44    12.1973     0.1125    -0.3036     0.1242    12.0689     0.9167   211.1400    11.8578    -0.0363
  623   12.440   3712.44    12.1143     0.1088    -0.2991     0.1244    11.9880     0.8980   211.5200    11.7765    -0.0361
  624   12.460   3713.34    12.1617     0.1081    -0.2932     0.1246    12.0375     0.8903   211.9000    11.8256    -0.0355
  625   12.480   3714.31    12.1273     0.1151    -0.2876     0.1248    12.0064     0.9435   212.2800    11.7941    -0.0350
  626   12.500   3715.27    11.5031     0.1047    -0.2982     0.1250    11.3792     0.9028   212.6600    11.1665    -0.0376
  627   12.520   3716.25    10.7504     0.1090    -0.2917     0.1252    10.6269     1.0060   213.0400    10.4139    -0.0403
  628   12.540   3717.20    10.1384     0.1064    -0.2752     0.1254    10.0196     1.0466   213.4200     9.8062    -0.0416
  629   12.560   3718.20     9.7990     0.1069    -0.2653     0.1256     9.6884     1.0898   213.8000     9.4746    -0.0411
  630   12.580   3719.20     9.6858     0.1022    -0.2816     0.1258     9.5679     1.0487   214.1800     9.3537    -0.0435
  631   12.600   3720.23     9.7014     0.0967    -0.2610     0.1260     9.5908     0.9935   214.5600     9.3762    -0.0415
  632   12.620   3721.25     9.7762     0.0864    -0.2737     0.1262     9.6631     0.8879   214.9400     9.4482    -0.0419
  633   12.640   3722.26    10.1333     0.0771    -0.2777     0.1264    10.0170     0.7732   215.3200     9.8017    -0.0412
  634   12.660   3723.26    10.4641     0.0779    -0.2800     0.1266    10.3470     0.7526   215.7000    10.1313    -0.0400
  635   12.680   3724.32    10.5464     0.0797    -0.2519     0.1268    10.4274     0.7543   216.0800    10.2113    -0.0402
  636   12.700   3728.80    10.5003     0.0833    -0.0981     0.1270    10.4368     0.8883   216.4600    10.2203    -0.0273
  637   12.720   3733.81    10.4615     0.0833    -0.0072     0.1272    10.4625     0.8221   216.8400    10.2457    -0.0122
  638   12.740   3735.01    10.6387     0.0907    -0.0360     0.1274    10.6254     0.8556   217.2200    10.4081    -0.0153
  639   12.760   3736.02    10.9998     0.0953    -0.1138     0.1276    10.9742     0.8713   217.6000    10.7566    -0.0175
  640   12.780   3737.02    11.2192     0.1123    -0.2110     0.1278    11.1415     1.0030   217.9800    10.9235    -0.0286
  641   12.800   3737.97    10.9363     0.1384    -0.2379     0.1280    10.8366     1.2601   218.3600    10.6183    -0.0344
  642   12.820   3738.97    10.0518     0.1537    -0.2447     0.1282     9.9502     1.5143   218.7400     9.7314    -0.0380
  643   12.840   3739.97     8.6329     0.1657    -0.2464     0.1284     8.5294     1.9105   219.1100     8.3103    -0.0451
  644   12.860   3740.97     8.0194     0.1772    -0.2425     0.1286     7.9160     2.1896   219.4700     7.6965    -0.0487
  645   12.880   3741.97     7.5227     0.1678    -0.2278     0.1288     7.4227     2.2248   219.8300     7.2029    -0.0509
  646   12.900   3742.98     7.4236     0.1549    -0.2170     0.1290     7.3324     2.0863   220.1900     7.1122    -0.0487
  647   12.920   3743.98     7.5954     0.1339    -0.2408     0.1292     7.5023     1.7651   220.5500     7.2817    -0.0482
  648   12.940   3745.03     7.5590     0.1315    -0.2536     0.1294     7.4520     1.7388   220.9100     7.2311    -0.0531
  649   12.960   3746.03     7.5552     0.1378    -0.2617     0.1296     7.4440     1.8274   221.2700     7.2227    -0.0546
  650   12.980   3747.03     7.6432     0.1409    -0.2652     0.1298     7.5318     1.8386   221.6300     7.3102    -0.0540
  651   13.000   3747.99     7.0200     0.1443    -0.2498     0.1300     6.9121     2.0454   221.9900     6.6902    -0.0578
  652   13.020   3748.99     6.5161     0.1419    -0.2494     0.1302     6.4152     2.1725   222.3500     6.1928    -0.0598
  653   13.040   3750.04     6.6858     0.1486    -0.2484     0.1304     6.5810     2.2300   222.7100     6.3583    -0.0598
  654   13.060   3751.04     7.1254     0.1431    -0.2525     0.1306     7.0196     2.0261   223.0700     6.7965    -0.0563
  655   13.080   3752.09     7.6056     0.1505    -0.2690     0.1308     7.4949     1.9830   223.4300     7.2715    -0.0542
  656   13.100   3753.04     7.4321     0.1428    -0.2646     0.1310     7.3194     1.9151   223.7900     7.0956    -0.0563
  657   13.120   3754.04     6.9509     0.1285    -0.2420     0.1312     6.8452     1.8437   224.1500     6.6211    -0.0578
  658   13.140   3755.05     6.6839     0.1297    -0.2284     0.1314     6.5871     1.9338   224.5100     6.3626    -0.0569
  659   13.160   3756.05     6.3950     0.1412    -0.2402     0.1316     6.2945     2.1957   224.8700     6.0696    -0.0611
  660   13.180   3757.05     6.4142     0.1520    -0.1884     0.1318     6.3249     2.3896   225.2300     6.0996    -0.0565
  661   13.200   3758.06     7.2125     0.1591    -0.2485     0.1320     7.1127     2.2503   225.5900     6.8871    -0.0537
  662   13.220   3759.10     8.0037     0.1405    -0.2551     0.1322     7.8971     1.7975   225.9500     7.6712    -0.0503
  663   13.240   3760.05     8.1912     0.1110    -0.2478     0.1324     8.0874     1.3561   226.3100     7.8611    -0.0483
  664   13.260   3761.06     7.8778     0.0983    -0.2397     0.1326     7.7759     1.2329   226.6700     7.5492    -0.0497
  665   13.280   3762.01     7.2101     0.1031    -0.2439     0.1328     7.1094     1.4147   227.0300     6.8824    -0.0541
  666   13.300   3763.01     6.4314     0.1138    -0.2600     0.1330     6.3228     1.7401   227.3900     6.0954    -0.0643
  667   13.320   3763.96     5.4008     0.1238    -0.2705     0.1332     5.2874     2.2698   227.7500     5.0597    -0.0798
  668   13.340   3764.97     4.5770     0.1248    -0.2687     0.1334     4.4631     2.6758   228.1100     4.2350    -0.0956
  669   13.360   3766.01     3.8862     0.1112    -0.2594     0.1336     3.7746     2.7953   228.4700     3.5461    -0.1126
  670   13.380   3766.97     3.3732     0.1070    -0.2356     0.1338     3.2708     3.1494   228.8300     3.0420    -0.1241
  671   13.400   3768.02     3.6489     0.1074    -0.2165     0.1340     3.5552     3.0053   229.1900     3.3260    -0.1073
  672   13.420   3769.02     4.1425     0.1015    -0.1737     0.1342     4.0608     2.4830   229.5500     3.8312    -0.0859
  673   13.440   3771.90     3.5657     0.0935    -0.1512     0.1344     3.5128     2.5007   229.9100     3.2829    -0.0793
  674   13.460   3772.97     4.9469     0.0894    -0.1700     0.1346     4.8733     1.8085   230.2700     4.6430    -0.0667
  675   13.480   3773.98     4.8376     0.0904    -0.1416     0.1348     4.7743     1.8662   230.6300     4.5437    -0.0628
  676   13.500   3775.02     4.7685     0.0879    -0.1135     0.1350     4.7135     1.8466   230.9900     4.4825    -0.0593
  677   13.520   3776.03     4.9570     0.0851    -0.1117     0.1352     4.9192     1.7264   231.3500     4.6879    -0.0480
  678   13.540   3777.03     5.1566     0.0760    -0.1341     0.1354     5.1008     1.4934   231.7100     4.8691    -0.0551
  679   13.560   3778.03     5.3033     0.0734    -0.1356     0.1356     5.2465     1.3902   232.0700     5.0144    -0.0540
  680   13.580   3779.03     5.3461     0.0661    -0.1403     0.1358     5.2881     1.2410   232.4300     5.0557    -0.0542
  681   13.600   3780.04     4.9567     0.0766    -0.1202     0.1360     4.9009     1.5644   232.7900     4.6681    -0.0576
  682   13.620   3781.04     4.2959     0.0833    -0.1183     0.1362     4.2446     1.8380   233.1500     4.0115    -0.0644
  683   13.640   3788.54     3.5628     0.0783    -0.0055     0.1364     3.5443     2.7079   233.5100     3.3108    -0.0530
  684   13.660   3803.44     3.2905     0.0801     0.1056     0.1366     3.3187     2.7723   233.8700     3.0849    -0.0208
  685   13.680   3811.49     2.8818     0.0824     0.2618     0.1368     2.9619     2.7705   234.2300     2.7277     0.0199
  686   13.700   3817.41     2.9099     0.0808     0.1897     0.1370     3.0005     3.6837   234.5900     2.7659     0.0311
  687   13.720   3825.80     3.2667     0.0750     0.1296     0.1372     3.3257     2.8453   234.9500     3.0908     0.0021
  688   13.740   3828.30     3.5161     0.0704     0.1425     0.1374     3.5780     2.0135   235.3100     3.3427     0.0029
  689   13.760   3829.35     3.8866     0.0683     0.1453     0.1376     3.9432     1.7745   235.6700     3.7075    -0.0008
  690   13.780   3830.45     4.1600     0.0643     0.1808     0.1378     4.2275     1.5644   236.0300     3.9914     0.0057
  691   13.800   3831.41     4.1630     0.0552     0.2209     0.1380     4.2528     1.3230   236.3900     4.0164     0.0189
  692   13.820   3832.37     3.9703     0.0556     0.2113     0.1382     4.0618     1.3849   236.7500     3.8251     0.0209
  693   13.840   3833.36     3.7847     0.0557     0.2136     0.1384     3.8699     1.4637   237.1100     3.6328     0.0177
  694   13.860   3834.36     3.6205     0.0513     0.2613     0.1386     3.7243     1.4055   237.4700     3.4869     0.0312
  695   13.880   3835.35     3.5282     0.0465     0.2919     0.1388     3.6480     1.3142   237.8300     3.4101     0.0429
  696   13.900   3836.32     3.4652     0.0454     0.3062     0.1390     3.5913     1.3069   238.1900     3.3531     0.0481
  697   13.920   3837.32     3.3045     0.0486     0.3207     0.1392     3.4357     1.4625   238.5500     3.1971     0.0542
  698   13.940   3838.32     3.0435     0.0514     0.3398     0.1394     3.1850     1.6793   238.9100     2.9461     0.0671
  699   13.960   3839.29     2.8287     0.0455     0.3748     0.1396     2.9813     1.5912   239.2700     2.7421     0.0818
  700   13.980   3840.30     2.7129     0.0427     0.3881     0.1398     2.8717     1.5808   239.6300     2.6321     0.0905
  701   14.000   3841.32     3.0408     0.0418     0.3901     0.1400     3.2074     1.4131   239.9900     2.9674     0.0866
  702   14.020   3842.33     3.4568     0.0389     0.3487     0.1402     3.6095     1.1431   240.3500     3.3691     0.0664
  703   14.040   3843.33     3.7114     0.0364     0.2954     0.1404     3.8455     0.9852   240.7100     3.6047     0.0496
  704   14.060   3844.30     3.5520     0.0344     0.2929     0.1406     3.6727     0.9571   241.0700     3.4316     0.0428
  705   14.080   3845.28     3.2147     0.0316     0.2692     0.1408     3.3279     0.9583   241.4300     3.0865     0.0417
  706   14.100   3846.28     2.7192     0.0312     0.3060     0.1410     2.8405     1.1181   241.7900     2.5987     0.0571
  707   14.120   3847.29     2.3261     0.0309     0.3838     0.1412     2.4762     1.2974   242.1500     2.2341     0.0972
  708   14.140   3848.29     2.0460     0.0307     0.4657     0.1414     2.2289     1.4785   242.5100     1.9864     0.1484
  709   14.160   3849.26     2.0278     0.0296     0.5567     0.1416     2.2504     1.4787   242.8700     2.0075     0.1933
  710   14.180   3850.22     2.1023     0.0285     0.5554     0.1418     2.3385     1.3558   243.2300     2.0952     0.2007
  711   14.200   3851.24     2.1359     0.0294     0.5401     0.1420     2.3603     1.3808   243.5900     2.1167     0.1853
  712   14.220   3852.22     2.1422     0.0315     0.5526     0.1422     2.3732     1.4695   243.9500     2.1292     0.1915
  713   14.240   3853.25     2.1771     0.0315     0.5696     0.1424     2.4139     1.4568   244.3100     2.1696     0.1942
  714   14.260   3854.23     2.2506     0.0315     0.5608     0.1426     2.4886     1.4080   244.6700     2.2439     0.1890
  715   14.280   3855.25     2.3570     0.0336     0.5062     0.1428     2.5768     1.4366   245.0300     2.3318     0.1633
  716   14.300   3856.20     2.4594     0.0369     0.5088     0.1430     2.6744     1.5083   245.3900     2.4290     0.1520
  717   14.320   3857.21     2.5149     0.0393     0.5254     0.1432     2.7326     1.5664   245.7500     2.4868     0.1509
  718   14.340   3858.16     2.5649     0.0372     0.5325     0.1434     2.7878     1.4550   246.1100     2.5416     0.1523
  719   14.360   3859.15     2.6810     0.0337     0.5137     0.1436     2.9005     1.2663   246.4700     2.6540     0.1428
  720   14.380   3860.18     2.8090     0.0316     0.4718     0.1438     3.0161     1.1270   246.8300     2.7692     0.1262
  721   14.400   3861.18     2.9308     0.0306     0.4561     0.1440     3.1271     1.0547   247.1900     2.8799     0.1123
  722   14.420   3862.20     3.1948     0.0317     0.4129     0.1442     3.3779     1.0040   247.5500     3.1303     0.0933
  723   14.440   3863.22     3.4542     0.0315     0.4077     0.1444     3.6247     0.9189   247.9100     3.3768     0.0774
  724   14.460   3864.19     3.5624     0.0331     0.4120     0.1446     3.7318     0.9318   248.2700     3.4836     0.0743
  725   14.480   3865.22     3.6088     0.0337     0.4108     0.1448     3.7825     0.9342   248.6300     3.5338     0.0760
  726   14.500   3866.17     3.5045     0.0311     0.4277     0.1450     3.6814     0.8807   248.9900     3.4324     0.0805
  727   14.520   3867.18     3.3601     0.0287     0.4292     0.1452     3.5383     0.8479   249.3500     3.2890     0.0849
  728   14.540   3868.18     3.3039     0.0290     0.3993     0.1454     3.4762     0.8756   249.7100     3.2265     0.0821
  729   14.560   3869.18     3.1491     0.0268     0.3847     0.1456     3.3099     0.8435   250.0700     3.0598     0.0775
  730   14.580   3870.18     2.8430     0.0345     0.3987     0.1458     3.0108     1.2340   250.4300     2.7604     0.0919
  731   14.600   3871.14     2.5740     0.0422     0.4618     0.1460     2.7625     1.6246   250.7900     2.5117     0.1206
  732   14.620   3872.12     2.4780     0.0483     0.4790     0.1462     2.6783     1.9368   251.1500     2.4272     0.1363
  733   14.640   3873.09     2.5280     0.0483     0.4852     0.1464     2.7290     1.9398   251.5100     2.4774     0.1340
  734   14.660   3874.14     2.6115     0.0503     0.5128     0.1466     2.8246     1.9504   251.8700     2.5727     0.1403
  735   14.680   3878.71     2.7069     0.0498     0.4120     0.1468     2.8948     1.8774   252.2300     2.6426     0.1146
  736   14.700   3885.27     2.7929     0.0460     0.3097     0.1470     2.9378     1.7354   252.5900     2.6852     0.0749
  737   14.720   3891.83     2.8788     0.0436     0.2582     0.1472     2.9807     1.5786   252.9500     2.7278     0.0351
  738   14.740   3893.36     2.7428     0.0379     0.3511     0.1474     2.8780     1.3690   253.3100     2.6246     0.0665
  739   14.760   3894.35     2.6321     0.0373     0.3940     0.1476     2.7942     1.4099   253.6700     2.5406     0.0939
  740   14.780   3895.35     2.4588     0.0365     0.4383     0.1478     2.6308     1.4639   254.0300     2.3768     0.1102
  741   14.800   3896.40     2.0962     0.0363     0.5098     0.1480     2.3022     1.6772   254.3870     2.0478     0.1675
  742   14.820   3897.36     1.8928     0.0372     0.6003     0.1482     2.1313     1.9445   254.7100     1.8766     0.2238
  743   14.840   3898.33     1.9234     0.0400     0.6289     0.1484     2.1842     2.1065   255.0300     1.9292     0.2451
  744   14.860   3899.31     1.9582     0.0434     0.6505     0.1486     2.2303     2.2136   255.3500     1.9749     0.2528
  745   14.880   3900.31     1.9092     0.0489     0.6637     0.1488     2.1888     2.5523   255.6700     1.9331     0.2674
  746   14.900   3901.32     1.9181     0.0549     0.6328     0.1490     2.1929     2.8740   255.9900     1.9369     0.2608
  747   14.920   3902.29     1.9843     0.0538     0.5751     0.1492     2.2269     2.7267   256.3100     1.9706     0.2175
  748   14.940   3903.27     2.0793     0.0552     0.6147     0.1494     2.3293     2.6810   256.6300     2.0727     0.2151
  749   14.960   3904.25     2.2350     0.0571     0.6378     0.1496     2.5061     2.6026   256.9500     2.2492     0.2208
  750   14.980   3905.28     2.2930     0.0573     0.6404     0.1498     2.5594     2.4725   257.2700     2.3021     0.2105
  751   15.000   3906.25     2.1234     0.0548     0.6709     0.1500     2.4030     2.5678   257.5900     2.1454     0.2404
  752   15.020   3907.23     2.0560     0.0539     0.7345     0.1502     2.3587     2.6269   257.9100     2.1008     0.2716
  753   15.040   3908.21     2.0872     0.0549     0.7730     0.1504     2.4043     2.6332   258.2300     2.1460     0.2817
  754   15.060   3909.21     2.1654     0.0601     0.7077     0.1506     2.4837     2.8044   258.5500     2.2252     0.2731
  755   15.080   3910.21     2.2522     0.0564     0.6690     0.1508     2.5314     2.5126   258.8700     2.2726     0.2261
  756   15.100   3911.24     2.2924     0.0515     0.6707     0.1510     2.5743     2.2449   259.1900     2.3151     0.2246
  757   15.120   3912.19     2.3069     0.0549     0.6658     0.1512     2.5879     2.3846   259.5100     2.3284     0.2225
  758   15.140   3913.18     2.3075     0.0585     0.7162     0.1514     2.5977     2.5373   259.8300     2.3379     0.2307
  759   15.160   3914.15     2.2916     0.0591     0.8088     0.1516     2.6231     2.5786   260.1500     2.3629     0.2698
  760   15.180   3915.15     2.3357     0.0597     0.7331     0.1518     2.6583     2.5604   260.4700     2.3979     0.2571
  761   15.200   3916.10     2.3807     0.0579     0.6657     0.1520     2.6691     2.4365   260.7900     2.4084     0.2221
  762   15.220   3917.10     2.3544     0.0597     0.7434     0.1522     2.6511     2.5204   261.1100     2.3900     0.2319
  763   15.240   3918.05     2.2070     0.0592     0.8638     0.1524     2.5526     2.6487   261.4300     2.2912     0.2928
  764   15.260   3919.06     2.0240     0.0595     0.8869     0.1526     2.3966     2.9324   261.7500     2.1349     0.3441
  765   15.280   3920.11     2.0408     0.0614     0.9479     0.1528     2.4384     3.0129   262.0700     2.1763     0.3648
  766   15.300   3921.10     2.0397     0.0629     1.0196     0.1530     2.4595     3.0860   262.3900     2.1971     0.3852
  767   15.320   3922.06     2.0428     0.0621     1.0150     0.1532     2.4770     3.0318   262.7100     2.2143     0.3976
  768   15.340   3923.06     1.9943     0.0593     1.0035     0.1534     2.4138     2.9724   263.0300     2.1508     0.3931
  769   15.360   3924.07     1.9966     0.0587     0.9759     0.1536     2.4132     2.9478   263.3500     2.1498     0.3900
  770   15.380   3925.07     2.0546     0.0630     1.0090     0.1538     2.4594     3.0798   263.6700     2.1957     0.3688
  771   15.400   3926.07     2.1362     0.0610     1.1513     0.1540     2.6079     2.8811   263.9900     2.3439     0.4135
  772   15.420   3927.03     2.2395     0.0578     1.1746     0.1542     2.7268     2.5910   264.3100     2.4625     0.4085
  773   15.440   3928.03     2.3332     0.0612     1.1534     0.1544     2.8323     2.6763   264.6300     2.5677     0.4027
  774   15.460   3929.08     2.4406     0.0657     1.1293     0.1546     2.9165     2.7968   264.9500     2.6515     0.3690
  775   15.480   3930.03     2.4182     0.0703     1.2093     0.1548     2.9241     2.9172   265.2700     2.6589     0.3948
  776   15.500   3931.03     2.4249     0.0759     1.1204     0.1550     2.9116     3.1329   265.5900     2.6460     0.3794
  777   15.520   3932.03     2.4897     0.0764     1.1237     0.1552     2.9500     3.0772   265.9100     2.6841     0.3505
  778   15.540   3932.99     2.4416     0.0794     1.1590     0.1554     2.9240     3.2342   266.2300     2.6577     0.3737
  779   15.560   3946.21     2.3581     0.0798     1.1895     0.1556     2.8532     3.3114   266.5500     2.5867     0.3966
  780   15.580   3959.58     2.2746     0.0795     1.2199     0.1558     2.7825     3.4456   266.8700     2.5156     0.4195
  781   15.600   3967.45     2.2042     0.0793     1.1602     0.1560     2.7175     3.5798   267.1900     2.4503     0.4351
  782   15.620   3968.45     2.1877     0.0773     1.0024     0.1562     2.5949     3.5281   267.5100     2.3274     0.3493
  783   15.640   3969.45     2.1674     0.0754     1.1026     0.1564     2.6258     3.4782   267.8300     2.3579     0.3965
  784   15.660   3970.40     2.1206     0.0751     1.1067     0.1566     2.5886     3.5124   268.1500     2.3205     0.4127
  785   15.680   3974.38     2.0941     0.0724     1.0687     0.1568     2.5485     3.4184   268.4700     2.2800     0.4055
  786   15.700   3978.67     2.0676     0.0706     1.0308     0.1570     2.5060     3.3347   268.7900     2.2372     0.3962
  787   15.720   3981.46     2.0259     0.0648     1.0569     0.1572     2.4628     3.1859   269.1100     2.1937     0.4026
  788   15.740   3982.51     1.9741     0.0597     1.1217     0.1574     2.4348     3.0074   269.4300     2.1653     0.4339
  789   15.760   3983.51     1.9287     0.0574     1.1691     0.1576     2.4148     2.9616   269.7500     2.1450     0.4661
  790   15.780   3984.52     2.0062     0.0601     1.1843     0.1578     2.5005     3.0216   270.0700     2.2304     0.4569
  791   15.800   3985.52     2.0485     0.0587     1.1287     0.1580     2.5462     2.8680   270.3900     2.2758     0.4512
  792   15.820   3986.47     2.0215     0.0493     0.9638     0.1582     2.4405     2.4229   270.7100     2.1698     0.3868
  793   15.840   3987.42     1.9942     0.0471     0.8641     0.1584     2.3644     2.3614   271.0300     2.0934     0.3453
  794   15.860   3988.43     1.9344     0.0454     0.8087     0.1586     2.2811     2.3417   271.3500     2.0097     0.3318
  795   15.880   3989.48     1.6954     0.0437     0.8691     0.1588     2.0515     2.5395   271.6700     1.7798     0.3873
  796   15.900   3990.43     1.5853     0.0426     0.9746     0.1590     1.9811     2.6827   271.9900     1.7092     0.4585
  797   15.920   3991.43     1.7996     0.0391     1.0170     0.1592     2.2239     2.2025   272.3100     1.9516     0.4366
  798   15.940   3992.44     2.4728     0.0397     0.9478     0.1594     2.8898     1.8356   272.6334     2.6171     0.3193
  799   15.960   3993.49     3.4200     0.0444     0.7734     0.1596     3.7673     1.5184   273.0100     3.4943     0.1912
  800   15.980   3994.45     4.2955     0.0501     0.6730     0.1598     4.5853     1.2748   273.3900     4.3119     0.1232
  801   16.000   3995.49     5.1764     0.0538     0.6320     0.1600     5.4457     1.1220   273.7700     5.1719     0.0931
  802   16.020   3996.50     6.2808     0.0531     0.5544     0.1602     6.5280     0.9174   274.1500     6.2539     0.0685
  803   16.040   3997.50     7.4618     0.0565     0.3436     0.1604     7.6464     0.8158   274.5300     7.3719     0.0379
  804   16.060   3998.56     8.8182     0.0570     0.1773     0.1606     8.9129     0.6511   274.9100     8.6380     0.0075
  805   16.080   3999.60    10.1846     0.0546     0.0484     0.1608    10.2260     0.5484   275.2900     9.9507    -0.0062
  806   16.100   4000.62    11.5347     0.0446     0.0087     0.1610    11.5383     0.3944   275.6700    11.2626    -0.0135
  807   16.120   4001.62    12.6181     0.0443     0.0381     0.1612    12.6275     0.3586   276.0500    12.3514    -0.0113
  808   16.140   4002.66    13.8618     0.0481    -0.0219     0.1614    13.8633     0.3587   276.4300    13.5869    -0.0116
  809   16.160   4003.61    15.2028     0.0544    -0.0127     0.1616    15.1970     0.3712   276.8100    14.9202    -0.0118
  810   16.180   4004.60    16.7463     0.0631    -0.0605     0.1618    16.7405     0.3912   277.1900    16.4633    -0.0106
  811   16.200   4005.56    17.6664     0.0757    -0.1030     0.1620    17.6246     0.4369   277.5700    17.3471    -0.0151
  812   16.220   4006.52    17.9263     0.0841    -0.1025     0.1622    17.8845     0.4697   277.9500    17.6065    -0.0149
  813   16.240   4007.43    17.6800     0.0951    -0.0937     0.1624    17.6384     0.5336   278.3300    17.3601    -0.0151
  814   16.260   4008.39    17.2148     0.1058    -0.0716     0.1626    17.1815     0.6052   278.7100    16.9028    -0.0143
  815   16.280   4009.30    16.6364     0.1124    -0.0501     0.1628    16.6114     0.6650   279.0900    16.3323    -0.0136
  816   16.300   4010.25    16.0932     0.1089    -0.0091     0.1630    16.0841     0.6672   279.4700    15.8046    -0.0117
  817   16.320   4011.17    15.7385     0.1061     0.0317     0.1632    15.7446     0.6684   279.8500    15.4648    -0.0096
  818   16.340   4012.12    15.3450     0.1022     0.0687     0.1634    15.3719     0.6584   280.2300    15.0916    -0.0066
  819   16.360   4013.04    14.6590     0.0988     0.0772     0.1636    14.6877     0.6630   280.6100    14.4071    -0.0066
  820   16.380   4013.99    14.0631     0.0998     0.1191     0.1638    14.1132     0.7021   280.9900    13.8322    -0.0032
  821   16.400   4014.95    13.5862     0.0988     0.1332     0.1640    13.6399     0.7220   281.3700    13.3585    -0.0027
  822   16.420   4015.94    13.1979     0.0999     0.1123     0.1642    13.2494     0.7528   281.7500    12.9677    -0.0032
  823   16.440   4016.90    12.6895     0.0928     0.0584     0.1644    12.7200     0.7258   282.1300    12.4379    -0.0074
  824   16.460   4017.82    12.2864     0.0674     0.0737     0.1646    12.3127     0.5468   282.5100    12.0302    -0.0085
  825   16.480   4018.82    11.9815     0.0547     0.0421     0.1648    12.0089     0.4553   282.8900    11.7260    -0.0085
  826   16.500   4019.86    11.7045     0.0593    -0.0515     0.1650    11.6987     0.5052   283.2700    11.4154    -0.0157
  827   16.520   4020.86    11.4952     0.0629    -0.1011     0.1652    11.4509     0.5459   283.6500    11.1672    -0.0242
  828   16.540   4021.83    11.2208     0.0711    -0.0788     0.1654    11.1846     0.6329   284.0300    10.9006    -0.0231
  829   16.560   4022.86    10.8175     0.0855     0.0195     0.1656    10.8129     0.7927   284.4100    10.5284    -0.0168
  830   16.580   4023.82    10.2389     0.1093     0.0719     0.1658    10.2595     1.0598   284.7900     9.9747    -0.0117
  831   16.600   4024.85     9.9318     0.1330     0.1197     0.1660     9.9781     1.3268   285.1700     9.6929    -0.0058
  832   16.620   4025.86     9.8963     0.1594     0.1493     0.1662     9.9531     1.6050   285.5500     9.6676    -0.0032
  833   16.640   4026.87     9.8181     0.1879     0.1806     0.1664     9.8901     1.9090   285.9300     9.6041     0.0005
  834   16.660   4027.88    10.0332     0.2124     0.2007     0.1666    10.1261     2.1338   286.3100     9.8398     0.0055
  835   16.680   4030.93    10.7443     0.2174     0.0611     0.1668    10.7902     2.1604   286.6900    10.5035    -0.0041
  836   16.700   4034.27    11.5244     0.2216    -0.0785     0.1670    11.5117     2.2021   287.0700    11.2246    -0.0164
  837   16.720   4037.18    12.1495     0.2187    -0.1814     0.1672    12.0831     1.9113   287.4500    11.7957    -0.0276
  838   16.740   4038.19    12.0935     0.1921    -0.1732     0.1674    12.0191     1.5880   287.8300    11.7313    -0.0294
  839   16.760   4039.14    12.2382     0.1956    -0.1590     0.1676    12.1668     1.6084   288.2100    11.8786    -0.0284
  840   16.780   4040.08    12.3912     0.2068    -0.1399     0.1678    12.3270     1.6745   288.5900    12.0384    -0.0266
  841   16.800   4041.04    12.5688     0.1976    -0.0842     0.1680    12.5238     1.5860   288.9700    12.2348    -0.0225
  842   16.820   4042.00    13.5078     0.1837    -0.0554     0.1682    13.4750     1.4101   289.3500    13.1856    -0.0187
  843   16.840   4042.95    14.5765     0.1738    -0.0159     0.1684    14.5694     1.2195   289.7300    14.2797    -0.0130
  844   16.860   4043.87    15.0016     0.1731    -0.0209     0.1686    14.9984     1.1640   290.1100    14.7083    -0.0120
  845   16.880   4044.86    15.6378     0.1669    -0.0688     0.1688    15.6101     1.0859   290.4900    15.3196    -0.0153
  846   16.900   4045.78    16.0498     0.1667    -0.0812     0.1690    16.0217     1.0466   290.8700    15.7308    -0.0150
  847   16.920   4046.76    15.9239     0.1723    -0.1409     0.1692    15.8708     1.0741   291.2500    15.5796    -0.0190
  848   16.940   4047.71    15.6016     0.1652    -0.2073     0.1694    15.5264     1.0514   291.6300    15.2347    -0.0229
  849   16.960   4048.67    15.5907     0.1342    -0.2534     0.1696    15.4887     0.8624   292.0100    15.1967    -0.0271
  850   16.980   4049.57    15.6707     0.1109    -0.2626     0.1698    15.5611     0.7091   292.3900    15.2687    -0.0282
  851   17.000   4050.56    15.7032     0.0953    -0.2832     0.1700    15.5852     0.6076   292.7700    15.2924    -0.0295
  852   17.020   4051.52    15.9982     0.0851    -0.2936     0.1702    15.8765     0.5376   293.1500    15.5834    -0.0295
  853   17.040   4052.48    16.0983     0.0857    -0.3003     0.1704    15.9727     0.5316   293.5300    15.6791    -0.0299
  854   17.060   4053.43    15.6696     0.0820    -0.3006     0.1706    15.5434     0.5217   293.9100    15.2494    -0.0309
  855   17.080   4054.35    14.7980     0.0741    -0.2984     0.1708    14.6723     0.4899   294.2900    14.3780    -0.0327
  856   17.100   4055.26    13.9041     0.0766    -0.2957     0.1710    13.7794     0.5501   294.6700    13.4848    -0.0347
  857   17.120   4056.17    13.2988     0.0828    -0.2923     0.1712    13.1755     0.6104   295.0500    12.8805    -0.0361
  858   17.140   4057.13    12.9470     0.0809    -0.2938     0.1714    12.8238     0.6170   295.4300    12.5284    -0.0371
  859   17.160   4058.04    12.5917     0.1010    -0.2962     0.1716    12.4667     0.7901   295.8100    12.1709    -0.0386
  860   17.180   4058.95    12.2259     0.1461    -0.2919     0.1718    12.1025     1.1714   296.1900    11.8063    -0.0394
  861   17.200   4059.87    10.9773     0.1869    -0.2843     0.1720    10.8567     1.6540   296.5677    10.5601    -0.0435
  862   17.220   4060.80     9.5502     0.1999    -0.2814     0.1722     9.4325     2.0650   296.9300     9.1355    -0.0496
  863   17.240   4061.75     8.0462     0.1835    -0.2933     0.1724     7.9244     2.2507   297.2900     7.6271    -0.0608
  864   17.260   4062.73     6.4590     0.1540    -0.2829     0.1726     6.3386     2.3592   297.6500     6.0410    -0.0761
  865   17.280   4063.71     5.6527     0.1321    -0.2586     0.1728     5.5392     2.3063   298.0100     5.2412    -0.0846
  866   17.300   4064.74     6.6558     0.1060    -0.2309     0.1730     6.5568     1.6963   298.3700     6.2584    -0.0659
  867   17.320   4065.79     9.0414     0.0887    -0.2125     0.1732     8.9489     1.0631   298.7300     8.6502    -0.0458
  868   17.340   4066.82    11.9352     0.0792    -0.2377     0.1734    11.8435     0.7058   299.0900    11.5444    -0.0340
  869   17.360   4067.77    12.8905     0.0894    -0.2791     0.1736    12.7748     0.6920   299.4500    12.4754    -0.0360
  870   17.380   4068.72    11.8620     0.1085    -0.2719     0.1738    11.7471     0.8904   299.8100    11.4473    -0.0391
  871   17.400   4069.68    10.0090     0.1265    -0.2726     0.1740     9.8947     1.2291   300.1654     9.5946    -0.0466
  872   17.420   4070.66     7.2674     0.1590    -0.2669     0.1742     7.1547     1.9631   300.4900     6.8542    -0.0647
  873   17.440   4071.66     6.0437     0.1619    -0.2412     0.1744     5.9375     2.5517   300.8100     5.6367    -0.0759
  874   17.460   4072.63     5.5649     0.1836    -0.1535     0.1746     5.4867     3.2802   301.1300     5.1855    -0.0696
  875   17.480   4073.64     5.4390     0.1666    -0.1133     0.1748     5.3881     3.0741   301.4500     5.0867    -0.0582
  876   17.500   4074.64     5.0728     0.1526    -0.0550     0.1750     5.0401     3.0816   301.7700     4.7383    -0.0534
  877   17.520   4076.85     3.7451     0.1403     0.0171     0.1752     3.7465     3.4571   302.0900     3.4444    -0.0498
  878   17.540   4078.49     4.2637     0.1348     0.1435     0.1754     4.3109     3.2647   302.4100     4.0085    -0.0157
  879   17.560   4079.50     4.0385     0.1294     0.2375     0.1756     4.1059     3.1479   302.7300     3.8032    -0.0040
  880   17.580   4080.75     4.4174     0.1201     0.3459     0.1758     4.5905     2.7749   303.0500     4.2875     0.0556
  881   17.600   4097.25     5.3394     0.1043     0.2391     0.1760     5.4553     2.2628   303.4002     5.1519     0.0232
  882   17.620   4114.34     6.1082     0.0856     0.1468     0.1762     6.1792     1.8576   303.7520     5.8755     0.0002
  883   17.640   4119.31     6.5945     0.0749     0.1463     0.1764     6.6558     1.1726   304.1100     6.3517    -0.0048
  884   17.660   4120.31     7.0346     0.0760     0.1058     0.1766     7.0953     1.1051   304.4700     6.7908    -0.0047
  885   17.680   4124.41     7.2186     0.0800     0.0308     0.1768     7.2393     1.2919   304.8300     6.9344    -0.0184
  886   17.700   4131.76     7.2516     0.0820    -0.0276     0.1770     7.2499     1.1804   305.1900     6.9447    -0.0261
  887   17.720   4132.97     6.5102     0.0806    -0.0788     0.1772     6.4840     1.2319   305.5500     6.1784    -0.0388
  888   17.740   4134.02     5.5870     0.0796    -0.0377     0.1774     5.5604     1.4029   305.9100     5.2545    -0.0458
  889   17.760   4135.02     4.9343     0.0737     0.0215     0.1776     4.9287     1.4803   306.2700     4.6224    -0.0413
  890   17.780   4135.98     4.6954     0.0666     0.1496     0.1778     4.7329     1.4142   306.6299     4.4263    -0.0200
  891   17.800   4136.98     4.8786     0.0614     0.2364     0.1780     4.9699     1.2698   306.9900     4.6629     0.0084
  892   17.820   4138.04     5.9663     0.0574     0.1762     0.1782     6.0457     1.0258   307.3506     5.7383     0.0019
  893   17.840   4139.04     7.0822     0.0499     0.0924     0.1784     7.1403     0.7451   307.7300     6.8326    -0.0058
  894   17.860   4140.04     8.3205     0.0457     0.0814     0.1786     8.3502     0.5772   308.1100     8.0421    -0.0134
  895   17.880   4141.04     8.9011     0.0452     0.0914     0.1788     8.9388     0.5164   308.4900     8.6303    -0.0103
  896   17.900   4142.00     8.9761     0.0444     0.1180     0.1790     9.0170     0.4959   308.8700     8.7082    -0.0094
  897   17.920   4142.91     9.1178     0.0483     0.1572     0.1792     9.1785     0.5327   309.2500     8.8692    -0.0039
  898   17.940   4143.85     9.1602     0.0552     0.1702     0.1794     9.2306     0.6045   309.6300     8.9209    -0.0013
  899   17.960   4144.81     9.2661     0.0628     0.1903     0.1796     9.3422     0.6812   310.0099     9.0322     0.0002
  900   17.980   4145.78     9.3923     0.0685     0.2292     0.1798     9.4829     0.7325   310.3900     9.1725     0.0039
  901   18.000   4146.74     9.3380     0.0747     0.2621     0.1800     9.4436     0.7953   310.7700     9.1328     0.0078
  902   18.020   4147.69     9.1836     0.0803     0.2892     0.1802     9.3015     0.8712   311.1500     8.9903     0.0112
  903   18.040   4148.65     9.3203     0.0849     0.3036     0.1804     9.4463     0.9180   311.5300     9.1347     0.0131
  904   18.060   4149.61     9.4664     0.0816     0.3191     0.1806     9.5997     0.8676   311.9100     9.2877     0.0147
  905   18.080   4150.52     9.5985     0.0803     0.3351     0.1808     9.7352     0.8416   312.2900     9.4229     0.0154
  906   18.100   4151.48     9.8555     0.0763     0.3548     0.1810    10.0068     0.7883   312.6700     9.6941     0.0185
  907   18.120   4152.43    10.6247     0.0698     0.3172     0.1812    10.7608     0.6834   313.0500    10.4477     0.0137
  908   18.140   4153.38    11.4487     0.0631     0.2523     0.1814    11.5691     0.5723   313.4300    11.2557     0.0094
  909   18.160   4154.30    11.8115     0.0588     0.1985     0.1816    11.8987     0.5011   313.8100    11.5849     0.0023
  910   18.180   4155.26    11.7201     0.0556     0.1912     0.1818    11.8008     0.4715   314.1900    11.4866     0.0009
  911   18.200   4156.17    11.5252     0.0582     0.1736     0.1820    11.5946     0.5012   314.5699    11.2800    -0.0015
  912   18.220   4157.09    11.4250     0.0619     0.1815     0.1822    11.4995     0.5404   314.9500    11.1845    -0.0004
  913   18.240   4158.00    11.3838     0.0639     0.2004     0.1824    11.4656     0.5608   315.3300    11.1502     0.0011
  914   18.260   4159.00    11.0717     0.0623     0.2065     0.1826    11.1588     0.5574   315.7100    10.8431     0.0023
  915   18.280   4159.95    10.7269     0.0613     0.2308     0.1828    10.8193     0.5660   316.0900    10.5033     0.0036
  916   18.300   4160.87    10.5039     0.0592     0.2308     0.1830    10.6034     0.5609   316.4700    10.2869     0.0052
  917   18.320   4161.86    10.4039     0.0590     0.2190     0.1832    10.4953     0.5663   316.8500    10.1784     0.0034
  918   18.340   4162.85    10.4036     0.0602     0.2205     0.1834    10.4942     0.5788   317.2300    10.1770     0.0032
  919   18.360   4163.79    10.4250     0.0608     0.2419     0.1836    10.5253     0.5829   317.6100    10.2077     0.0054
  920   18.380   4164.77    10.2492     0.0654     0.2317     0.1838    10.3496     0.6369   317.9900    10.0316     0.0055
  921   18.400   4165.77     9.7521     0.0686     0.2291     0.1840     9.8460     0.6996   318.3700     9.5276     0.0042
  922   18.420   4166.77     9.2762     0.0709     0.2626     0.1842     9.3827     0.7615   318.7500     9.0640     0.0077
  923   18.440   4167.78     8.9887     0.0734     0.2857     0.1844     9.1052     0.8157   319.1300     8.7861     0.0106
  924   18.460   4168.78     8.7208     0.0741     0.3118     0.1846     8.8485     0.8446   319.5100     8.5290     0.0140
  925   18.480   4169.82     8.4245     0.0713     0.2946     0.1848     8.5530     0.8429   319.8900     8.2332     0.0147
  926   18.500   4170.79     8.1767     0.0687     0.2645     0.1850     8.2902     0.8385   320.2700     7.9699     0.0107
  927   18.520   4171.79     8.1422     0.0641     0.2638     0.1852     8.2549     0.7863   320.6500     7.9343     0.0105
  928   18.540   4172.77     8.4088     0.0608     0.2690     0.1854     8.5196     0.7355   321.0300     8.1986     0.0096
  929   18.560   4173.80     8.7693     0.0660     0.2505     0.1856     8.8804     0.7705   321.4100     8.5590     0.0092
  930   18.580   4174.83     9.1368     0.0734     0.2002     0.1858     9.2232     0.8299   321.7900     8.9014     0.0022
  931   18.600   4175.85     9.2295     0.0807     0.2326     0.1860     9.3212     0.8893   322.1700     8.9991     0.0036
  932   18.620   4176.90     9.1402     0.0768     0.2659     0.1862     9.2494     0.8314   322.5500     8.9268     0.0082
  933   18.640   4177.90     9.1739     0.0726     0.2886     0.1864     9.2919     0.7912   322.9300     8.9690     0.0105
  934   18.660   4179.96     9.4192     0.0702     0.2603     0.1866     9.5355     0.7549   323.3100     9.2122     0.0100
  935   18.680   4184.01     9.7518     0.0657     0.2123     0.1868     9.8480     0.7062   323.6900     9.5243     0.0048
  936   18.700   4188.06    10.0844     0.0597     0.1643     0.1870    10.1604     0.6417   324.0699     9.8363    -0.0004
  937   18.720   4190.52    10.1740     0.0596     0.1894     0.1872    10.2502     0.5829   324.4500     9.9257    -0.0006
  938   18.740   4191.52    10.1179     0.0643     0.2151     0.1874    10.2068     0.6345   324.8300     9.8820     0.0024
  939   18.760   4192.44    10.0425     0.0695     0.1979     0.1876    10.1297     0.6903   325.2100     9.8044     0.0020
  940   18.780   4193.39     9.7379     0.0722     0.2207     0.1878     9.8259     0.7362   325.5900     9.5003     0.0023
  941   18.800   4194.31     9.4851     0.0723     0.2498     0.1880     9.5861     0.7596   325.9700     9.2601     0.0057
  942   18.820   4195.29     9.4457     0.0694     0.2655     0.1882     9.5563     0.7345   326.3500     9.2300     0.0081
  943   18.840   4196.24     9.3334     0.0650     0.2457     0.1884     9.4393     0.6955   326.7300     9.1126     0.0070
  944   18.860   4197.30     9.2613     0.0571     0.2111     0.1886     9.3546     0.6155   327.1100     9.0275     0.0037
  945   18.880   4198.30     9.3117     0.0519     0.1973     0.1888     9.3947     0.5582   327.4900     9.0672     0.0010
  946   18.900   4199.27     9.3724     0.0536     0.1841     0.1890     9.4542     0.5713   327.8700     9.1263     0.0006
  947   18.920   4200.26     9.1397     0.0591     0.2044     0.1892     9.2188     0.6407   328.2500     8.8906    -0.0001
  948   18.940   4201.24     8.8494     0.0649     0.2587     0.1894     8.9517     0.7263   328.6299     8.6231     0.0063
  949   18.960   4202.21     8.4641     0.0721     0.2941     0.1896     8.5813     0.8405   329.0100     8.2523     0.0108
  950   18.980   4203.20     8.0410     0.0661     0.3083     0.1898     8.1700     0.8158   329.3900     7.8406     0.0150
  951   19.000   4204.17     7.6849     0.0614     0.3295     0.1900     7.8217     0.7926   329.7700     7.4919     0.0181
  952   19.020   4205.12     7.2593     0.0555     0.3181     0.1902     7.3951     0.7601   330.1500     7.0649     0.0188
  953   19.040   4206.08     6.9480     0.0546     0.3155     0.1904     7.0817     0.7860   330.5300     6.7511     0.0189
  954   19.060   4207.08     7.1520     0.0524     0.2349     0.1906     7.2591     0.7386   330.9100     6.9282     0.0093
  955   19.080   4208.09     7.3893     0.0468     0.2612     0.1908     7.4936     0.6341   331.2900     7.1623     0.0080
  956   19.100   4209.14     7.3231     0.0538     0.3130     0.1910     7.4440     0.7348   331.6700     7.1123     0.0136
  957   19.120   4210.14     7.2388     0.0630     0.3582     0.1912     7.3829     0.8661   332.0500     7.0508     0.0216
  958   19.140   4211.09     7.1812     0.0660     0.3973     0.1914     7.3420     0.9191   332.4300     7.0095     0.0273
  959   19.160   4212.09     7.2037     0.0696     0.3926     0.1916     7.3691     0.9662   332.8100     7.0363     0.0287
  960   19.180   4213.05     7.0404     0.0661     0.4332     0.1918     7.2053     0.9326   333.1900     6.8721     0.0293
  961   19.200   4214.05     6.5653     0.0597     0.4326     0.1920     6.7525     0.9090   333.5699     6.4189     0.0395
  962   19.220   4215.05     6.6973     0.0547     0.3733     0.1922     6.8644     0.8193   333.9500     6.5304     0.0315
  963   19.240   4216.06     6.9821     0.0515     0.3539     0.1924     7.1344     0.7400   334.3300     6.8001     0.0250
  964   19.260   4217.06     7.1746     0.0556     0.2940     0.1926     7.3051     0.7759   334.7100     6.9704     0.0169
  965   19.280   4218.06     7.1283     0.0605     0.2635     0.1928     7.2379     0.8447   335.0888     6.9028     0.0099
  966   19.300   4219.07     6.5620     0.0811     0.3367     0.1930     6.6958     1.2081   335.4500     6.3603     0.0198
  967   19.320   4220.07     5.7712     0.0867     0.4240     0.1932     5.9402     1.4787   335.8100     5.6044     0.0374
  968   19.340   4221.07     5.1788     0.0944     0.5114     0.1934     5.3805     1.7968   336.1700     5.0443     0.0570
  969   19.360   4222.08     4.6896     0.0842     0.5123     0.1936     4.9115     1.7845   336.5299     4.5750     0.0732
  970   19.380   4223.27     4.4056     0.0796     0.6101     0.1938     4.6306     1.7961   336.8900     4.2938     0.0797
  971   19.400   4226.48     5.0678     0.0737     0.5436     0.1940     5.2751     1.4973   337.2500     4.9379     0.0612
  972   19.420   4227.54     5.5486     0.0648     0.6026     0.1942     5.7997     1.1730   337.6100     5.4621     0.0739
  973   19.440   4228.58     6.3430     0.0590     0.4873     0.1944     6.5733     0.9764   337.9700     6.2353     0.0570
  974   19.460   4229.60     7.2290     0.0596     0.4488     0.1946     7.4166     0.8975   338.3400     7.0783     0.0356
  975   19.480   4230.60     7.6646     0.0601     0.4524     0.1948     7.8598     0.8185   338.7200     7.5211     0.0359
  976   19.500   4231.59     8.1611     0.0563     0.4239     0.1950     8.3512     0.7121   339.1000     8.0121     0.0322
  977   19.520   4232.60     8.7627     0.0555     0.3392     0.1952     8.9145     0.6359   339.4800     8.5750     0.0194
  978   19.540   4237.71     9.4564     0.0561     0.2865     0.1954     9.5878     0.6024   339.8600     9.2480     0.0130
  979   19.560   4276.79    10.5292     0.0749     0.2100     0.1956    10.6284     0.8016   340.2400    10.2882     0.0054
  980   19.580   4315.87    11.6019     0.0942     0.1334     0.1958    11.6691     1.0088   340.6200    11.3284    -0.0021
  981   19.600   4344.74    12.5451     0.1117     0.1442     0.1960    12.5961     0.9794   341.0000    12.2551    -0.0061
  982   19.620   4345.70    13.1585     0.1318     0.2185     0.1962    13.2386     1.0189   341.3800    12.8972    -0.0005
  983   19.640   4346.61    13.9524     0.1548     0.2159     0.1964    14.0489     1.1272   341.7600    13.7071     0.0024
  984   19.660   4350.27    15.5718     0.1758     0.0891     0.1966    15.6286     1.2259   342.1400    15.2865    -0.0029
  985   19.680   4355.95    17.7055               -0.0451     0.1968    17.7060              342.5200    17.3634    -0.0099
  986   19.700   4361.63    19.8389               -0.1447     0.1970    19.7831              342.9000    19.4402    -0.0168
  987   19.720   4362.99    22.3005               -0.1315     0.1972    22.2547              343.2800    21.9114    -0.0140
  988   19.740   4363.99    25.0374               -0.1984     0.1974    24.9566              343.6600    24.6130    -0.0158
  989   19.760   4364.95    27.6482               -0.2573     0.1976    27.5465              344.0400    27.2025    -0.0162
  990   19.780   4366.00    30.2985                           0.1978    30.1813              344.4198    29.8369    -0.0160
 
 
