

 Program UNIPLOT                         version 05.36.02
 _______________
 (c) Fugro Netherlands Marine, Nootdorp, The Netherlands


 ASCII representation of data plotted on a graph.

 This ASCII file presents data interpolated to values per fixed depth interval.
 The data are corrected for the depth-offset differences between the various 
 transducers in the penetrometer.

 The records at the start of penetration may include no values or anomalous
 values where a depth offset implies incomplete penetration of a particular
 sensor into the ground.

 The records at the end of penetration may include no values for data channels
 where the transducer did not reach this depth.

 The reference level for test values is (1) the ground surface for onshore tests and (2) the seafloor for nearshore and offshore tests.

 UNICAS data file          : CPT-2025.000                            
 Output using command file : PlotASCII.cmd

 ASCII file created at : date          :10-Dec-2021
                         time          :15:00:24
 Project number                        :20024805
 Date of testing                       :09-Dec-2021
 Location                              :Hong Kong Offshore Wind Farm Project
 Test name                             :CPT-2025
 Penetrometer                          :F7.5CKE2HAW2/B/3284
 Serial no                             :1701-3284

 Table description:
 Column ID                             :Parameter name
 ___________________________________________________________________________________
 Rec                                   :Record ID, Record ID [-]
 Depth                                 :Depth, Depth [m]
 Time                                  :Time, Time [s]
 Cone                                  :Cone Resistance, Cone Resistance [MPa]
 Friction                              :Sleeve Friction, Sleeve Friction [MPa]
 Pore 2                                :Porewater Pressure, Porewater Pressure at Shoulder [MPa]
 HydroPress                            :Hydrostatic Pressure, Hydrostatic Pressure [MPa]
 qt                                    :Total Cone Resistance, Total Cone Resistance [MPa]
 Fric_ratio                            :Friction Ratio, Friction Ratio [%]
 SigmaVert                             :Vertical stress, Vertical stress [kPa] as specified in ground model
 Qnet                                  :Net Cone Resistance, Net Cone Resistance [MPa], unit weight as specified in ground model
 Bq                                    :Porewater Pressure Ratio, Porewater Pressure Ratio [-], unit weight as specified in ground model


 Data table:
  Rec    Depth      Time       Cone   Friction     Pore 2 HydroPress         qt Fric_ratio  SigmaVert       Qnet         Bq
   No        m         s        MPa        MPa        MPa        MPa        MPa          %        kPa        MPa          -
    1    0.000   1494.63     0.0000                           0.0000     0.0000                0.0000     0.0000           
    2    0.020   1495.58     0.0018                0.0009     0.0002     0.0021                0.3200     0.0018     0.2969
    3    0.040   1496.55     0.0086                0.0026     0.0004     0.0095                0.6400     0.0089     0.2078
    4    0.060   1497.48     0.0099     0.0004     0.0037     0.0006     0.0113     4.9258     0.9600     0.0103     0.2615
    5    0.080   1498.44     0.0162     0.0000     0.0048     0.0008     0.0181     0.0642     1.2800     0.0168     0.2243
    6    0.100   1499.38     0.0198     0.0009     0.0055     0.0010     0.0220     4.2951     1.6000     0.0204     0.2124
    7    0.120   1500.34     0.0186     0.0004     0.0053     0.0012     0.0208     2.2442     1.9200     0.0189     0.2216
    8    0.140   1501.32     0.0180     0.0011     0.0049     0.0014     0.0201     5.7921     2.2400     0.0178     0.1933
    9    0.160   1502.23     0.0213     0.0014     0.0054     0.0016     0.0236     7.3113     2.5600     0.0210     0.1841
   10    0.180   1503.18     0.0290     0.0016     0.0035     0.0018     0.0309     6.1766     2.8800     0.0280     0.0967
   11    0.200   1504.18     0.0459     0.0022     0.0016     0.0020     0.0471     5.1843     3.2000     0.0439     0.0156
   12    0.220   1505.16     0.0544     0.0022    -0.0022     0.0022     0.0543     4.2138     3.5200     0.0508    -0.0485
   13    0.240   1506.11     0.0633     0.0029    -0.0032     0.0024     0.0618     4.7350     3.8400     0.0579    -0.1064
   14    0.260   1507.05     0.0722     0.0029     0.0011     0.0026     0.0715     4.2035     4.1600     0.0674    -0.0631
   15    0.280   1508.01     0.0879     0.0039    -0.0048     0.0028     0.0867     4.3591     4.4800     0.0822    -0.0722
   16    0.300   1508.98     0.0823     0.0046    -0.0080     0.0030     0.0800     5.6071     4.8000     0.0752    -0.1099
   17    0.320   1509.94     0.0800     0.0047    -0.0103     0.0032     0.0752     5.2297     5.1200     0.0701    -0.2101
   18    0.340   1510.90     0.0658     0.0049    -0.0073     0.0034     0.0625     7.1047     5.4400     0.0571    -0.1973
   19    0.360   1511.85     0.0618     0.0050    -0.0067     0.0036     0.0591     7.9553     5.7600     0.0534    -0.1892
   20    0.380   1512.80     0.0562     0.0051    -0.0096     0.0038     0.0529     8.6839     6.0800     0.0468    -0.2522
   21    0.400   1513.76     0.0516     0.0048    -0.0016     0.0040     0.0499     9.0811     6.4000     0.0435    -0.1827
   22    0.420   1514.70     0.0490     0.0050     0.0023     0.0042     0.0495     9.9606     6.7200     0.0428    -0.0713
   23    0.440   1515.65     0.0518     0.0043     0.0025     0.0044     0.0531     8.2960     7.0400     0.0461    -0.0240
   24    0.460   1516.60     0.0548     0.0039    -0.0013     0.0046     0.0548     7.4220     7.3600     0.0475    -0.0962
   25    0.480   1517.59     0.0509     0.0039    -0.0020     0.0048     0.0498     7.6884     7.6800     0.0421    -0.1744
   26    0.500   1518.54     0.0477     0.0038     0.0011     0.0050     0.0476     7.8926     8.0000     0.0396    -0.1319
   27    0.520   1519.49     0.0434     0.0032     0.0050     0.0052     0.0450     7.1265     8.3200     0.0367    -0.0385
   28    0.540   1520.44     0.0427     0.0032     0.0068     0.0054     0.0455     8.1202     8.6400     0.0369     0.0313
   29    0.560   1521.39     0.0448     0.0025     0.0083     0.0056     0.0478     5.6014     8.9600     0.0388     0.0411
   30    0.580   1522.35     0.0440     0.0022     0.0112     0.0058     0.0484     4.7635     9.2800     0.0391     0.1159
   31    0.600   1523.33     0.0604     0.0021     0.0130     0.0060     0.0655     4.0263     9.6000     0.0559     0.1122
   32    0.620   1524.28     0.1346     0.0023     0.0130     0.0062     0.1404     2.1348     9.9200     0.1305     0.0609
   33    0.640   1525.23     0.2260     0.0021     0.0124     0.0064     0.2318     0.9864    10.2400     0.2216     0.0329
   34    0.660   1526.19     0.1991     0.0021     0.0054     0.0066     0.2021     0.9936    10.5600     0.1915     0.0022
   35    0.680   1540.02     0.1685     0.0026     0.0076     0.0068     0.1713     1.4390    10.8800     0.1604     0.0010
   36    0.700   1563.79     0.1456     0.0031     0.0106     0.0070     0.1496     1.6917    11.2000     0.1384     0.0206
   37    0.720   1574.70     0.1187     0.0031     0.0129     0.0072     0.1238     2.3830    11.5200     0.1123     0.0446
   38    0.740   1575.66     0.0971     0.0029     0.0151     0.0074     0.1031     2.7980    11.8400     0.0913     0.0768
   39    0.760   1576.61     0.0897     0.0032     0.0163     0.0076     0.0966     3.4691    12.1600     0.0844     0.1041
   40    0.780   1577.56     0.0838     0.0033     0.0163     0.0078     0.0905     3.7874    12.4800     0.0781     0.1069
   41    0.800   1578.52     0.0777     0.0023     0.0164     0.0080     0.0845     2.8928    12.8000     0.0717     0.1156
   42    0.820   1579.47     0.0770     0.0018     0.0183     0.0082     0.0843     2.4261    13.1200     0.0712     0.1294
   43    0.840   1580.46     0.0928     0.0012     0.0221     0.0084     0.1016     1.3590    13.4400     0.0881     0.1413
   44    0.860   1581.36     0.0900     0.0018     0.0226     0.0086     0.0997     1.9951    13.7600     0.0860     0.1679
   45    0.880   1582.31     0.0878     0.0015     0.0173     0.0088     0.0956     1.6835    14.0800     0.0815     0.1179
   46    0.900   1583.26     0.0869     0.0012     0.0154     0.0090     0.0935     1.4355    14.4000     0.0791     0.0839
   47    0.920   1584.26     0.0808     0.0006     0.0176     0.0092     0.0878     0.7530    14.7200     0.0731     0.1032
   48    0.940   1585.20     0.0975     0.0010     0.0200     0.0094     0.1056     1.0976    15.0400     0.0906     0.1105
   49    0.960   1586.15     0.1358     0.0007     0.0200     0.0096     0.1438     0.5501    15.3600     0.1284     0.0739
   50    0.980   1587.10     0.1273     0.0014     0.0197     0.0098     0.1354     0.9841    15.6800     0.1197     0.0784
   51    1.000   1588.05     0.1022     0.0008     0.0214     0.0100     0.1110     0.6943    16.0000     0.0950     0.1161
   52    1.020   1589.03     0.0914     0.0011     0.0230     0.0102     0.1009     1.1204    16.3200     0.0845     0.1456
   53    1.040   1589.99     0.0812     0.0010     0.0243     0.0104     0.0912     1.0786    16.6400     0.0745     0.1810
   54    1.060   1590.93     0.0774     0.0013     0.0253     0.0106     0.0879     1.6559    16.9600     0.0709     0.2024
   55    1.080   1591.89     0.0672     0.0010     0.0274     0.0108     0.0784     1.3568    17.2800     0.0611     0.2594
   56    1.100   1592.84     0.0669     0.0013     0.0300     0.0110     0.0792     1.9264    17.6000     0.0616     0.2955
   57    1.120   1593.79     0.0726     0.0013     0.0315     0.0112     0.0856     1.8354    17.9200     0.0677     0.2921
   58    1.140   1594.70     0.0793     0.0006     0.0323     0.0114     0.0929     0.8525    18.2400     0.0747     0.2820
   59    1.160   1595.68     0.0826     0.0003     0.0302     0.0116     0.0957     0.3107    18.5600     0.0771     0.2527
   60    1.180   1596.63     0.0809     0.0005     0.0306     0.0118     0.0933     0.6374    18.8800     0.0745     0.2387
   61    1.200   1597.59     0.0818     0.0012     0.0352     0.0120     0.0962     1.4933    19.2000     0.0770     0.2883
   62    1.220   1598.54     0.1091     0.0010     0.0361     0.0122     0.1238     1.1772    19.5200     0.1043     0.2251
   63    1.240   1599.48     0.3594     0.0011     0.0381     0.0124     0.3759     0.4656    19.8400     0.3561     0.0806
   64    1.260   1600.43     0.7572     0.0016     0.0180     0.0126     0.7682     0.2516    20.1600     0.7481     0.0197
   65    1.280   1601.40     0.9420     0.0035     0.0092     0.0128     0.9459     0.3819    20.4800     0.9255    -0.0036
   66    1.300   1602.39     0.9401     0.0070     0.0124     0.0130     0.9449     0.7336    20.8000     0.9241    -0.0019
   67    1.320   1603.37     0.9028     0.0076     0.0156     0.0132     0.9090     0.8279    21.1200     0.8879     0.0017
   68    1.340   1604.32     0.8710     0.0046     0.0171     0.0134     0.8781     0.5187    21.4400     0.8566     0.0039
   69    1.360   1605.25     0.9042     0.0062     0.0179     0.0136     0.9115     0.7068    21.7600     0.8897     0.0043
   70    1.380   1606.20     0.9746     0.0063     0.0179     0.0138     0.9821     0.6759    22.0800     0.9600     0.0041
   71    1.400   1607.15     0.9762     0.0077     0.0167     0.0140     0.9833     0.8015    22.4000     0.9609     0.0030
   72    1.420   1608.11     0.9658     0.0133     0.0166     0.0142     0.9726     1.3541    22.7200     0.9499     0.0022
   73    1.440   1609.09     0.8853     0.0146     0.0176     0.0144     0.8925     1.5869    23.0400     0.8694     0.0032
   74    1.460   1610.01     0.7228     0.0134     0.0164     0.0146     0.7297     1.7105    23.3600     0.7064     0.0028
   75    1.480   1610.94     0.5960     0.0115     0.0169     0.0148     0.6030     1.7922    23.6800     0.5793     0.0031
   76    1.500   1611.93     0.4107     0.0085     0.0163     0.0150     0.4177     1.7662    24.0000     0.3937     0.0043
   77    1.520   1612.87     0.2706     0.0076     0.0180     0.0152     0.2779     2.5287    24.3200     0.2536     0.0086
   78    1.540   1613.82     0.2691     0.0045     0.0204     0.0154     0.2774     1.8401    24.6400     0.2528     0.0175
   79    1.560   1614.77     0.4361     0.0069     0.0289     0.0156     0.4467     1.8317    24.9600     0.4218     0.0228
   80    1.580   1615.72     0.6530     0.0050     0.0300     0.0158     0.6658     0.8612    25.2800     0.6405     0.0227
   81    1.600   1616.67     0.7477     0.0056     0.0160     0.0160     0.7549     0.7649    25.6000     0.7293     0.0017
   82    1.620   1617.67     0.7327     0.0081     0.0120     0.0162     0.7380     1.0873    25.9200     0.7121    -0.0052
   83    1.640   1618.63     0.6540     0.0082     0.0124     0.0164     0.6589     1.1954    26.2400     0.6327    -0.0073
   84    1.660   1619.58     0.4885     0.0069     0.0159     0.0166     0.4959     1.2733    26.5600     0.4693     0.0022
   85    1.680   1620.53     0.3154     0.0065     0.0204     0.0168     0.3234     1.9482    26.8800     0.2965     0.0078
   86    1.700   1621.49     0.2712     0.0070     0.0258     0.0170     0.2815     2.3864    27.2000     0.2543     0.0294
   87    1.720   1622.44     0.2376     0.0081     0.0273     0.0172     0.2486     3.3767    27.5200     0.2210     0.0408
   88    1.740   1623.42     0.2701     0.0057     0.0345     0.0174     0.2832     2.2505    27.8400     0.2554     0.0543
   89    1.760   1624.39     0.3516     0.0043     0.0367     0.0176     0.3683     1.3758    28.1600     0.3401     0.0649
   90    1.780   1625.38     0.3644     0.0036     0.0145     0.0178     0.3715     0.9548    28.4800     0.3430    -0.0033
   91    1.800   1626.30     0.3362     0.0028     0.0173     0.0180     0.3432     0.8051    28.8000     0.3144    -0.0041
   92    1.820   1627.23     0.3180     0.0030     0.0365     0.0182     0.3298     0.9458    29.1200     0.3007     0.0319
   93    1.840   1628.18     0.4537     0.0040     0.0372     0.0184     0.4698     1.0367    29.4400     0.4404     0.0459
   94    1.860   1629.17     0.6267     0.0061     0.0332     0.0186     0.6415     1.0476    29.7600     0.6117     0.0271
   95    1.880   1630.13     0.6562     0.0079     0.0264     0.0188     0.6684     1.1930    30.0800     0.6383     0.0161
   96    1.900   1631.10     0.5676     0.0077     0.0203     0.0190     0.5771     1.2634    30.4000     0.5467     0.0068
   97    1.920   1632.05     0.4303     0.0070     0.0189     0.0192     0.4379     1.4720    30.7200     0.4072    -0.0024
   98    1.940   1632.98     0.3586     0.0072     0.0240     0.0194     0.3678     1.9058    31.0400     0.3367     0.0077
   99    1.960   1633.95     0.3162     0.0087     0.0311     0.0196     0.3283     2.6692    31.3600     0.2969     0.0308
  100    1.980   1634.90     0.3149     0.0099     0.0347     0.0198     0.3288     3.2522    31.6800     0.2972     0.0455
  101    2.000   1635.85     0.3422     0.0096     0.0419     0.0200     0.3592     2.8908    32.0000     0.3272     0.0628
  102    2.020   1636.80     0.3328     0.0088     0.0326     0.0202     0.3482     2.5818    32.3200     0.3158     0.0517
  103    2.040   1637.74     0.3048     0.0073     0.0323     0.0204     0.3175     2.3350    32.6400     0.2849     0.0350
  104    2.060   1638.70     0.2739     0.0051     0.0325     0.0206     0.2875     1.7954    32.9600     0.2546     0.0464
  105    2.080   1639.65     0.2232     0.0051     0.0403     0.0208     0.2389     2.1591    33.2800     0.2056     0.0808
  106    2.100   1640.59     0.1971     0.0062     0.0523     0.0210     0.2179     3.0161    33.6000     0.1843     0.1542
  107    2.120   1641.59     0.3350     0.0063     0.0638     0.0212     0.3607     2.6266    33.9200     0.3268     0.1229
  108    2.140   1642.54     0.9441     0.0051     0.0312     0.0214     0.9706     0.8361    34.2400     0.9364     0.0462
  109    2.160   1643.51     1.7472     0.0044    -0.0154     0.0216     1.7437     0.2986    34.5600     1.7091    -0.0173
  110    2.180   1644.48     2.3683     0.0041    -0.0288     0.0218     2.3577     0.1888    34.8800     2.3228    -0.0202
  111    2.200   1645.39     2.5300     0.0046    -0.0311     0.0220     2.5169     0.1823    35.2000     2.4817    -0.0214
  112    2.220   1646.35     2.4600     0.0042    -0.0287     0.0222     2.4474     0.1677    35.5200     2.4118    -0.0216
  113    2.240   1647.31     2.2573     0.0035    -0.0174     0.0224     2.2480     0.1516    35.8400     2.2122    -0.0201
  114    2.260   1648.26     2.0527     0.0031    -0.0046     0.0226     2.0487     0.1483    36.1600     2.0125    -0.0159
  115    2.280   1649.22     1.8812     0.0028     0.0042     0.0228     1.8816     0.1425    36.4800     1.8451    -0.0119
  116    2.300   1650.20     1.7400     0.0026     0.0134     0.0230     1.7444     0.1485    36.8000     1.7076    -0.0073
  117    2.320   1651.15     1.6393     0.0031     0.0199     0.0232     1.6468     0.1828    37.1200     1.6097    -0.0033
  118    2.340   1652.08     1.5669     0.0029     0.0272     0.0234     1.5770     0.1822    37.4400     1.5395     0.0004
  119    2.360   1653.05     1.5618     0.0032     0.0369     0.0236     1.5759     0.2078    37.7600     1.5382     0.0065
  120    2.380   1654.01     1.6544     0.0038     0.0448     0.0238     1.6723     0.2342    38.0800     1.6343     0.0115
  121    2.400   1654.96     1.8111     0.0044     0.0504     0.0240     1.8315     0.2552    38.4000     1.7931     0.0136
  122    2.420   1655.91     2.1418     0.0050     0.0519     0.0242     2.1639     0.2500    38.7200     2.1252     0.0135
  123    2.440   1656.90     2.6043     0.0058     0.0364     0.0244     2.6219     0.2391    39.0400     2.5829     0.0069
  124    2.460   1657.87     2.9602     0.0062     0.0265     0.0246     2.9724     0.2160    39.3600     2.9330     0.0015
  125    2.480   1658.82     3.0788     0.0079     0.0226     0.0248     3.0890     0.2578    39.6800     3.0493    -0.0002
  126    2.500   1659.77     3.0492     0.0102     0.0179     0.0250     3.0573     0.3308    40.0000     3.0173    -0.0019
  127    2.520   1660.72     2.8796     0.0125     0.0207     0.0252     2.8878     0.4429    40.3200     2.8475    -0.0019
  128    2.540   1661.67     2.6138     0.0152     0.0258     0.0254     2.6238     0.6298    40.6400     2.5832    -0.0006
  129    2.560   1662.63     2.2816     0.0180     0.0326     0.0256     2.2944     0.8166    40.9600     2.2534     0.0022
  130    2.580   1663.58     1.9867     0.0199     0.0396     0.0258     2.0022     0.9948    41.2800     1.9609     0.0057
  131    2.600   1664.57     1.7653     0.0185     0.0476     0.0260     1.7842     1.0407    41.6000     1.7426     0.0110
  132    2.620   1665.52     1.6576     0.0152     0.0537     0.0262     1.6800     0.9018    41.9200     1.6381     0.0166
  133    2.640   1681.80     1.9069     0.0117     0.0502     0.0264     1.9285     0.7084    42.2400     1.8863     0.0142
  134    2.660   1699.73     2.1921     0.0115     0.0468     0.0266     2.2123     0.6963    42.5600     2.1697     0.0107
  135    2.680   1717.63     2.4781     0.0134     0.0434     0.0268     2.4968     0.6726    42.8800     2.4540     0.0072
  136    2.700   1718.61     3.0685     0.0156     0.0158     0.0270     3.0807     0.5376    43.2000     3.0375     0.0007
  137    2.720   1719.55     3.6267     0.0189     0.0021     0.0272     3.6287     0.5430    43.5200     3.5852    -0.0063
  138    2.740   1720.55     4.0152     0.0227     0.0083     0.0274     4.0174     0.5828    43.8400     3.9735    -0.0056
  139    2.760   1721.54     4.3459     0.0268     0.0152     0.0276     4.3515     0.6303    44.1600     4.3074    -0.0033
  140    2.780   1722.49     4.7900     0.0302     0.0214     0.0278     4.7978     0.6465    44.4800     4.7533    -0.0019
  141    2.800   1723.44     5.0484     0.0310     0.0249     0.0280     5.0585     0.6195    44.8000     5.0137    -0.0008
  142    2.820   1724.41     5.0530     0.0331     0.0274     0.0282     5.0643     0.6510    45.1200     5.0192    -0.0002
  143    2.840   1725.37     4.8828     0.0322     0.0286     0.0284     4.8946     0.6506    45.4400     4.8492    -0.0001
  144    2.860   1726.37     4.6447     0.0303     0.0313     0.0286     4.6575     0.6417    45.7600     4.6118     0.0004
  145    2.880   1727.32     4.4985     0.0282     0.0316     0.0288     4.5117     0.6207    46.0800     4.4656     0.0006
  146    2.900   1728.27     4.4121     0.0266     0.0360     0.0290     4.4265     0.6019    46.4000     4.3801     0.0012
  147    2.920   1729.26     4.5131     0.0261     0.0313     0.0292     4.5266     0.5834    46.7200     4.4799     0.0007
  148    2.940   1730.21     4.5742     0.0250     0.0150     0.0294     4.5827     0.5467    47.0400     4.5357    -0.0020
  149    2.960   1731.15     4.4872     0.0245     0.0108     0.0296     4.4923     0.5406    47.3600     4.4449    -0.0040
  150    2.980   1732.10     4.3702     0.0242     0.0200     0.0298     4.3781     0.5432    47.6800     4.3305    -0.0025
  151    3.000   1733.06     4.2765     0.0250     0.0269     0.0300     4.2865     0.5823    48.0000     4.2385    -0.0014
  152    3.020   1734.04     4.2600     0.0263     0.0293     0.0302     4.2727     0.6158    48.3200     4.2244     0.0000
  153    3.040   1734.99     4.1903     0.0261     0.0302     0.0304     4.2025     0.6179    48.6400     4.1538    -0.0004
  154    3.060   1735.94     4.0899     0.0268     0.0333     0.0306     4.1036     0.6498    48.9600     4.0546     0.0005
  155    3.080   1736.89     3.9501     0.0272     0.0341     0.0308     3.9642     0.6767    49.2800     3.9150     0.0008
  156    3.100   1737.83     3.8030     0.0269     0.0342     0.0310     3.8172     0.6962    49.6000     3.7676     0.0008
  157    3.120   1738.78     3.7122     0.0265     0.0375     0.0312     3.7273     0.7059    49.9200     3.6774     0.0013
  158    3.140   1739.73     3.6225     0.0260     0.0387     0.0314     3.6387     0.7103    50.2400     3.5885     0.0020
  159    3.160   1740.68     3.6382     0.0252     0.0337     0.0316     3.6533     0.6967    50.5600     3.6027     0.0012
  160    3.180   1741.59     3.7014     0.0252     0.0279     0.0318     3.7131     0.6855    50.8800     3.6622    -0.0011
  161    3.200   1742.54     3.6622     0.0244     0.0323     0.0320     3.6752     0.6604    51.2000     3.6240    -0.0003
  162    3.220   1743.49     3.4782     0.0240     0.0347     0.0322     3.4925     0.6706    51.5200     3.4410     0.0005
  163    3.240   1744.40     3.2484     0.0237     0.0340     0.0324     3.2630     0.7070    51.8400     3.2112     0.0008
  164    3.260   1745.35     2.9874     0.0231     0.0330     0.0326     3.0013     0.7465    52.1600     2.9491     0.0001
  165    3.280   1746.31     2.6666     0.0244     0.0369     0.0328     2.6814     0.8747    52.4800     2.6290     0.0010
  166    3.300   1747.25     2.2857     0.0253     0.0382     0.0330     2.3016     1.0415    52.8000     2.2488     0.0022
  167    3.320   1748.22     1.9127     0.0263     0.0415     0.0332     1.9295     1.2768    53.1200     1.8764     0.0037
  168    3.340   1749.14     1.5848     0.0274     0.0467     0.0334     1.6037     1.6119    53.4400     1.5502     0.0074
  169    3.360   1750.09     1.3282     0.0255     0.0547     0.0336     1.3497     1.8018    53.7600     1.2959     0.0136
  170    3.380   1751.05     1.1594     0.0210     0.0627     0.0338     1.1852     1.7322    54.0800     1.1311     0.0244
  171    3.400   1752.00     1.0466     0.0181     0.0634     0.0340     1.0725     1.6774    54.4000     1.0181     0.0271
  172    3.420   1752.95     0.9307     0.0156     0.0717     0.0342     0.9600     1.6179    54.7200     0.9053     0.0392
  173    3.440   1753.94     0.8642     0.0136     0.0728     0.0344     0.8946     1.5567    55.0400     0.8396     0.0454
  174    3.460   1754.90     0.8286     0.0115     0.0780     0.0346     0.8606     1.3606    55.3600     0.8052     0.0514
  175    3.480   1755.83     0.7819     0.0096     0.0878     0.0348     0.8165     1.1961    55.6800     0.7608     0.0626
  176    3.500   1756.78     0.7049     0.0081     0.1006     0.0350     0.7453     1.0920    56.0000     0.6893     0.0891
  177    3.520   1757.74     0.6269     0.0070     0.1095     0.0352     0.6717     1.0683    56.3200     0.6154     0.1163
  178    3.540   1758.69     0.6213     0.0061     0.1157     0.0354     0.6692     0.9853    56.6400     0.6125     0.1284
  179    3.560   1759.64     0.6137     0.0062     0.1234     0.0356     0.6638     0.9969    56.9600     0.6068     0.1379
  180    3.580   1760.60     0.5517     0.0067     0.1351     0.0358     0.6066     1.1586    57.2800     0.5493     0.1726
  181    3.600   1761.55     0.5284     0.0078     0.1456     0.0360     0.5882     1.4703    57.6000     0.5306     0.2006
  182    3.620   1762.54     0.5458     0.0078     0.1492     0.0362     0.6087     1.4656    57.9200     0.5507     0.2059
  183    3.640   1763.46     0.5754     0.0064     0.1439     0.0364     0.6373     1.1224    58.2400     0.5790     0.1917
  184    3.660   1764.40     0.5674     0.0081     0.1383     0.0366     0.6252     1.4062    58.5600     0.5666     0.1779
  185    3.680   1765.37     0.5239     0.0089     0.1424     0.0368     0.5832     1.6488    58.8800     0.5243     0.1990
  186    3.700   1766.34     0.5176     0.0092     0.1510     0.0370     0.5797     1.7772    59.2000     0.5205     0.2126
  187    3.720   1767.28     0.5543     0.0085     0.1421     0.0372     0.6164     1.5827    59.5200     0.5568     0.1990
  188    3.740   1768.25     0.6039     0.0073     0.1319     0.0374     0.6611     1.2301    59.8400     0.6012     0.1642
  189    3.760   1769.20     0.5743     0.0074     0.1361     0.0376     0.6302     1.2498    60.1600     0.5700     0.1673
  190    3.780   1770.20     0.5204     0.0070     0.1385     0.0378     0.5781     1.3180    60.4800     0.5176     0.1924
  191    3.800   1771.15     0.5052     0.0068     0.1463     0.0380     0.5650     1.3472    60.8000     0.5042     0.2071
  192    3.820   1772.10     0.5219     0.0064     0.1493     0.0382     0.5842     1.2366    61.1200     0.5231     0.2103
  193    3.840   1773.05     0.5015     0.0065     0.1553     0.0384     0.5658     1.2692    61.4400     0.5043     0.2274
  194    3.860   1774.01     0.4714     0.0070     0.1626     0.0386     0.5384     1.4478    61.7600     0.4766     0.2536
  195    3.880   1774.98     0.4712     0.0069     0.1714     0.0388     0.5420     1.4758    62.0800     0.4799     0.2704
  196    3.900   1775.93     0.5138     0.0072     0.1725     0.0390     0.5870     1.4819    62.4000     0.5246     0.2581
  197    3.920   1776.89     0.5971     0.0070     0.1586     0.0392     0.6660     1.2452    62.7200     0.6033     0.2076
  198    3.940   1777.84     0.6569     0.0071     0.1428     0.0394     0.7193     1.0991    63.0400     0.6563     0.1664
  199    3.960   1778.79     0.6344     0.0077     0.1397     0.0396     0.6923     1.1830    63.3600     0.6290     0.1564
  200    3.980   1779.75     0.5805     0.0083     0.1437     0.0398     0.6404     1.3818    63.6800     0.5767     0.1783
  201    4.000   1780.74     0.4945     0.0080     0.1608     0.0400     0.5594     1.5286    64.0000     0.4954     0.2313
  202    4.020   1781.70     0.4658     0.0078     0.1732     0.0402     0.5376     1.6599    64.3200     0.4732     0.2759
  203    4.040   1782.65     0.4622     0.0078     0.1759     0.0404     0.5360     1.7010    64.6400     0.4713     0.2869
  204    4.060   1783.61     0.4251     0.0080     0.1839     0.0406     0.5007     1.8270    64.9600     0.4357     0.3197
  205    4.080   1784.56     0.3985     0.0083     0.1970     0.0408     0.4794     2.0204    65.2800     0.4141     0.3667
  206    4.100   1785.51     0.3806     0.0070     0.2100     0.0410     0.4673     1.8210    65.6000     0.4017     0.4115
  207    4.120   1786.46     0.3811     0.0068     0.2139     0.0412     0.4705     1.8199    65.9200     0.4046     0.4243
  208    4.140   1787.42     0.3799     0.0076     0.2180     0.0414     0.4708     1.9827    66.2400     0.4046     0.4327
  209    4.160   1788.37     0.3849     0.0080     0.2214     0.0416     0.4777     2.1056    66.5600     0.4111     0.4365
  210    4.180   1789.31     0.4045     0.0086     0.2178     0.0418     0.4969     2.1737    66.8800     0.4300     0.4142
  211    4.200   1790.28     0.4468     0.0081     0.1940     0.0420     0.5338     1.8738    67.2000     0.4666     0.3543
  212    4.220   1791.23     0.4661     0.0084     0.1902     0.0422     0.5468     1.8110    67.5200     0.4793     0.3129
  213    4.240   1792.19     0.4623     0.0089     0.1910     0.0424     0.5404     1.9269    67.8400     0.4725     0.3034
  214    4.260   1793.17     0.4307     0.0086     0.2020     0.0426     0.5143     1.9462    68.1600     0.4461     0.3507
  215    4.280   1794.09     0.3972     0.0083     0.2192     0.0428     0.4867     2.0350    68.4800     0.4182     0.4073
  216    4.300   1795.11     0.3854     0.0080     0.2284     0.0430     0.4806     2.0796    68.8000     0.4118     0.4458
  217    4.320   1796.03     0.3842     0.0077     0.2374     0.0432     0.4821     1.9680    69.1200     0.4130     0.4598
  218    4.340   1796.98     0.3844     0.0084     0.2447     0.0434     0.4865     2.1880    69.4400     0.4171     0.4790
  219    4.360   1797.97     0.3981     0.0087     0.2493     0.0436     0.5022     2.2325    69.7600     0.4324     0.4723
  220    4.380   1798.92     0.4288     0.0089     0.2440     0.0438     0.5332     2.1518    70.0800     0.4632     0.4426
  221    4.400   1799.88     0.4553     0.0091     0.2224     0.0440     0.5511     2.0712    70.4000     0.4807     0.3832
  222    4.420   1800.84     0.4614     0.0093     0.2232     0.0442     0.5528     2.0081    70.7200     0.4821     0.3597
  223    4.440   1801.77     0.4428     0.0092     0.2265     0.0444     0.5367     2.0517    71.0400     0.4656     0.3845
  224    4.460   1802.72     0.4190     0.0085     0.2282     0.0446     0.5176     2.0341    71.3600     0.4463     0.4261
  225    4.480   1804.51     0.4170     0.0087     0.2309     0.0448     0.5136     2.0853    71.6800     0.4419     0.4187
  226    4.500   1806.72     0.4186     0.0091     0.2341     0.0450     0.5165     2.1618    72.0000     0.4445     0.4229
  227    4.520   1808.94     0.4202     0.0095     0.2370     0.0452     0.5194     2.2213    72.3200     0.4471     0.4270
  228    4.540   1810.28     0.4338     0.0100     0.2377     0.0454     0.5328     2.2807    72.6400     0.4602     0.4138
  229    4.560   1811.23     0.4593     0.0101     0.2332     0.0456     0.5588     2.2313    72.9600     0.4859     0.3941
  230    4.580   1812.20     0.4784     0.0101     0.2293     0.0458     0.5753     2.0979    73.2800     0.5020     0.3684
  231    4.600   1819.00     0.4618     0.0106     0.2322     0.0460     0.5587     2.2699    73.6000     0.4851     0.3812
  232    4.620   1831.93     0.4522     0.0103     0.2365     0.0462     0.5509     2.2063    73.9200     0.4770     0.3966
  233    4.640   1844.87     0.4426     0.0104     0.2407     0.0464     0.5431     2.2342    74.2400     0.4688     0.4120
  234    4.660   1856.71     0.4328     0.0099     0.2456     0.0466     0.5351     2.1746    74.5600     0.4606     0.4279
  235    4.680   1857.66     0.4278     0.0097     0.2508     0.0468     0.5318     2.2577    74.8800     0.4569     0.4394
  236    4.700   1858.57     0.4184     0.0090     0.2633     0.0470     0.5273     2.1359    75.2000     0.4521     0.4696
  237    4.720   1859.56     0.4333     0.0089     0.2763     0.0472     0.5483     2.0893    75.5200     0.4728     0.4792
  238    4.740   1860.52     0.4486     0.0093     0.2750     0.0474     0.5652     2.0958    75.8400     0.4894     0.4703
  239    4.760   1861.45     0.4533     0.0093     0.2703     0.0476     0.5668     2.0475    76.1600     0.4907     0.4540
  240    4.780   1862.33     0.4454     0.0093     0.2607     0.0478     0.5570     2.0682    76.4800     0.4805     0.4535
  241    4.800   1863.26     0.4305     0.0091     0.2647     0.0480     0.5408     2.1049    76.8000     0.4640     0.4625
  242    4.820   1864.22     0.4212     0.0091     0.2748     0.0482     0.5354     2.1357    77.1200     0.4583     0.4880
  243    4.840   1865.20     0.4059     0.0095     0.2765     0.0484     0.5206     2.3216    77.4400     0.4432     0.5072
  244    4.860   1866.17     0.4175     0.0087     0.2798     0.0486     0.5345     2.1192    77.7600     0.4568     0.5036
  245    4.880   1867.17     0.4109     0.0088     0.2907     0.0488     0.5319     2.0960    78.0800     0.4538     0.5274
  246    4.900   1868.12     0.4086     0.0087     0.2833     0.0490     0.5291     2.1376    78.4000     0.4507     0.5281
  247    4.920   1869.08     0.4290     0.0095     0.2749     0.0492     0.5458     2.2476    78.7200     0.4671     0.4903
  248    4.940   1870.07     0.4519     0.0100     0.2691     0.0494     0.5652     2.2487    79.0400     0.4862     0.4532
  249    4.960   1871.03     0.4777     0.0098     0.2613     0.0496     0.5889     2.1023    79.3600     0.5096     0.4223
  250    4.980   1871.97     0.4887     0.0098     0.2574     0.0498     0.5977     2.0021    79.6800     0.5180     0.4050
  251    5.000   1872.94     0.4835     0.0096     0.2456     0.0500     0.5869     1.9712    80.0000     0.5069     0.3873
  252    5.020   1873.88     0.4647     0.0099     0.2626     0.0502     0.5731     2.1084    80.3200     0.4927     0.4218
  253    5.040   1874.70     0.4487     0.0096     0.2742     0.0504     0.5621     2.1290    80.6400     0.4814     0.4560
  254    5.060   1875.51     0.4600     0.0100     0.2795     0.0506     0.5764     2.1815    80.9600     0.4955     0.4576
  255    5.080   1876.31     0.4748     0.0101     0.2830     0.0508     0.5939     2.1712    81.2800     0.5127     0.4544
  256    5.100   1877.19     0.4996     0.0100     0.2858     0.0510     0.6179     2.0410    81.6000     0.5363     0.4299
  257    5.120   1878.16     0.5149     0.0109     0.2838     0.0512     0.6355     2.1395    81.9200     0.5536     0.4264
  258    5.140   1879.13     0.5148     0.0104     0.2813     0.0514     0.6335     2.0279    82.2400     0.5513     0.4196
  259    5.160   1880.13     0.5081     0.0102     0.2855     0.0516     0.6274     1.9792    82.5600     0.5449     0.4269
  260    5.180   1881.03     0.4931     0.0097     0.2911     0.0518     0.6139     1.9355    82.8800     0.5310     0.4442
  261    5.200   1882.01     0.4875     0.0105     0.2967     0.0520     0.6123     2.1612    83.2000     0.5291     0.4630
  262    5.220   1882.97     0.4827     0.0105     0.2939     0.0522     0.6062     2.1413    83.5200     0.5227     0.4628
  263    5.240   1883.91     0.4755     0.0110     0.3006     0.0524     0.6005     2.2982    83.8400     0.5166     0.4744
  264    5.260   1884.87     0.4721     0.0107     0.3071     0.0526     0.6006     2.2570    84.1600     0.5164     0.4904
  265    5.280   1885.85     0.4666     0.0106     0.3010     0.0528     0.5943     2.2783    84.4800     0.5098     0.4927
  266    5.300   1886.78     0.4619     0.0105     0.2997     0.0530     0.5877     2.2556    84.8000     0.5029     0.4900
  267    5.320   1887.74     0.4505     0.0104     0.3104     0.0532     0.5794     2.2843    85.1200     0.4943     0.5132
  268    5.340   1888.70     0.4437     0.0102     0.3107     0.0534     0.5723     2.2958    85.4400     0.4869     0.5193
  269    5.360   1889.64     0.4486     0.0105     0.3067     0.0536     0.5789     2.3569    85.7600     0.4932     0.5206
  270    5.380   1890.57     0.4489     0.0101     0.2967     0.0538     0.5730     2.2604    86.0800     0.4869     0.4964
  271    5.400   1891.51     0.4476     0.0100     0.3093     0.0540     0.5764     2.2406    86.4000     0.4900     0.5152
  272    5.420   1892.52     0.4547     0.0101     0.3035     0.0542     0.5842     2.2173    86.7200     0.4974     0.5109
  273    5.440   1893.51     0.4512     0.0105     0.2881     0.0544     0.5732     2.2924    87.0400     0.4861     0.4854
  274    5.460   1894.47     0.4279     0.0106     0.2971     0.0546     0.5507     2.4086    87.3600     0.4634     0.5137
  275    5.480   1895.41     0.4202     0.0106     0.3039     0.0548     0.5474     2.5226    87.6800     0.4597     0.5395
  276    5.500   1896.35     0.4323     0.0106     0.3012     0.0550     0.5596     2.4910    88.0000     0.4716     0.5263
  277    5.520   1897.31     0.4428     0.0101     0.3012     0.0552     0.5692     2.2824    88.3200     0.4809     0.5112
  278    5.540   1898.27     0.4537     0.0098     0.2970     0.0554     0.5790     2.1922    88.6400     0.4904     0.4955
  279    5.560   1899.25     0.4724     0.0094     0.2864     0.0556     0.5931     2.0117    88.9600     0.5042     0.4597
  280    5.580   1900.15     0.4584     0.0099     0.2853     0.0558     0.5773     2.1008    89.2800     0.4881     0.4661
  281    5.600   1901.07     0.4455     0.0104     0.2925     0.0560     0.5680     2.3117    89.6000     0.4784     0.4925
  282    5.620   1902.04     0.4483     0.0103     0.2886     0.0562     0.5703     2.2942    89.9200     0.4804     0.4879
  283    5.640   1903.03     0.4522     0.0101     0.2906     0.0564     0.5740     2.2480    90.2400     0.4838     0.4831
  284    5.660   1904.00     0.4446     0.0097     0.2889     0.0566     0.5660     2.1731    90.5600     0.4754     0.4888
  285    5.680   1904.92     0.4467     0.0099     0.2925     0.0568     0.5693     2.2144    90.8800     0.4784     0.4913
  286    5.700   1905.86     0.4416     0.0107     0.3084     0.0570     0.5663     2.4130    91.2000     0.4751     0.5046
  287    5.720   1906.81     0.4561     0.0105     0.3198     0.0572     0.5889     2.3304    91.5200     0.4973     0.5208
  288    5.740   1907.75     0.4729     0.0099     0.3056     0.0574     0.6034     2.1312    91.8400     0.5115     0.4955
  289    5.760   1908.73     0.4949     0.0099     0.3044     0.0576     0.6228     2.0251    92.1600     0.5306     0.4653
  290    5.780   1909.69     0.4973     0.0108     0.3092     0.0578     0.6255     2.1689    92.4800     0.5331     0.4643
  291    5.800   1910.64     0.4820     0.0118     0.3194     0.0580     0.6160     2.4141    92.8000     0.5232     0.4990
  292    5.820   1911.59     0.4914     0.0117     0.3262     0.0582     0.6274     2.3891    93.1200     0.5342     0.4972
  293    5.840   1912.55     0.4943     0.0122     0.3162     0.0584     0.6265     2.4696    93.4400     0.5330     0.4808
  294    5.860   1913.48     0.5039     0.0131     0.3265     0.0586     0.6401     2.6111    93.7600     0.5464     0.4864
  295    5.880   1914.42     0.5119     0.0140     0.3325     0.0588     0.6497     2.7525    94.0800     0.5556     0.4850
  296    5.900   1915.38     0.5078     0.0142     0.3488     0.0590     0.6523     2.7922    94.4000     0.5579     0.5112
  297    5.920   1916.38     0.5188     0.0142     0.3541     0.0592     0.6681     2.7727    94.7200     0.5734     0.5169
  298    5.940   1920.74     0.5403     0.0144     0.3523     0.0594     0.6896     2.7425    95.0400     0.5946     0.4990
  299    5.960   1942.39     0.5709     0.0148     0.3427     0.0596     0.7162     2.7740    95.3600     0.6209     0.4646
  300    5.980   1964.04     0.6015     0.0148     0.3332     0.0598     0.7428     2.7696    95.6800     0.6471     0.4302
  301    6.000   1983.20     0.6258     0.0154     0.3291     0.0600     0.7637     2.7610    96.0000     0.6677     0.4019
  302    6.020   1983.86     0.6076     0.0154     0.3236     0.0602     0.7449     2.4942    96.3200     0.6485     0.4112
  303    6.040   1984.48     0.5956     0.0151     0.3360     0.0604     0.7346     2.4983    96.6400     0.6379     0.4239
  304    6.060   1985.14     0.5729     0.0153     0.3477     0.0606     0.7183     2.5907    96.9600     0.6214     0.4598
  305    6.080   1985.80     0.5735     0.0151     0.3498     0.0608     0.7203     2.6248    97.2800     0.6230     0.4634
  306    6.100   1986.50     0.5748     0.0147     0.3548     0.0610     0.7232     2.5639    97.6000     0.6256     0.4673
  307    6.120   1987.17     0.5777     0.0142     0.3600     0.0612     0.7271     2.4680    97.9200     0.6292     0.4681
  308    6.140   1987.77     0.5735     0.0139     0.3650     0.0614     0.7269     2.4126    98.2400     0.6287     0.4833
  309    6.160   1988.44     0.5599     0.0141     0.3777     0.0616     0.7163     2.4803    98.5600     0.6178     0.5032
  310    6.180   1989.05     0.5565     0.0143     0.3813     0.0618     0.7159     2.5481    98.8800     0.6170     0.5151
  311    6.200   1989.67     0.5550     0.0145     0.3833     0.0620     0.7167     2.6063    99.2000     0.6175     0.5230
  312    6.220   1990.30     0.5528     0.0145     0.3846     0.0622     0.7136     2.6308    99.5200     0.6141     0.5222
  313    6.240   1990.92     0.5610     0.0148     0.3789     0.0624     0.7214     2.6580    99.8400     0.6216     0.5142
  314    6.260   2000.63     0.5707     0.0148     0.3731     0.0626     0.7282     2.6231   100.1600     0.6281     0.4977
  315    6.280   2014.74     0.5781     0.0150     0.3674     0.0628     0.7332     2.6459   100.4800     0.6327     0.4847
  316    6.300   2028.86     0.5855     0.0144     0.3668     0.0630     0.7382     2.5508   100.8000     0.6374     0.4717
  317    6.320   2031.46     0.5796     0.0142     0.3799     0.0632     0.7378     2.4348   101.1200     0.6367     0.4924
  318    6.340   2032.38     0.5828     0.0146     0.3828     0.0634     0.7437     2.5144   101.4400     0.6423     0.4977
  319    6.360   2033.34     0.5858     0.0147     0.3714     0.0636     0.7427     2.4945   101.7600     0.6410     0.4837
  320    6.380   2034.32     0.5744     0.0147     0.3792     0.0638     0.7325     2.5502   102.0800     0.6304     0.4958
  321    6.400   2035.28     0.5774     0.0146     0.3738     0.0640     0.7330     2.5375   102.4000     0.6306     0.4861
  322    6.420   2036.25     0.5822     0.0136     0.3578     0.0642     0.7377     2.3473   102.7200     0.6349     0.4819
  323    6.440   2037.20     0.5829     0.0115     0.3543     0.0644     0.7319     1.9689   103.0400     0.6288     0.4617
  324    6.460   2038.15     0.5840     0.0107     0.3731     0.0646     0.7381     1.8241   103.3600     0.6347     0.4762
  325    6.480   2039.11     0.5961     0.0185     0.3859     0.0648     0.7560     3.1088   103.6800     0.6523     0.4845
  326    6.500   2040.09     0.6932     0.0245     0.3856     0.0650     0.8576     3.7828   104.0000     0.7536     0.4337
  327    6.520   2041.06     0.8814     0.0246     0.3312     0.0652     1.0299     2.9583   104.3200     0.9255     0.3119
  328    6.540   2042.05     0.9942     0.0251     0.2622     0.0654     1.1199     2.5846   104.6400     1.0153     0.2305
  329    6.560   2043.00     0.9062     0.0270     0.2043     0.0656     0.9911     2.9531   104.9600     0.8862     0.1540
  330    6.580   2043.97     0.7819     0.0277     0.2212     0.0658     0.8717     3.3819   105.2800     0.7664     0.1930
  331    6.600   2044.93     0.6537     0.0251     0.2848     0.0660     0.7642     3.6426   105.6000     0.6586     0.2999
  332    6.620   2045.90     0.6268     0.0174     0.3159     0.0662     0.7558     2.7627   105.9200     0.6499     0.3707
  333    6.640   2046.90     0.6224     0.0137     0.3318     0.0664     0.7594     2.1893   106.2400     0.6531     0.3978
  334    6.660   2063.48     0.6161     0.0139     0.3550     0.0666     0.7619     2.2351   106.5600     0.6553     0.4278
  335    6.680   2082.73     0.6102     0.0145     0.3818     0.0668     0.7660     2.3541   106.8800     0.6591     0.4614
  336    6.700   2083.69     0.6144     0.0150     0.3913     0.0670     0.7782     2.4402   107.2000     0.6710     0.4813
  337    6.720   2084.66     0.6287     0.0152     0.3827     0.0672     0.7885     2.4183   107.5200     0.6810     0.4599
  338    6.740   2085.61     0.6275     0.0153     0.3770     0.0674     0.7887     2.4435   107.8400     0.6809     0.4648
  339    6.760   2086.56     0.6212     0.0159     0.3812     0.0676     0.7790     2.5257   108.1600     0.6709     0.4594
  340    6.780   2087.56     0.5967     0.0154     0.3967     0.0678     0.7621     2.5268   108.4800     0.6536     0.4986
  341    6.800   2088.52     0.5909     0.0153     0.3993     0.0680     0.7577     2.5632   108.8000     0.6489     0.5073
  342    6.820   2089.48     0.5921     0.0150     0.4036     0.0682     0.7613     2.5315   109.1200     0.6522     0.5133
  343    6.840   2090.45     0.5859     0.0151     0.4056     0.0684     0.7552     2.5500   109.4400     0.6458     0.5184
  344    6.860   2091.40     0.5827     0.0150     0.4112     0.0686     0.7561     2.5643   109.7600     0.6464     0.5326
  345    6.880   2092.36     0.5801     0.0146     0.4058     0.0688     0.7512     2.5120   110.0800     0.6412     0.5282
  346    6.900   2093.33     0.5757     0.0145     0.4037     0.0690     0.7451     2.5166   110.4000     0.6347     0.5270
  347    6.920   2094.30     0.5782     0.0140     0.4057     0.0692     0.7483     2.4298   110.7200     0.6376     0.5267
  348    6.940   2095.25     0.5726     0.0140     0.4050     0.0694     0.7435     2.4434   111.0400     0.6325     0.5337
  349    6.960   2096.20     0.5707     0.0137     0.3971     0.0696     0.7369     2.4019   111.3600     0.6256     0.5216
  350    6.980   2097.19     0.5763     0.0138     0.4080     0.0698     0.7464     2.4060   111.6800     0.6347     0.5282
  351    7.000   2098.16     0.5826     0.0138     0.4129     0.0700     0.7567     2.3651   112.0000     0.6447     0.5346
  352    7.020   2099.12     0.5955     0.0140     0.3987     0.0702     0.7661     2.3667   112.3200     0.6538     0.5141
  353    7.040   2100.07     0.5887     0.0144     0.3978     0.0704     0.7565     2.4267   112.6400     0.6439     0.5112
  354    7.060   2101.02     0.5772     0.0138     0.3950     0.0706     0.7427     2.3713   112.9600     0.6298     0.5138
  355    7.080   2102.01     0.5739     0.0136     0.3998     0.0708     0.7401     2.3603   113.2800     0.6268     0.5185
  356    7.100   2102.98     0.5791     0.0138     0.4046     0.0710     0.7487     2.4034   113.6000     0.6351     0.5239
  357    7.120   2103.91     0.5852     0.0136     0.4073     0.0712     0.7563     2.3348   113.9200     0.6424     0.5233
  358    7.140   2104.90     0.5760     0.0142     0.4082     0.0714     0.7477     2.4541   114.2400     0.6334     0.5326
  359    7.160   2105.86     0.5785     0.0140     0.4030     0.0716     0.7483     2.4352   114.5600     0.6337     0.5250
  360    7.180   2106.81     0.5762     0.0139     0.4021     0.0718     0.7461     2.4170   114.8800     0.6312     0.5270
  361    7.200   2107.81     0.5767     0.0137     0.3968     0.0720     0.7430     2.3755   115.2000     0.6278     0.5163
  362    7.220   2108.81     0.5789     0.0135     0.4041     0.0722     0.7485     2.3441   115.5200     0.6330     0.5241
  363    7.240   2109.77     0.5981     0.0136     0.4066     0.0724     0.7683     2.2868   115.8400     0.6524     0.5099
  364    7.260   2110.72     0.5879     0.0133     0.4076     0.0726     0.7598     2.2479   116.1600     0.6436     0.5232
  365    7.280   2111.67     0.5829     0.0133     0.3971     0.0728     0.7499     2.2841   116.4800     0.6334     0.5125
  366    7.300   2112.64     0.5800     0.0136     0.3855     0.0730     0.7428     2.3423   116.8000     0.6260     0.5024
  367    7.320   2113.57     0.5911     0.0137     0.3931     0.0732     0.7544     2.3307   117.1200     0.6372     0.4951
  368    7.340   2114.57     0.5893     0.0142     0.3901     0.0734     0.7537     2.4190   117.4400     0.6363     0.4999
  369    7.360   2115.53     0.5983     0.0144     0.3989     0.0736     0.7652     2.4179   117.7600     0.6474     0.5000
  370    7.380   2116.52     0.6042     0.0144     0.3977     0.0738     0.7707     2.4063   118.0800     0.6526     0.4945
  371    7.400   2117.46     0.6056     0.0144     0.3898     0.0740     0.7715     2.3700   118.4000     0.6531     0.4915
  372    7.420   2118.41     0.6069     0.0144     0.3802     0.0742     0.7671     2.3667   118.7200     0.6484     0.4738
  373    7.440   2119.39     0.5985     0.0143     0.3964     0.0744     0.7625     2.3633   119.0400     0.6435     0.4912
  374    7.460   2120.34     0.5864     0.0142     0.3962     0.0746     0.7526     2.4176   119.3600     0.6332     0.5070
  375    7.480   2121.30     0.5778     0.0142     0.4006     0.0748     0.7466     2.4499   119.6800     0.6269     0.5219
  376    7.500   2122.26     0.5775     0.0137     0.4160     0.0750     0.7507     2.3791   120.0000     0.6307     0.5350
  377    7.520   2123.25     0.5837     0.0129     0.4110     0.0752     0.7591     2.2138   120.3200     0.6388     0.5360
  378    7.540   2124.21     0.5820     0.0123     0.4225     0.0754     0.7567     2.1206   120.6400     0.6361     0.5355
  379    7.560   2125.15     0.5986     0.0127     0.4306     0.0756     0.7769     2.1279   120.9600     0.6559     0.5318
  380    7.580   2126.11     0.6109     0.0129     0.4338     0.0758     0.7901     2.1370   121.2800     0.6688     0.5245
  381    7.600   2127.10     0.6210     0.0130     0.4354     0.0760     0.8044     2.1079   121.6000     0.6828     0.5281
  382    7.620   2128.07     0.6122     0.0138     0.4181     0.0762     0.7910     2.2518   121.9200     0.6691     0.5223
  383    7.640   2129.04     0.6095     0.0143     0.3944     0.0764     0.7793     2.3450   122.2400     0.6571     0.4992
  384    7.660   2129.99     0.6071     0.0144     0.3860     0.0766     0.7689     2.3673   122.5600     0.6463     0.4776
  385    7.680   2130.94     0.5834     0.0140     0.3947     0.0768     0.7473     2.3856   122.8800     0.6245     0.5023
  386    7.700   2131.88     0.5838     0.0139     0.4027     0.0770     0.7523     2.3748   123.2000     0.6291     0.5153
  387    7.720   2132.90     0.5764     0.0132     0.4185     0.0772     0.7505     2.2583   123.5200     0.6269     0.5380
  388    7.740   2133.85     0.5710     0.0131     0.4240     0.0774     0.7476     2.3016   123.8400     0.6237     0.5501
  389    7.760   2134.82     0.5861     0.0132     0.4313     0.0776     0.7665     2.2801   124.1600     0.6423     0.5480
  390    7.780   2135.81     0.5989     0.0139     0.4335     0.0778     0.7806     2.3256   124.4800     0.6561     0.5408
  391    7.800   2136.77     0.6027     0.0139     0.4217     0.0780     0.7838     2.3138   124.8000     0.6590     0.5359
  392    7.820   2137.78     0.6091     0.0139     0.4122     0.0782     0.7832     2.2862   125.1200     0.6581     0.5112
  393    7.840   2138.73     0.6009     0.0139     0.4037     0.0784     0.7717     2.3024   125.4400     0.6462     0.5081
  394    7.860   2139.69     0.6065     0.0143     0.3921     0.0786     0.7711     2.3665   125.7600     0.6453     0.4856
  395    7.880   2140.69     0.5940     0.0148     0.4006     0.0788     0.7625     2.4756   126.0800     0.6364     0.5063
  396    7.900   2141.67     0.5850     0.0139     0.4112     0.0790     0.7559     2.3653   126.4000     0.6295     0.5208
  397    7.920   2142.63     0.5877     0.0132     0.4150     0.0792     0.7598     2.2465   126.7200     0.6330     0.5221
  398    7.940   2143.58     0.5877     0.0130     0.4155     0.0794     0.7642     2.2074   127.0400     0.6371     0.5347
  399    7.960   2144.52     0.6024     0.0129     0.4124     0.0796     0.7741     2.1601   127.3600     0.6468     0.5092
  400    7.980   2145.48     0.5880     0.0130     0.4233     0.0798     0.7643     2.1840   127.6800     0.6366     0.5341
  401    8.000   2146.47     0.5836     0.0136     0.4169     0.0800     0.7600     2.3339   128.0000     0.6320     0.5380
  402    8.020   2147.43     0.5941     0.0136     0.4056     0.0802     0.7663     2.3038   128.3200     0.6380     0.5169
  403    8.040   2148.41     0.5925     0.0141     0.4072     0.0804     0.7632     2.3799   128.6400     0.6346     0.5137
  404    8.060   2149.37     0.5888     0.0138     0.4053     0.0806     0.7594     2.3307   128.9600     0.6304     0.5165
  405    8.080   2150.34     0.5854     0.0143     0.4062     0.0808     0.7562     2.4499   129.2800     0.6269     0.5197
  406    8.100   2151.34     0.5811     0.0143     0.4090     0.0810     0.7529     2.4487   129.6000     0.6233     0.5264
  407    8.120   2152.29     0.5803     0.0136     0.4150     0.0812     0.7532     2.3366   129.9200     0.6232     0.5301
  408    8.140   2153.25     0.5712     0.0135     0.4136     0.0814     0.7456     2.3519   130.2400     0.6154     0.5427
  409    8.160   2154.20     0.5780     0.0141     0.4185     0.0816     0.7523     2.4548   130.5600     0.6218     0.5363
  410    8.180   2155.15     0.5764     0.0137     0.4207     0.0818     0.7523     2.3776   130.8800     0.6214     0.5421
  411    8.200   2156.13     0.5710     0.0133     0.4210     0.0820     0.7475     2.3120   131.2000     0.6163     0.5487
  412    8.220   2157.13     0.5796     0.0126     0.4223     0.0822     0.7581     2.1755   131.5200     0.6266     0.5472
  413    8.240   2158.08     0.5814     0.0124     0.4216     0.0824     0.7591     2.1227   131.8400     0.6272     0.5432
  414    8.260   2159.13     0.5798     0.0128     0.4351     0.0826     0.7594     2.2027   132.1600     0.6272     0.5499
  415    8.280   2160.08     0.6038     0.0139     0.4433     0.0828     0.7896     2.3359   132.4800     0.6571     0.5471
  416    8.300   2161.02     0.6112     0.0139     0.4302     0.0830     0.7959     2.2623   132.8000     0.6631     0.5379
  417    8.320   2161.99     0.6064     0.0142     0.4013     0.0832     0.7787     2.3227   133.1200     0.6456     0.5067
  418    8.340   2162.94     0.5925     0.0139     0.3888     0.0834     0.7569     2.3223   133.4400     0.6234     0.4940
  419    8.360   2163.89     0.5851     0.0137     0.3885     0.0836     0.7475     2.3312   133.7600     0.6137     0.4937
  420    8.380   2164.89     0.5680     0.0140     0.3955     0.0838     0.7334     2.4677   134.0800     0.5994     0.5175
  421    8.400   2165.88     0.5519     0.0143     0.3974     0.0840     0.7187     2.5694   134.4000     0.5843     0.5361
  422    8.420   2166.83     0.5452     0.0128     0.3970     0.0842     0.7126     2.3485   134.7200     0.5779     0.5439
  423    8.440   2167.79     0.5471     0.0120     0.3995     0.0844     0.7129     2.1937   135.0400     0.5779     0.5374
  424    8.460   2168.79     0.5404     0.0125     0.4006     0.0846     0.7088     2.3081   135.3600     0.5735     0.5517
  425    8.480   2169.79     0.5331     0.0119     0.4021     0.0848     0.7020     2.2312   135.6800     0.5663     0.5603
  426    8.500   2170.72     0.5318     0.0115     0.4113     0.0850     0.7022     2.1494   136.0000     0.5662     0.5667
  427    8.520   2171.73     0.5267     0.0117     0.4048     0.0852     0.6984     2.2167   136.3200     0.5621     0.5759
  428    8.540   2172.69     0.5377     0.0116     0.4020     0.0854     0.7056     2.1629   136.6400     0.5689     0.5525
  429    8.560   2173.69     0.5328     0.0118     0.4024     0.0856     0.7035     2.1881   136.9600     0.5665     0.5660
  430    8.580   2174.64     0.5282     0.0118     0.3970     0.0858     0.6966     2.2189   137.2800     0.5593     0.5634
  431    8.600   2175.57     0.5299     0.0121     0.3926     0.0860     0.6942     2.2802   137.6000     0.5566     0.5482
  432    8.620   2176.55     0.5281     0.0128     0.3963     0.0862     0.6946     2.4225   137.9200     0.5567     0.5574
  433    8.640   2177.50     0.5267     0.0136     0.4016     0.0864     0.6945     2.5733   138.2400     0.5563     0.5631
  434    8.660   2178.48     0.5237     0.0136     0.3996     0.0866     0.6920     2.5818   138.5600     0.5534     0.5675
  435    8.680   2179.45     0.5246     0.0133     0.4022     0.0868     0.6930     2.5501   138.8800     0.5541     0.5669
  436    8.700   2180.40     0.5189     0.0131     0.4044     0.0870     0.6888     2.5004   139.2000     0.5496     0.5780
  437    8.720   2192.36     0.5199     0.0127     0.3958     0.0872     0.6872     2.4584   139.5200     0.5477     0.5682
  438    8.740   2213.23     0.5235     0.0126     0.3908     0.0874     0.6877     2.4385   139.8400     0.5478     0.5539
  439    8.760   2219.38     0.5200     0.0125     0.4065     0.0876     0.6890     2.3901   140.1600     0.5489     0.5735
  440    8.780   2220.36     0.5142     0.0124     0.4083     0.0878     0.6862     2.4028   140.4800     0.5458     0.5896
  441    8.800   2221.32     0.5170     0.0125     0.4023     0.0880     0.6872     2.4203   140.8000     0.5464     0.5804
  442    8.820   2222.28     0.5138     0.0121     0.3979     0.0882     0.6814     2.3373   141.1200     0.5402     0.5751
  443    8.840   2223.25     0.5043     0.0122     0.3994     0.0884     0.6723     2.4010   141.4400     0.5308     0.5868
  444    8.860   2224.24     0.5047     0.0120     0.3920     0.0886     0.6709     2.3896   141.7600     0.5292     0.5804
  445    8.880   2225.21     0.5075     0.0117     0.3994     0.0888     0.6730     2.3105   142.0800     0.5309     0.5749
  446    8.900   2226.12     0.4933     0.0110     0.4055     0.0890     0.6635     2.2109   142.4000     0.5211     0.6071
  447    8.920   2227.07     0.4762     0.0104     0.4133     0.0892     0.6486     2.1716   142.7200     0.5059     0.6354
  448    8.940   2228.07     0.4768     0.0101     0.4159     0.0894     0.6513     2.1204   143.0400     0.5082     0.6416
  449    8.960   2229.03     0.4757     0.0109     0.4218     0.0896     0.6520     2.2832   143.3600     0.5087     0.6493
  450    8.980   2229.98     0.4755     0.0099     0.4222     0.0898     0.6528     2.0895   143.6800     0.5091     0.6526
  451    9.000   2230.94     0.4881     0.0100     0.4119     0.0900     0.6628     2.0863   144.0000     0.5188     0.6284
  452    9.020   2231.92     0.4864     0.0100     0.3980     0.0902     0.6581     2.0737   144.3200     0.5138     0.6200
  453    9.040   2232.89     0.4937     0.0097     0.3955     0.0904     0.6558     1.9543   144.6400     0.5111     0.5781
  454    9.060   2233.91     0.4813     0.0099     0.4139     0.0906     0.6546     2.0779   144.9600     0.5096     0.6319
  455    9.080   2234.87     0.4899     0.0093     0.4129     0.0908     0.6650     1.9192   145.2800     0.5197     0.6275
  456    9.100   2235.82     0.4928     0.0093     0.3998     0.0910     0.6598     1.8657   145.6000     0.5142     0.5964
  457    9.120   2236.77     0.4654     0.0092     0.3910     0.0912     0.6312     1.9556   145.9200     0.4853     0.6257
  458    9.140   2237.73     0.4544     0.0092     0.3967     0.0914     0.6209     1.9936   146.2400     0.4746     0.6427
  459    9.160   2238.71     0.4471     0.0095     0.3928     0.0916     0.6132     2.1161   146.5600     0.4666     0.6510
  460    9.180   2239.66     0.4501     0.0089     0.3809     0.0918     0.6138     1.9743   146.8800     0.4669     0.6380
  461    9.200   2240.61     0.4567     0.0084     0.3644     0.0920     0.6123     1.8434   147.2000     0.4651     0.5986
  462    9.220   2241.57     0.4443     0.0088     0.3620     0.0922     0.5949     1.9757   147.5200     0.4473     0.5951
  463    9.240   2242.52     0.4235     0.0083     0.3699     0.0924     0.5780     1.9490   147.8400     0.4301     0.6402
  464    9.260   2243.58     0.4395     0.0082     0.3763     0.0926     0.5976     1.8912   148.1600     0.4495     0.6315
  465    9.280   2244.54     0.4886     0.0086     0.3688     0.0928     0.6454     1.8003   148.4800     0.4969     0.5647
  466    9.300   2245.53     0.5011     0.0081     0.3471     0.0930     0.6503     1.6292   148.8000     0.5015     0.5232
  467    9.320   2246.48     0.4871     0.0086     0.3384     0.0932     0.6285     1.6968   149.1200     0.4794     0.5082
  468    9.340   2247.45     0.4374     0.0085     0.3474     0.0934     0.5822     1.9301   149.4400     0.4328     0.5807
  469    9.360   2248.42     0.4251     0.0079     0.3435     0.0936     0.5707     1.8538   149.7600     0.4210     0.6012
  470    9.380   2249.34     0.4046     0.0082     0.3509     0.0938     0.5503     1.9806   150.0800     0.4003     0.6326
  471    9.400   2250.28     0.3956     0.0080     0.3493     0.0940     0.5423     2.0248   150.4000     0.3919     0.6509
  472    9.420   2251.27     0.3856     0.0083     0.3491     0.0942     0.5322     2.1177   150.7200     0.3815     0.6679
  473    9.440   2252.24     0.3782     0.0080     0.3481     0.0944     0.5252     2.1051   151.0400     0.3742     0.6835
  474    9.460   2253.22     0.3718     0.0081     0.3467     0.0946     0.5179     2.1714   151.3600     0.3666     0.6910
  475    9.480   2254.17     0.3738     0.0076     0.3454     0.0948     0.5193     2.0134   151.6800     0.3676     0.6842
  476    9.500   2255.08     0.3632     0.0078     0.3461     0.0950     0.5079     2.1239   152.0000     0.3559     0.7012
  477    9.520   2256.07     0.3599     0.0078     0.3524     0.0952     0.5066     2.1527   152.3200     0.3543     0.7175
  478    9.540   2257.03     0.3548     0.0074     0.3585     0.0954     0.5051     2.0872   152.6400     0.3525     0.7449
  479    9.560   2257.98     0.3545     0.0073     0.3578     0.0956     0.5053     2.0617   152.9600     0.3523     0.7475
  480    9.580   2258.95     0.3606     0.0074     0.3565     0.0958     0.5102     2.0671   153.2800     0.3569     0.7295
  481    9.600   2259.93     0.3670     0.0081     0.3566     0.0960     0.5166     2.2111   153.6000     0.3630     0.7172
  482    9.620   2260.92     0.3727     0.0079     0.3463     0.0962     0.5199     2.1439   153.9200     0.3660     0.6948
  483    9.640   2261.91     0.3709     0.0069     0.3392     0.0964     0.5139     1.8627   154.2400     0.3597     0.6785
  484    9.660   2262.89     0.3584     0.0063     0.3527     0.0966     0.5047     1.7563   154.5600     0.3501     0.7189
  485    9.680   2263.86     0.3634     0.0064     0.3600     0.0968     0.5136     1.7825   154.8800     0.3588     0.7276
  486    9.700   2264.86     0.3734     0.0063     0.3620     0.0970     0.5255     1.6878   155.2000     0.3703     0.7163
  487    9.720   2265.82     0.4055     0.0059     0.3639     0.0972     0.5581     1.4932   155.5200     0.4026     0.6619
  488    9.740   2266.77     0.4997     0.0064     0.3441     0.0974     0.6489     1.3501   155.8400     0.4931     0.5250
  489    9.760   2267.73     0.6053     0.0092     0.3288     0.0976     0.7456     1.5621   156.1600     0.5895     0.4019
  490    9.780   2268.73     0.7478     0.0189     0.3165     0.0978     0.8841     2.6281   156.4800     0.7277     0.3121
  491    9.800   2269.73     0.9752     0.0223     0.3032     0.0980     1.1052     2.4776   156.8000     0.9484     0.2245
  492    9.820   2270.73     1.5465     0.0254     0.2548     0.0982     1.6620     1.8901   157.1200     1.5048     0.1192
  493    9.840   2271.66     2.4553     0.0274     0.1594     0.0984     2.5398     1.2434   157.4400     2.3824     0.0435
  494    9.860   2272.65     3.0197     0.0248     0.0751     0.0986     3.0599     0.8463   157.7600     2.9021    -0.0010
  495    9.880   2273.60     3.2350     0.0243     0.0411     0.0988     3.2557     0.7702   158.0800     3.0976    -0.0160
  496    9.900   2274.59     3.5783     0.0294     0.0371     0.0990     3.5930     0.8410   158.4000     3.4346    -0.0187
  497    9.920   2275.59     3.9158     0.0301     0.0178     0.0992     3.9303     0.7881   158.7200     3.7716    -0.0171
  498    9.940   2276.54     4.1439     0.0297    -0.0008     0.0994     4.1426     0.7238   159.0400     3.9836    -0.0257
  499    9.960   2277.49     4.2488     0.0296     0.0106     0.0996     4.2524     0.6985   159.3600     4.0930    -0.0222
  500    9.980   2278.46     4.1574     0.0299     0.0139     0.0998     4.1626     0.7112   159.6800     4.0029    -0.0218
  501   10.000   2279.45     3.8513     0.0290     0.0190     0.1000     3.8589     0.7344   160.0000     3.6989    -0.0222
  502   10.020   2280.42     3.4436     0.0260     0.0209     0.1002     3.4517     0.7318   160.3200     3.2914    -0.0246
  503   10.040   2281.37     3.0863     0.0224     0.0321     0.1004     3.0978     0.7081   160.6400     2.9371    -0.0249
  504   10.060   2282.37     2.8032     0.0197     0.0463     0.1006     2.8208     0.6809   160.9600     2.6599    -0.0220
  505   10.080   2283.33     2.5390     0.0195     0.0544     0.1008     2.5607     0.7460   161.2800     2.3994    -0.0205
  506   10.100   2284.30     2.2660     0.0185     0.0630     0.1010     2.2912     0.7892   161.6000     2.1296    -0.0193
  507   10.120   2285.28     2.0024     0.0183     0.0704     0.1012     2.0304     0.8815   161.9200     1.8685    -0.0185
  508   10.140   2286.19     1.7951     0.0182     0.0856     0.1014     1.8284     0.9918   162.2400     1.6662    -0.0132
  509   10.160   2287.19     1.6174     0.0186     0.0989     0.1016     1.6572     1.1244   162.5600     1.4947    -0.0045
  510   10.180   2288.19     1.4695     0.0174     0.1136     0.1018     1.5151     1.1589   162.8800     1.3522     0.0050
  511   10.200   2289.14     1.3447     0.0144     0.1271     0.1020     1.3962     1.0501   163.2000     1.2330     0.0167
  512   10.220   2290.10     1.2107     0.0141     0.1398     0.1022     1.2675     1.1395   163.5200     1.1040     0.0299
  513   10.240   2291.10     1.0960     0.0138     0.1521     0.1024     1.1580     1.2241   163.8400     0.9942     0.0455
  514   10.260   2292.05     0.9629     0.0126     0.1640     0.1026     1.0299     1.2615   164.1600     0.8657     0.0660
  515   10.280   2293.05     0.8456     0.0116     0.1834     0.1028     0.9192     1.3325   164.4800     0.7548     0.0965
  516   10.300   2294.05     0.7567     0.0117     0.2002     0.1030     0.8383     1.5103   164.8000     0.6735     0.1355
  517   10.320   2295.00     0.7261     0.0123     0.2219     0.1032     0.8161     1.6789   165.1200     0.6510     0.1707
  518   10.340   2295.95     0.7199     0.0121     0.2408     0.1034     0.8185     1.6717   165.4400     0.6530     0.2011
  519   10.360   2296.91     0.7049     0.0113     0.2565     0.1036     0.8104     1.5821   165.7600     0.6446     0.2290
  520   10.380   2297.91     0.7013     0.0119     0.2719     0.1038     0.8135     1.7212   166.0800     0.6474     0.2521
  521   10.400   2298.91     0.7320     0.0137     0.2848     0.1040     0.8499     1.8983   166.4000     0.6835     0.2585
  522   10.420   2299.88     0.7724     0.0156     0.2963     0.1042     0.8954     2.0782   166.7200     0.7287     0.2593
  523   10.440   2300.86     0.8492     0.0155     0.3059     0.1044     0.9765     1.8915   167.0400     0.8094     0.2455
  524   10.460   2301.81     0.9856     0.0173     0.3005     0.1046     1.1134     1.9084   167.3600     0.9460     0.2117
  525   10.480   2302.77     1.1422     0.0174     0.2682     0.1048     1.2614     1.7442   167.6800     1.0937     0.1637
  526   10.500   2303.77     1.1712     0.0175     0.2425     0.1050     1.2749     1.5800   168.0000     1.1069     0.1282
  527   10.520   2304.72     1.1526     0.0194     0.2438     0.1052     1.2541     1.6783   168.3200     1.0858     0.1257
  528   10.540   2305.68     1.1369     0.0205     0.2480     0.1054     1.2398     1.7956   168.6400     1.0712     0.1303
  529   10.560   2306.62     1.1540     0.0225     0.2348     0.1056     1.2591     1.9514   168.9600     1.0901     0.1326
  530   10.580   2324.33     1.3140     0.0253     0.1898     0.1058     1.4002     2.1956   169.2800     1.2309     0.0899
  531   10.600   2342.08     1.4743     0.0254     0.1449     0.1060     1.5417     2.1996   169.6000     1.3721     0.0471
  532   10.620   2357.31     1.5958     0.0242     0.1274     0.1062     1.6478     1.7539   169.9200     1.4779     0.0119
  533   10.640   2358.23     1.4994     0.0248     0.1379     0.1064     1.5547     1.6206   170.2400     1.3845     0.0183
  534   10.660   2359.20     1.4339     0.0248     0.1582     0.1066     1.4976     1.7126   170.5600     1.3271     0.0340
  535   10.680   2360.16     1.4832     0.0222     0.1721     0.1068     1.5536     1.5163   170.8800     1.3828     0.0441
  536   10.700   2361.07     1.5954     0.0185     0.1806     0.1070     1.6705     1.1822   171.2000     1.4993     0.0480
  537   10.720   2362.06     1.7342     0.0182     0.1752     0.1072     1.8087     1.0631   171.5200     1.6372     0.0429
  538   10.740   2363.03     1.9836     0.0195     0.1647     0.1074     2.0548     1.0139   171.8400     1.8830     0.0331
  539   10.760   2364.00     2.3605     0.0208     0.1347     0.1076     2.4221     0.8990   172.1600     2.2500     0.0177
  540   10.780   2364.94     2.6694     0.0199     0.1160     0.1078     2.7193     0.7577   172.4800     2.5469     0.0044
  541   10.800   2365.94     2.8693     0.0186     0.1169     0.1080     2.9182     0.6534   172.8000     2.7454     0.0030
  542   10.820   2366.97     2.9088     0.0198     0.1152     0.1082     2.9575     0.6789   173.1200     2.7844     0.0028
  543   10.840   2368.01     2.8522     0.0237     0.0947     0.1084     2.8959     0.8219   173.4400     2.7225    -0.0016
  544   10.860   2368.97     2.7385     0.0277     0.0822     0.1086     2.7734     0.9942   173.7600     2.5996    -0.0098
  545   10.880   2369.92     2.5707     0.0336     0.0914     0.1088     2.6077     1.2700   174.0800     2.4336    -0.0085
  546   10.900   2370.86     2.3328     0.0331     0.1043     0.1090     2.3744     1.3640   174.4000     2.2000    -0.0045
  547   10.920   2371.81     2.1165     0.0294     0.1248     0.1092     2.1652     1.3384   174.7200     1.9905     0.0034
  548   10.940   2372.76     1.9102     0.0265     0.1462     0.1094     1.9685     1.3384   175.0400     1.7934     0.0164
  549   10.960   2373.73     1.7642     0.0253     0.1661     0.1096     1.8314     1.4000   175.3600     1.6560     0.0304
  550   10.980   2374.67     1.6780     0.0256     0.1870     0.1098     1.7531     1.4984   175.6800     1.5774     0.0438
  551   11.000   2375.64     1.5115     0.0232     0.1994     0.1100     1.5949     1.4630   176.0000     1.4189     0.0624
  552   11.020   2376.60     1.3863     0.0241     0.2134     0.1102     1.4730     1.7012   176.3200     1.2967     0.0744
  553   11.040   2377.54     1.3949     0.0253     0.2336     0.1104     1.4902     1.8354   176.6400     1.3135     0.0886
  554   11.060   2378.52     1.4407     0.0204     0.2567     0.1106     1.5451     1.4374   176.9600     1.3682     0.1009
  555   11.080   2379.48     1.5256     0.0181     0.2661     0.1108     1.6368     1.2031   177.2800     1.4595     0.1055
  556   11.100   2380.44     1.4945     0.0165     0.2708     0.1110     1.6073     1.0837   177.6000     1.4297     0.1103
  557   11.120   2381.38     1.3437     0.0163     0.2822     0.1112     1.4598     1.1666   177.9200     1.2819     0.1292
  558   11.140   2382.33     1.1439     0.0165     0.3125     0.1114     1.2706     1.3682   178.2400     1.0924     0.1748
  559   11.160   2383.29     0.9711     0.0159     0.3538     0.1116     1.1141     1.5883   178.5600     0.9355     0.2449
  560   11.180   2384.29     0.9263     0.0156     0.3787     0.1118     1.0827     1.6747   178.8800     0.9038     0.2884
  561   11.200   2385.24     0.9646     0.0155     0.3865     0.1120     1.1250     1.6296   179.2000     0.9458     0.2855
  562   11.220   2386.20     1.0245     0.0187     0.3751     0.1122     1.1854     1.8427   179.5200     1.0059     0.2694
  563   11.240   2387.19     1.0508     0.0205     0.3934     0.1124     1.2144     1.9614   179.8400     1.0345     0.2678
  564   11.260   2388.19     1.1478     0.0198     0.3960     0.1126     1.3185     1.7734   180.1600     1.1383     0.2583
  565   11.280   2389.16     1.2916     0.0193     0.3435     0.1128     1.4431     1.5476   180.4800     1.2626     0.1964
  566   11.300   2390.15     1.2996     0.0172     0.2952     0.1130     1.4269     1.3238   180.8000     1.2461     0.1526
  567   11.320   2391.10     1.2042     0.0182     0.3110     0.1132     1.3308     1.4569   181.1200     1.1497     0.1640
  568   11.340   2392.08     1.1031     0.0184     0.3498     0.1134     1.2446     1.6172   181.4400     1.0632     0.2104
  569   11.360   2393.05     1.0014     0.0186     0.3794     0.1136     1.1567     1.8045   181.7600     0.9750     0.2630
  570   11.380   2394.04     0.9594     0.0172     0.4112     0.1138     1.1286     1.7769   182.0800     0.9465     0.3054
  571   11.400   2394.98     0.9937     0.0188     0.4291     0.1140     1.1719     1.9040   182.4000     0.9895     0.3137
  572   11.420   2395.94     1.0786     0.0213     0.4363     0.1142     1.2605     2.0408   182.7200     1.0778     0.2959
  573   11.440   2396.89     1.1945     0.0205     0.4380     0.1144     1.3791     1.7609   183.0400     1.1961     0.2721
  574   11.460   2397.84     1.3546     0.0227     0.4065     0.1146     1.5305     1.7225   183.3600     1.3471     0.2262
  575   11.480   2398.85     1.4804     0.0261     0.3552     0.1148     1.6355     1.7964   183.6800     1.4518     0.1755
  576   11.500   2399.80     1.5826     0.0324     0.3357     0.1150     1.7260     2.0825   184.0000     1.5420     0.1469
  577   11.520   2400.78     1.6442     0.0346     0.3639     0.1152     1.7927     2.1405   184.3200     1.6083     0.1482
  578   11.540   2401.78     1.8601     0.0338     0.3741     0.1154     2.0155     1.8697   184.6400     1.8308     0.1393
  579   11.560   2402.73     2.3080     0.0364     0.3591     0.1156     2.4631     1.6128   184.9600     2.2781     0.1116
  580   11.580   2403.69     2.7500     0.0358     0.3028     0.1158     2.8773     1.4235   185.2800     2.6921     0.0697
  581   11.600   2404.64     3.5690     0.0306     0.3053     0.1160     3.7026     0.8746   185.6000     3.5170     0.0575
  582   11.620   2405.62     5.3147     0.0287     0.2618     0.1162     5.4275     0.6564   185.9200     5.2415     0.0294
  583   11.640   2406.61     7.3312     0.0283    -0.0039     0.1164     7.3893     0.3929   186.2400     7.2031     0.0031
  584   11.660   2408.25     8.0374     0.0325    -0.0498     0.1166     8.0207     0.4151   186.5600     7.8341    -0.0200
  585   11.680   2409.24     9.3852     0.0372    -0.0632     0.1168     9.3594     0.4006   186.8800     9.1725    -0.0194
  586   11.700   2410.21     9.9766     0.0513    -0.0600     0.1170     9.9507     0.5195   187.2000     9.7635    -0.0183
  587   11.720   2411.19    10.4697     0.0661    -0.0477     0.1172    10.4477     0.6362   187.5200    10.2602    -0.0165
  588   11.740   2412.14    10.9090     0.0738    -0.0410     0.1174    10.8906     0.6830   187.8400    10.7027    -0.0151
  589   11.760   2413.19    11.5887     0.0625    -0.0340     0.1176    11.5734     0.5507   188.1600    11.3853    -0.0135
  590   11.780   2414.20    12.5823     0.0447    -0.0220     0.1178    12.5707     0.3685   188.4800    12.3822    -0.0118
  591   11.800   2415.16    14.0150     0.0327    -0.0362     0.1180    14.0106     0.2459   188.8000    13.8218    -0.0093
  592   11.820   2416.12    15.2529     0.0241    -0.1821     0.1182    15.1936     0.1651   189.1200    15.0045    -0.0173
  593   11.840   2417.06    15.9802     0.0185    -0.2286     0.1184    15.8878     0.1185   189.4400    15.6983    -0.0216
  594   11.860   2418.01    16.8123     0.0151    -0.2282     0.1186    16.7150     0.0917   189.7600    16.5253    -0.0212
  595   11.880   2418.96    17.6368     0.0162    -0.2178     0.1188    17.5440     0.0937   190.0800    17.3539    -0.0196
  596   11.900   2419.87    18.3439     0.0188    -0.2115     0.1190    18.2541     0.1043   190.4000    18.0637    -0.0184
  597   11.920   2420.80    18.8888     0.0231    -0.2065     0.1192    18.8013     0.1227   190.7200    18.6106    -0.0176
  598   11.940   2421.72    19.3760     0.0282    -0.2006     0.1194    19.2911     0.1459   191.0400    19.1000    -0.0168
  599   11.960   2422.67    19.9276     0.0338    -0.1948     0.1196    19.8445     0.1722   191.3600    19.6531    -0.0162
  600   11.980   2423.62    20.2298     0.0389    -0.1805     0.1198    20.1518     0.1925   191.6800    19.9601    -0.0153
  601   12.000   2424.53    20.6457     0.0409    -0.1588     0.1200    20.5751     0.1985   192.0000    20.3831    -0.0141
  602   12.020   2425.44    20.7652     0.0402    -0.1301     0.1202    20.7065     0.1940   192.3200    20.5142    -0.0127
  603   12.040   2426.34    20.4769     0.0397    -0.1068     0.1204    20.4287     0.1919   192.6400    20.2360    -0.0116
  604   12.060   2427.30    19.9716     0.0417    -0.0734     0.1206    19.9348     0.2062   192.9600    19.7418    -0.0105
  605   12.080   2428.20    19.6536     0.0433    -0.0555     0.1208    19.6262     0.2186   193.2800    19.4329    -0.0096
  606   12.100   2429.11    19.4052     0.0872    -0.0282     0.1210    19.3897     0.4479   193.6000    19.1961    -0.0082
  607   12.120   2430.06    19.1997     0.0510    -0.0057     0.1212    19.1951     0.2620   193.9200    19.0011    -0.0070
  608   12.140   2430.99    18.7886     0.0137     0.0078     0.1214    18.7891     0.0710   194.2400    18.5949    -0.0065
  609   12.160   2431.93    18.1360     0.0019     0.0283     0.1216    18.1455     0.0106   194.5600    17.9510    -0.0055
  610   12.180   2432.83    17.0744     0.0014     0.0360     0.1218    17.0887     0.0079   194.8800    16.8938    -0.0052
  611   12.200   2433.71    12.8242     0.0012     0.0199     0.1220    12.8392     0.0072   195.2000    12.6440    -0.0222
  612   12.220   2437.69     0.7645     0.0007     0.0615     0.1222     0.7836     0.3038   195.5200     0.5880    -0.1061
  613   12.240   2443.55     0.5366     0.0006     0.1081     0.1224     0.5753     0.2642   195.8400     0.3794    -0.0388
  614   12.260   2447.94     0.4607     0.0006     0.1237     0.1226     0.5127     0.1403   196.1600     0.3165     0.0047
  615   12.280   2448.92     0.5358     0.0011     0.1260     0.1228     0.5886     0.1896   196.4800     0.3921     0.0075
  616   12.300   2449.92     0.5292     0.0032     0.1256     0.1230     0.5818     0.6124   196.8000     0.3850     0.0062
  617   12.320   2450.90     0.5297     0.0051     0.1268     0.1232     0.5828     0.9542   197.1200     0.3856     0.0084
  618   12.340   2451.85     0.4824     0.0082     0.1266     0.1234     0.5356     1.6934   197.4400     0.3381     0.0096
  619   12.360   2452.80     0.5228     0.0132     0.1280     0.1236     0.5763     2.6052   197.7600     0.3785     0.0099
  620   12.380   2453.76     0.6018     0.0163     0.1289     0.1238     0.6558     2.8270   198.0800     0.4577     0.0102
  621   12.400   2454.73     0.7757     0.0132     0.1292     0.1240     0.8300     1.8554   198.4000     0.6316     0.0087
  622   12.420   2455.70     1.0541     0.0156     0.1295     0.1242     1.1086     1.6483   198.7200     0.9099     0.0060
  623   12.440   2456.68     1.5809     0.0196     0.1297     0.1244     1.6354     1.4121   199.0400     1.4364     0.0038
  624   12.460   2457.64     2.6058     0.0267     0.1301     0.1246     2.6607     1.2495   199.3600     2.4614     0.0026
  625   12.480   2458.62     4.7738     0.0324     0.1293     0.1248     4.8283     0.9512   199.6800     4.6286     0.0011
  626   12.500   2459.62     8.2771     0.0381     0.1292     0.1250     8.3314     0.6528   200.0000     8.1314     0.0005
  627   12.520   2461.32    11.7384     0.0416     0.1294     0.1252    11.7927     0.4349   200.3200    11.5924     0.0004
  628   12.540   2462.53    13.8156     0.0362     0.1278     0.1254    13.8698     0.2958   200.6400    13.6692     0.0003
  629   12.560   2463.48    16.5884     0.0352     0.1264     0.1256    16.6415     0.2232   200.9600    16.4405     0.0000
  630   12.580   2476.36    18.7131     0.0383     0.1260     0.1258    18.7661     0.2250   201.2800    18.5649     0.0000
  631   12.600   2492.00    20.8180     0.0397     0.1257     0.1260    20.8709     0.2333   201.6000    20.6693     0.0000
  632   12.620   2506.68    22.7825     0.0422     0.1221     0.1262    22.8350     0.2403   201.9200    22.6330    -0.0001
  633   12.640   2507.62    22.5067     0.0463     0.1190     0.1264    22.5585     0.2037   202.2400    22.3563    -0.0001
  634   12.660   2508.55    21.5039     0.0424     0.1144     0.1266    21.5519     0.1961   202.5600    21.3493    -0.0006
  635   12.680   2509.49    20.1471     0.0322     0.1116     0.1268    20.1957     0.1588   202.8800    19.9928    -0.0006
  636   12.700   2510.44    18.6931     0.0289     0.0841     0.1270    18.7335     0.1542   203.2000    18.5303    -0.0017
  637   12.720   2511.36    17.7757     0.0279     0.0109     0.1272    17.7910     0.1556   203.5200    17.5875    -0.0052
  638   12.740   2512.28    17.0209     0.0322    -0.0086     0.1274    17.0171     0.1858   203.8400    16.8133    -0.0081
  639   12.760   2513.17    16.1369     0.0347     0.0352     0.1276    16.1449     0.2081   204.1600    15.9407    -0.0068
  640   12.780   2514.08    15.4119     0.0372     0.0721     0.1278    15.4366     0.2349   204.4800    15.2321    -0.0045
  641   12.800   2514.98    15.0024     0.0399     0.0818     0.1280    15.0368     0.2623   204.8000    14.8320    -0.0031
  642   12.820   2515.95    15.1982     0.0434     0.0605     0.1282    15.2296     0.2883   205.1200    15.0245    -0.0035
  643   12.840   2516.91    16.0556     0.0492    -0.0077     0.1284    16.0589     0.3161   205.4400    15.8534    -0.0076
  644   12.860   2517.82    16.8720     0.0567    -0.0265     0.1286    16.8728     0.3431   205.7600    16.6670    -0.0076
  645   12.880   2518.72    17.5806     0.0664    -0.0380     0.1288    17.5620     0.3867   206.0800    17.3559    -0.0100
  646   12.900   2519.63    17.8297     0.0790    -0.0727     0.1290    17.8019     0.4441   206.4000    17.5955    -0.0111
  647   12.920   2520.58    17.6067     0.0859    -0.0769     0.1292    17.5747     0.4847   206.7200    17.3680    -0.0118
  648   12.940   2521.51    17.0740     0.0928    -0.0673     0.1294    17.0441     0.5340   207.0400    16.8370    -0.0119
  649   12.960   2522.46    16.4512     0.1004    -0.0585     0.1296    16.4251     0.6030   207.3600    16.2177    -0.0118
  650   12.980   2523.38    15.9655     0.1078    -0.0399     0.1298    15.9458     0.6711   207.6800    15.7381    -0.0112
  651   13.000   2524.28    15.5719     0.1126    -0.0199     0.1300    15.5616     0.7147   208.0000    15.3536    -0.0101
  652   13.020   2525.22    15.3458     0.1165     0.0004     0.1302    15.3432     0.7584   208.3200    15.1349    -0.0090
  653   13.040   2526.13    15.1774     0.1171     0.0153     0.1304    15.1817     0.7680   208.6400    14.9731    -0.0080
  654   13.060   2527.07    15.0177     0.1179     0.0275     0.1306    15.0274     0.7821   208.9600    14.8184    -0.0072
  655   13.080   2527.99    14.8991     0.1170     0.0400     0.1308    14.9139     0.7824   209.2800    14.7047    -0.0065
  656   13.100   2528.92    14.8810     0.1154     0.0473     0.1310    14.9003     0.7766   209.6000    14.6907    -0.0058
  657   13.120   2529.82    14.9538     0.1134     0.0578     0.1312    14.9769     0.7601   209.9200    14.7669    -0.0052
  658   13.140   2530.78    14.9939     0.1119     0.0750     0.1314    15.0242     0.7460   210.2400    14.8139    -0.0040
  659   13.160   2531.68    14.9276     0.1130     0.0798     0.1316    14.9594     0.7548   210.5600    14.7489    -0.0038
  660   13.180   2532.64    14.8066     0.1152     0.0855     0.1318    14.8430     0.7763   210.8800    14.6321    -0.0031
  661   13.200   2533.58    14.7602     0.1167     0.0892     0.1320    14.7974     0.7903   211.2000    14.5862    -0.0030
  662   13.220   2534.51    14.6572     0.1098     0.0951     0.1322    14.6959     0.7465   211.5200    14.4844    -0.0028
  663   13.240   2535.41    14.6646     0.1156     0.1050     0.1324    14.7073     0.7890   211.8400    14.4955    -0.0021
  664   13.260   2536.36    14.8867     0.1127     0.1111     0.1326    14.9321     0.7638   212.1600    14.7200    -0.0017
  665   13.280   2537.30    15.4974     0.1171     0.1146     0.1328    15.5448     0.7709   212.4800    15.3323    -0.0013
  666   13.300   2538.28    16.9445     0.1228     0.1212     0.1330    16.9935     0.7597   212.8000    16.7807    -0.0010
  667   13.320   2539.24    19.4665     0.1196     0.1175     0.1332    19.5179     0.6573   213.1200    19.3047    -0.0006
  668   13.340   2540.14    21.0241     0.1176     0.0920     0.1334    21.0675     0.5753   213.4400    20.8541    -0.0014
  669   13.360   2541.12    22.4531     0.1055    -0.0021     0.1336    22.4662     0.4847   213.7600    22.2524    -0.0046
  670   13.380   2542.07    23.3170     0.0943    -0.0397     0.1338    23.2991     0.4070   214.0800    23.0850    -0.0077
  671   13.400   2542.97    23.4289     0.0764    -0.0802     0.1340    23.4049     0.3260   214.4000    23.1905    -0.0082
  672   13.420   2543.93    22.2169     0.0638    -0.1234     0.1342    22.1690     0.2858   214.7200    21.9542    -0.0113
  673   13.440   2544.83    20.9023     0.0539    -0.1294     0.1344    20.8482     0.2570   215.0400    20.6331    -0.0128
  674   13.460   2545.74    19.9395     0.0577    -0.1173     0.1346    19.8872     0.2835   215.3600    19.6719    -0.0132
  675   13.480   2546.69    19.2268     0.0635    -0.0899     0.1348    19.1843     0.3296   215.6800    18.9687    -0.0124
  676   13.500   2547.60    18.8153     0.0747    -0.0638     0.1350    18.7863     0.3956   216.0000    18.5703    -0.0110
  677   13.520   2548.52    18.4246     0.0865    -0.0442     0.1352    18.4020     0.4647   216.3200    18.1857    -0.0104
  678   13.540   2549.43    18.1549     0.0995    -0.0178     0.1354    18.1438     0.5445   216.6400    17.9272    -0.0090
  679   13.560   2550.36    17.9015     0.1074     0.0152     0.1356    17.9038     0.5959   216.9600    17.6868    -0.0074
  680   13.580   2551.26    17.7805     0.1136     0.0210     0.1358    17.7880     0.6373   217.2800    17.5707    -0.0067
  681   13.600   2552.21    17.7285     0.1194     0.0312     0.1360    17.7401     0.6729   217.6000    17.5225    -0.0062
  682   13.620   2553.16    17.7389     0.1288     0.0447     0.1362    17.7555     0.7270   217.9200    17.5376    -0.0055
  683   13.640   2554.07    17.7598     0.1401     0.0578     0.1364    17.7833     0.7893   218.2400    17.5650    -0.0046
  684   13.660   2555.03    17.8685     0.1430     0.0593     0.1366    17.8932     0.8035   218.5600    17.6747    -0.0044
  685   13.680   2555.95    18.0465     0.1406     0.0654     0.1368    18.0726     0.7828   218.8800    17.8537    -0.0042
  686   13.700   2556.87    18.3349     0.1372     0.0790     0.1370    18.3660     0.7548   219.2000    18.1468    -0.0035
  687   13.720   2557.80    18.5098     0.1349     0.0893     0.1372    18.5461     0.7305   219.5200    18.3266    -0.0028
  688   13.740   2558.75    18.4052     0.1362     0.0868     0.1374    18.4426     0.7373   219.8400    18.2228    -0.0027
  689   13.760   2559.67    18.4206     0.1364     0.0833     0.1376    18.4553     0.7412   220.1600    18.2352    -0.0030
  690   13.780   2560.63    18.5893     0.1331     0.0877     0.1378    18.6263     0.7168   220.4800    18.4058    -0.0027
  691   13.800   2561.58    18.8388     0.1351     0.0979     0.1380    18.8776     0.7184   220.8000    18.6568    -0.0024
  692   13.820   2562.51    18.9363     0.1405     0.1070     0.1382    18.9802     0.7427   221.1200    18.7590    -0.0018
  693   13.840   2563.42    18.8802     0.1506     0.1141     0.1384    18.9275     0.7959   221.4400    18.7061    -0.0014
  694   13.860   2564.36    18.7751     0.1559     0.1121     0.1386    18.8223     0.8279   221.7600    18.6005    -0.0014
  695   13.880   2565.26    18.6500     0.1574     0.1159     0.1388    18.6970     0.8397   222.0800    18.4749    -0.0015
  696   13.900   2566.18    18.4130     0.1584     0.1237     0.1390    18.4651     0.8536   222.4000    18.2427    -0.0008
  697   13.920   2567.09    18.1031     0.1596     0.1264     0.1392    18.1568     0.8740   222.7200    17.9341    -0.0006
  698   13.940   2568.06    17.7579     0.1577     0.1260     0.1394    17.8109     0.8786   223.0400    17.5879    -0.0007
  699   13.960   2568.99    17.3685     0.1541     0.1290     0.1396    17.4217     0.8858   223.3600    17.1983    -0.0008
  700   13.980   2569.93    16.9583     0.1529     0.1381     0.1398    17.0155     0.8934   223.6800    16.7918    -0.0002
  701   14.000   2570.84    16.6004     0.1524     0.1297     0.1400    16.6558     0.9091   224.0000    16.4318    -0.0005
  702   14.020   2571.76    16.3469     0.1494     0.1275     0.1402    16.4005     0.9132   224.3200    16.1761    -0.0008
  703   14.040   2572.66    16.0677     0.1457     0.1316     0.1404    16.1222     0.8972   224.6400    15.8976    -0.0007
  704   14.060   2573.58    15.7047     0.1437     0.1292     0.1406    15.7590     0.9037   224.9600    15.5341    -0.0007
  705   14.080   2574.52    15.2293     0.1387     0.1277     0.1408    15.2835     0.8956   225.2800    15.0582    -0.0008
  706   14.100   2575.43    14.6342     0.1334     0.1271     0.1410    14.6873     0.9002   225.6000    14.4617    -0.0010
  707   14.120   2576.34    13.7729     0.1285     0.1273     0.1412    13.8265     0.8995   225.9200    13.6006    -0.0010
  708   14.140   2577.23    12.8087     0.1221     0.1274     0.1414    12.8619     0.9180   226.2400    12.6357    -0.0012
  709   14.160   2578.24    11.8753     0.1169     0.1276     0.1416    11.9284     0.9805   226.5600    11.7019    -0.0013
  710   14.180   2579.14    11.2111     0.1109     0.1261     0.1418    11.2643     0.9627   226.8800    11.0375    -0.0014
  711   14.200   2580.07    10.7680     0.1065     0.1304     0.1420    10.8219     0.9712   227.2000    10.5947    -0.0013
  712   14.220   2580.93    10.4535     0.1016     0.1366     0.1422    10.5104     0.9598   227.5200    10.2829    -0.0007
  713   14.240   2581.86    10.2481     0.0963     0.1220     0.1424    10.3022     0.9323   227.8400    10.0743    -0.0014
  714   14.260   2582.82     9.9801     0.0891     0.1151     0.1426    10.0294     0.8832   228.1600     9.8012    -0.0026
  715   14.280   2583.77     9.8152     0.0830     0.1111     0.1428     9.8626     0.8411   228.4800     9.6341    -0.0031
  716   14.300   2584.72     9.7377     0.0786     0.1096     0.1430     9.7833     0.8043   228.8000     9.5545    -0.0036
  717   14.320   2585.67     9.6647     0.0760     0.1061     0.1432     9.7097     0.7831   229.1200     9.4806    -0.0038
  718   14.340   2586.58     9.5659     0.0750     0.1047     0.1434     9.6101     0.7808   229.4400     9.3806    -0.0041
  719   14.360   2587.56     9.5161     0.0740     0.1035     0.1436     9.5592     0.7772   229.7600     9.3295    -0.0044
  720   14.380   2588.52     9.5552     0.0732     0.1046     0.1438     9.5992     0.7682   230.0800     9.3691    -0.0042
  721   14.400   2589.51     9.6131     0.0738     0.1077     0.1440     9.6585     0.7687   230.4000     9.4281    -0.0038
  722   14.420   2590.42     9.7074     0.0742     0.0983     0.1442     9.7504     0.7683   230.7200     9.5196    -0.0044
  723   14.440   2591.36     9.8279     0.0761     0.0905     0.1444     9.8663     0.7766   231.0400     9.6353    -0.0055
  724   14.460   2592.28    10.0080     0.0804     0.0955     0.1446    10.0476     0.8036   231.3600     9.8162    -0.0051
  725   14.480   2593.20    10.2818     0.0840     0.0955     0.1448    10.3224     0.8213   231.6800    10.0907    -0.0048
  726   14.500   2594.15    10.5622     0.0875     0.0961     0.1450    10.6009     0.8318   232.0000    10.3689    -0.0051
  727   14.520   2595.06    10.7096     0.0917     0.1006     0.1452    10.7513     0.8572   232.3200    10.5190    -0.0044
  728   14.540   2596.04    10.7135     0.0962     0.1041     0.1454    10.7557     0.8984   232.6400    10.5231    -0.0043
  729   14.560   2612.00    10.5524     0.0983     0.1185     0.1456    10.6001     0.9180   232.9600    10.3671    -0.0031
  730   14.580   2628.65    10.3901     0.1003     0.1292     0.1458    10.4437     0.9479   233.2800    10.2104    -0.0018
  731   14.600   2629.65    10.3846     0.1020     0.1314     0.1460    10.4407     0.9821   233.6000    10.2071    -0.0012
  732   14.620   2630.61    10.3817     0.1050     0.1318     0.1462    10.4377     1.0113   233.9200    10.2038    -0.0013
  733   14.640   2631.59    10.3570     0.1068     0.1301     0.1464    10.4117     1.0313   234.2400    10.1775    -0.0016
  734   14.660   2632.55    10.3858     0.1078     0.1327     0.1466    10.4414     1.0391   234.5600    10.2068    -0.0014
  735   14.680   2633.50    10.4289     0.1071     0.1327     0.1468    10.4845     1.0283   234.8800    10.2496    -0.0014
  736   14.700   2634.39    10.4633     0.1086     0.1342     0.1470    10.5196     1.0387   235.2000    10.2844    -0.0013
  737   14.720   2635.34    10.4882     0.1106     0.1357     0.1472    10.5448     1.0546   235.5200    10.3092    -0.0012
  738   14.740   2636.29    10.5135     0.1107     0.1367     0.1474    10.5707     1.0543   235.8400    10.3348    -0.0011
  739   14.760   2637.32    10.5908     0.1100     0.1347     0.1476    10.6480     1.0406   236.1600    10.4119    -0.0011
  740   14.780   2638.26    10.7009     0.1090     0.1381     0.1478    10.7586     1.0220   236.4800    10.5221    -0.0010
  741   14.800   2639.22    10.7730     0.1078     0.1387     0.1480    10.8314     1.0023   236.8000    10.5946    -0.0008
  742   14.820   2640.21    10.8742     0.1071     0.1396     0.1482    10.9332     0.9879   237.1200    10.6961    -0.0007
  743   14.840   2641.12    10.9752     0.1066     0.1397     0.1484    11.0338     0.9782   237.4400    10.7964    -0.0008
  744   14.860   2642.12    11.0868     0.1064     0.1396     0.1486    11.1446     0.9637   237.7600    10.9069    -0.0010
  745   14.880   2643.10    11.1544     0.1048     0.1384     0.1488    11.2132     0.9428   238.0800    10.9751    -0.0008
  746   14.900   2644.00    11.1962     0.1054     0.1375     0.1490    11.2538     0.9429   238.4000    11.0154    -0.0011
  747   14.920   2644.97    11.2227     0.1053     0.1384     0.1492    11.2808     0.9391   238.7200    11.0421    -0.0010
  748   14.940   2645.86    11.2112     0.1035     0.1356     0.1494    11.2688     0.9228   239.0400    11.0298    -0.0011
  749   14.960   2646.80    11.1975     0.1029     0.1334     0.1496    11.2537     0.9181   239.3600    11.0143    -0.0014
  750   14.980   2647.73    11.2193     0.1005     0.1309     0.1498    11.2749     0.8972   239.6800    11.0352    -0.0016
  751   15.000   2648.67    11.2886     0.0949     0.1156     0.1500    11.3388     0.8447   240.0000    11.0988    -0.0027
  752   15.020   2649.62    11.4493     0.0900     0.0924     0.1502    11.4916     0.7930   240.3200    11.2513    -0.0044
  753   15.040   2650.58    11.6842     0.0847     0.0588     0.1504    11.7131     0.7260   240.6400    11.4724    -0.0071
  754   15.060   2651.48    11.9588     0.0812     0.0214     0.1506    11.9730     0.6834   240.9600    11.7320    -0.0099
  755   15.080   2652.44    12.1902     0.0804    -0.0070     0.1508    12.1908     0.6605   241.2800    11.9495    -0.0125
  756   15.100   2653.34    12.3359     0.0816    -0.0105     0.1510    12.3316     0.6643   241.6000    12.0900    -0.0133
  757   15.120   2654.26    12.4632     0.0848    -0.0127     0.1512    12.4597     0.6842   241.9200    12.2178    -0.0131
  758   15.140   2655.19    12.5898     0.0903    -0.0035     0.1514    12.5842     0.7210   242.2400    12.3420    -0.0133
  759   15.160   2656.14    12.7819     0.0963     0.0121     0.1516    12.7857     0.7592   242.5600    12.5431    -0.0114
  760   15.180   2657.05    12.9819     0.1048     0.0282     0.1518    12.9909     0.8130   242.8800    12.7480    -0.0102
  761   15.200   2657.94    13.1183     0.1120     0.0490     0.1520    13.1359     0.8569   243.2000    12.8927    -0.0085
  762   15.220   2658.90    13.1785     0.1187     0.0590     0.1522    13.2027     0.9015   243.5200    12.9592    -0.0073
  763   15.240   2659.85    13.1541     0.1238     0.0663     0.1524    13.1812     0.9396   243.8400    12.9373    -0.0068
  764   15.260   2660.81    13.0548     0.1267     0.0825     0.1526    13.0872     0.9673   244.1600    12.8430    -0.0059
  765   15.280   2661.78    12.9522     0.1264     0.0863     0.1528    12.9884     0.9718   244.4800    12.7440    -0.0052
  766   15.300   2662.72    12.7886     0.1263     0.0969     0.1530    12.8277     0.9869   244.8000    12.5829    -0.0048
  767   15.320   2663.63    12.6669     0.1247     0.0993     0.1532    12.7079     0.9839   245.1200    12.4628    -0.0045
  768   15.340   2664.57    12.6207     0.1240     0.1073     0.1534    12.6648     0.9813   245.4400    12.4193    -0.0039
  769   15.360   2665.48    12.6314     0.1230     0.1147     0.1536    12.6786     0.9748   245.7600    12.4329    -0.0033
  770   15.380   2666.37    12.7399     0.1255     0.1171     0.1538    12.7886     0.9908   246.0800    12.5425    -0.0030
  771   15.400   2667.29    12.9193     0.1273     0.1210     0.1540    12.9696     0.9913   246.4000    12.7232    -0.0027
  772   15.420   2668.22    13.1580     0.1279     0.1263     0.1542    13.2097     0.9788   246.7200    12.9629    -0.0024
  773   15.440   2669.17    13.3843     0.1283     0.1269     0.1544    13.4382     0.9655   247.0400    13.1911    -0.0020
  774   15.460   2670.08    13.5015     0.1286     0.1235     0.1546    13.5542     0.9552   247.3600    13.3069    -0.0022
  775   15.480   2671.03    13.6313     0.1275     0.1150     0.1548    13.6811     0.9401   247.6800    13.4334    -0.0027
  776   15.500   2671.99    13.7586     0.1238     0.1097     0.1550    13.8055     0.9041   248.0000    13.5575    -0.0032
  777   15.520   2672.98    13.8277     0.1203     0.1079     0.1552    13.8730     0.8703   248.3200    13.6246    -0.0035
  778   15.540   2673.88    13.8731     0.1193     0.1059     0.1554    13.9177     0.8618   248.6400    13.6691    -0.0036
  779   15.560   2674.79    14.0369     0.1179     0.1056     0.1556    14.0819     0.8431   248.9600    13.8330    -0.0035
  780   15.580   2675.69    14.3789     0.1188     0.0947     0.1558    14.4216     0.8376   249.2800    14.1723    -0.0038
  781   15.600   2676.64    14.9466     0.1228     0.0751     0.1560    14.9794     0.8390   249.6000    14.7298    -0.0053
  782   15.620   2677.58    15.4703     0.1295     0.0698     0.1562    15.5003     0.8422   249.9200    15.2504    -0.0056
  783   15.640   2678.51    16.0986     0.1385     0.0713     0.1564    16.1272     0.8787   250.2400    15.8770    -0.0056
  784   15.660   2679.43    16.8089     0.1466     0.0857     0.1566    16.8435     0.8917   250.5600    16.5929    -0.0045
  785   15.680   2680.35    17.4357     0.1558     0.1005     0.1568    17.4743     0.9090   250.8800    17.2234    -0.0038
  786   15.700   2681.27    17.9221     0.1663     0.1079     0.1570    17.9653     0.9393   251.2000    17.7141    -0.0031
  787   15.720   2682.18    18.2332     0.1752     0.1123     0.1572    18.2804     0.9676   251.5200    18.0288    -0.0025
  788   15.740   2683.16    18.3455     0.1815     0.1182     0.1574    18.3934     0.9913   251.8400    18.1415    -0.0024
  789   15.760   2684.06    18.2623     0.1840     0.1196     0.1576    18.3131     1.0035   252.1600    18.0610    -0.0020
  790   15.780   2685.01    18.0307     0.1825     0.1237     0.1578    18.0821     1.0099   252.4800    17.8296    -0.0020
  791   15.800   2685.99    17.6953     0.1784     0.1282     0.1580    17.7486     1.0034   252.8000    17.4958    -0.0018
  792   15.820   2686.90    17.3943     0.1737     0.1283     0.1582    17.4480     0.9937   253.1200    17.1949    -0.0018
  793   15.840   2687.83    17.1177     0.1671     0.1219     0.1584    17.1701     0.9741   253.4400    16.9167    -0.0020
  794   15.860   2688.74    16.8819     0.1597     0.1191     0.1586    16.9321     0.9444   253.7600    16.6783    -0.0023
  795   15.880   2689.66    16.6198     0.1517     0.1067     0.1588    16.6653     0.9118   254.0800    16.4112    -0.0031
  796   15.900   2690.59    16.2951     0.1472     0.0991     0.1590    16.3375     0.8938   254.4000    16.0831    -0.0036
  797   15.920   2691.55    15.9413     0.1442     0.1011     0.1592    15.9845     0.8940   254.7200    15.7298    -0.0036
  798   15.940   2692.46    15.6851     0.1416     0.1076     0.1594    15.7282     0.8988   255.0400    15.4732    -0.0037
  799   15.960   2693.38    15.5512     0.1382     0.1057     0.1596    15.5959     0.8880   255.3600    15.3405    -0.0035
  800   15.980   2694.29    15.5517     0.1366     0.1066     0.1598    15.5970     0.8785   255.6800    15.3414    -0.0034
  801   16.000   2695.22    15.6365     0.1340     0.1028     0.1600    15.6804     0.8600   256.0000    15.4244    -0.0036
  802   16.020   2696.16    15.8520     0.1318     0.0915     0.1602    15.8915     0.8368   256.3200    15.6352    -0.0042
  803   16.040   2697.10    16.1030     0.1296     0.0858     0.1604    16.1397     0.8115   256.6400    15.8830    -0.0046
  804   16.060   2698.01    16.4184     0.1279     0.0837     0.1606    16.4535     0.7856   256.9600    16.1966    -0.0048
  805   16.080   2698.93    16.7687     0.1272     0.0810     0.1608    16.8036     0.7660   257.2800    16.5463    -0.0047
  806   16.100   2699.86    17.0731     0.1275     0.0796     0.1610    17.1061     0.7530   257.6000    16.8485    -0.0049
  807   16.120   2700.81    17.4028     0.1273     0.0801     0.1612    17.4365     0.7388   257.9200    17.1786    -0.0047
  808   16.140   2701.78    17.7994     0.1258     0.0833     0.1614    17.8339     0.7152   258.2400    17.5757    -0.0045
  809   16.160   2702.73    18.3921     0.1254     0.0913     0.1616    18.4295     0.6938   258.5600    18.1709    -0.0040
  810   16.180   2703.64    19.0867     0.1265     0.1015     0.1618    19.1275     0.6749   258.8800    18.8686    -0.0034
  811   16.200   2704.54    19.7483     0.1288     0.0978     0.1620    19.7889     0.6602   259.2000    19.5297    -0.0033
  812   16.220   2705.47    20.2062     0.1286     0.1041     0.1622    20.2498     0.6426   259.5200    19.9903    -0.0029
  813   16.240   2706.42    20.5833     0.1273     0.1062     0.1624    20.6269     0.6232   259.8400    20.3670    -0.0029
  814   16.260   2707.38    20.8721     0.1291     0.1083     0.1626    20.9171     0.6221   260.1600    20.6570    -0.0027
  815   16.280   2708.33    21.0508     0.1350     0.1119     0.1628    21.0976     0.6430   260.4800    20.8372    -0.0025
  816   16.300   2709.26    21.0400     0.1412     0.1177     0.1630    21.0890     0.6698   260.8000    20.8282    -0.0022
  817   16.320   2710.23    20.8648     0.1472     0.1231     0.1632    20.9163     0.7015   261.1200    20.6552    -0.0020
  818   16.340   2711.14    20.6737     0.1550     0.1316     0.1634    20.7271     0.7473   261.4400    20.4657    -0.0018
  819   16.360   2712.09    20.4669     0.1652     0.1312     0.1636    20.5231     0.8024   261.7600    20.2613    -0.0015
  820   16.380   2713.04    20.3372     0.1746     0.1310     0.1638    20.3910     0.8563   262.0800    20.1290    -0.0018
  821   16.400   2713.95    20.1470     0.1782     0.1290     0.1640    20.2022     0.8799   262.4000    19.9398    -0.0016
  822   16.420   2714.87    19.8655     0.1803     0.1410     0.1642    19.9224     0.9013   262.7200    19.6597    -0.0015
  823   16.440   2715.84    19.5210     0.1799     0.1390     0.1644    19.5802     0.9130   263.0400    19.3171    -0.0012
  824   16.460   2716.76    19.2284     0.1798     0.1405     0.1646    19.2881     0.9296   263.3600    19.0248    -0.0012
  825   16.480   2717.67    19.1478     0.1751     0.1435     0.1648    19.2067     0.9139   263.6800    18.9431    -0.0013
  826   16.500   2718.62    19.2208     0.1710     0.1232     0.1650    19.2803     0.8909   264.0000    19.0163    -0.0012
  827   16.520   2719.54    19.2984     0.1700     0.1048     0.1652    19.3428     0.8814   264.3200    19.0785    -0.0031
  828   16.540   2720.49    19.2610     0.1702     0.1085     0.1654    19.3062     0.8830   264.6400    19.0415    -0.0030
  829   16.560   2721.45    19.2116     0.1715     0.1100     0.1656    19.2569     0.8916   264.9600    18.9920    -0.0030
  830   16.580   2722.41    19.1697     0.1727     0.1253     0.1658    19.2202     0.9002   265.2800    18.9550    -0.0024
  831   16.600   2723.32    19.1110     0.1755     0.1336     0.1660    19.1663     0.9174   265.6000    18.9007    -0.0018
  832   16.620   2724.25    19.0815     0.1776     0.1391     0.1662    19.1396     0.9305   265.9200    18.8736    -0.0015
  833   16.640   2725.42    19.0659     0.1789     0.1419     0.1664    19.1247     0.9385   266.2400    18.8585    -0.0014
  834   16.660   2738.87    19.0486     0.1792     0.1472     0.1666    19.1096     0.9399   266.5600    18.8431    -0.0011
  835   16.680   2752.32    19.0313     0.1797     0.1525     0.1668    19.0946     0.9424   266.8800    18.8277    -0.0009
  836   16.700   2764.24    19.0367     0.1800     0.1536     0.1670    19.1017     0.9448   267.2000    18.8345    -0.0006
  837   16.720   2765.18    19.1578     0.1788     0.1555     0.1672    19.2221     0.9345   267.5200    18.9546    -0.0007
  838   16.740   2766.13    19.1173     0.1776     0.1537     0.1674    19.1832     0.9269   267.8400    18.9153    -0.0006
  839   16.760   2767.08    18.9732     0.1759     0.1487     0.1676    19.0370     0.9240   268.1600    18.7688    -0.0008
  840   16.780   2768.02    18.8383     0.1722     0.1479     0.1678    18.9011     0.9110   268.4800    18.6326    -0.0010
  841   16.800   2768.96    18.7449     0.1680     0.1463     0.1680    18.8058     0.8942   268.8000    18.5370    -0.0012
  842   16.820   2769.94    18.6510     0.1657     0.1395     0.1682    18.7109     0.8866   269.1200    18.4418    -0.0014
  843   16.840   2770.86    18.5099     0.1631     0.1379     0.1684    18.5689     0.8777   269.4400    18.2994    -0.0015
  844   16.860   2771.80    18.3255     0.1613     0.1416     0.1686    18.3846     0.8763   269.7600    18.1148    -0.0015
  845   16.880   2772.71    18.2430     0.1597     0.1417     0.1688    18.3017     0.8740   270.0800    18.0317    -0.0016
  846   16.900   2773.64    18.1776     0.1580     0.1414     0.1690    18.2354     0.8677   270.4000    17.9649    -0.0018
  847   16.920   2774.60    18.1276     0.1572     0.1428     0.1692    18.1876     0.8663   270.7200    17.9168    -0.0015
  848   16.940   2775.55    18.0599     0.1570     0.1436     0.1694    18.1203     0.8675   271.0400    17.8492    -0.0014
  849   16.960   2776.50    17.9758     0.1543     0.1454     0.1696    18.0366     0.8563   271.3600    17.7652    -0.0014
  850   16.980   2777.43    17.9333     0.1504     0.1475     0.1698    17.9949     0.8377   271.6800    17.7232    -0.0013
  851   17.000   2778.37    17.8678     0.1477     0.1508     0.1700    17.9301     0.8250   272.0000    17.6581    -0.0012
  852   17.020   2779.32    17.7979     0.1468     0.1509     0.1702    17.8606     0.8236   272.3200    17.5883    -0.0012
  853   17.040   2780.24    17.7556     0.1452     0.1532     0.1704    17.8205     0.8170   272.6400    17.5479    -0.0009
  854   17.060   2781.20    17.8147     0.1448     0.1545     0.1706    17.8802     0.8142   272.9600    17.6072    -0.0008
  855   17.080   2782.15    18.0935     0.1436     0.1561     0.1708    18.1588     0.8011   273.2800    17.8855    -0.0009
  856   17.100   2783.09    18.5384     0.1413     0.1510     0.1710    18.6026     0.7720   273.6000    18.3290    -0.0010
  857   17.120   2783.99    19.0754     0.1389     0.1530     0.1712    19.1391     0.7384   273.9200    18.8652    -0.0010
  858   17.140   2784.95    19.6181     0.1354     0.1418     0.1714    19.6793     0.6992   274.2400    19.4051    -0.0013
  859   17.160   2785.90    20.0364     0.1334     0.1416     0.1716    20.0967     0.6724   274.5600    19.8221    -0.0014
  860   17.180   2786.83    20.5523     0.1340     0.1443     0.1718    20.6129     0.6596   274.8800    20.3380    -0.0014
  861   17.200   2787.79    21.2761     0.1360     0.1439     0.1720    21.3360     0.6489   275.2000    21.0608    -0.0014
  862   17.220   2788.70    22.0980     0.1370     0.1441     0.1722    22.1601     0.6286   275.5200    21.8846    -0.0011
  863   17.240   2789.61    22.8460     0.1373     0.1072     0.1724    22.8938     0.6064   275.8400    22.6180    -0.0026
  864   17.260   2790.58    23.5155     0.1378     0.1102     0.1726    23.5576     0.5917   276.1600    23.2814    -0.0031
  865   17.280   2791.57    24.3786     0.1391     0.1347     0.1728    24.4329     0.5782   276.4800    24.1565    -0.0018
  866   17.300   2792.52    25.8195     0.1372     0.1403     0.1730    25.8794     0.5417   276.8000    25.6026    -0.0012
  867   17.320   2793.49    27.4699     0.1341     0.1127     0.1732    27.5213     0.4957   277.1200    27.2442    -0.0019
  868   17.340   2794.48    29.2168     0.1270     0.1106     0.1734    29.2626     0.4419   277.4400    28.9851    -0.0022
  869   17.360   2795.45    30.9808     0.1206     0.0851     0.1736    31.0211     0.3968   277.7600    30.7433    -0.0025
  870   17.380   2796.41    32.7295     0.1126     0.0757     0.1738    32.7630     0.3504   278.0800    32.4849    -0.0029
  871   17.400   2797.35    34.1980     0.1057     0.0753     0.1740    34.2283     0.3136   278.4000    33.9499    -0.0030
  872   17.420   2798.32    34.9198     0.0974     0.0603     0.1742    34.9464     0.2803   278.7200    34.6677    -0.0032
  873   17.440   2799.28    34.4666     0.0919     0.0637     0.1744    34.4919     0.2640   279.0400    34.2128    -0.0033
  874   17.460   2800.28    32.9272     0.0864     0.0652     0.1746    32.9560     0.2564   279.3600    32.6766    -0.0032
  875   17.480   2801.19    30.7537     0.0812     0.0586     0.1748    30.7807     0.2552   279.6800    30.5010    -0.0036
  876   17.500   2802.14    28.4416     0.0798     0.0672     0.1750    28.4693     0.2691   280.0000    28.1893    -0.0039
  877   17.520   2803.05    26.3613     0.0825     0.0678     0.1752    26.3885     0.3019   280.3200    26.1082    -0.0042
  878   17.540   2804.03    24.2809     0.0861     0.0633     0.1754    24.3080     0.3430   280.6400    24.0273    -0.0046
  879   17.560   2804.99    22.7925     0.0883     0.0670     0.1756    22.8202     0.3789   280.9600    22.5393    -0.0049
  880   17.580   2805.90    21.7416     0.0961     0.0673     0.1758    21.7700     0.4327   281.2800    21.4887    -0.0050
  881   17.600   2806.79    20.8779     0.1055     0.0885     0.1760    20.9128     0.4972   281.6000    20.6312    -0.0045
  882   17.620   2807.79    20.2615     0.1155     0.1057     0.1762    20.3010     0.5639   281.9200    20.0191    -0.0041
  883   17.640   2808.77    19.9310     0.1185     0.1005     0.1764    19.9725     0.5897   282.2400    19.6903    -0.0039
  884   17.660   2809.70    19.6907     0.1184     0.1078     0.1766    19.7344     0.5983   282.5600    19.4518    -0.0037
  885   17.680   2810.61    19.4716     0.1212     0.1109     0.1768    19.5180     0.6189   282.8800    19.2351    -0.0034
  886   17.700   2811.54    19.2767     0.1259     0.1181     0.1770    19.3252     0.6504   283.2000    19.0420    -0.0032
  887   17.720   2812.50    19.2193     0.1275     0.1261     0.1772    19.2712     0.6627   283.5200    18.9877    -0.0028
  888   17.740   2813.40    19.2307     0.1255     0.1303     0.1774    19.2846     0.6533   283.8400    19.0008    -0.0026
  889   17.760   2814.37    19.3802     0.1228     0.1344     0.1776    19.4366     0.6362   284.1600    19.1525    -0.0023
  890   17.780   2815.28    19.5206     0.1190     0.1412     0.1778    19.5790     0.6120   284.4800    19.2946    -0.0020
  891   17.800   2816.20    19.6962     0.1167     0.1439     0.1780    19.7552     0.5949   284.8000    19.4704    -0.0019
  892   17.820   2817.14    19.8285     0.1159     0.1388     0.1782    19.8858     0.5874   285.1200    19.6007    -0.0021
  893   17.840   2818.09    19.8955     0.1157     0.1404     0.1784    19.9541     0.5831   285.4400    19.6686    -0.0020
  894   17.860   2819.02    20.0077     0.1170     0.1420     0.1786    20.0675     0.5863   285.7600    19.7818    -0.0018
  895   17.880   2819.96    20.1693     0.1176     0.1449     0.1788    20.2292     0.5854   286.0800    19.9432    -0.0018
  896   17.900   2820.90    20.3948     0.1189     0.1489     0.1790    20.4571     0.5856   286.4000    20.1707    -0.0015
  897   17.920   2821.83    20.6125     0.1218     0.1540     0.1792    20.6769     0.5927   286.7200    20.3902    -0.0013
  898   17.940   2822.79    20.9177     0.1244     0.1516     0.1794    20.9810     0.5983   287.0400    20.6940    -0.0014
  899   17.960   2823.79    21.2552     0.1263     0.1505     0.1796    21.3183     0.5983   287.3600    21.0309    -0.0014
  900   17.980   2824.74    21.6042     0.1272     0.1513     0.1798    21.6678     0.5930   287.6800    21.3801    -0.0013
  901   18.000   2825.68    21.9294     0.1265     0.1509     0.1800    21.9924     0.5808   288.0000    21.7044    -0.0014
  902   18.020   2826.67    22.1715     0.1285     0.1536     0.1802    22.2355     0.5816   288.3200    21.9472    -0.0013
  903   18.040   2827.56    22.2783     0.1289     0.1528     0.1804    22.3437     0.5797   288.6400    22.0550    -0.0011
  904   18.060   2828.51    22.3286     0.1290     0.1471     0.1806    22.3909     0.5778   288.9600    22.1019    -0.0015
  905   18.080   2829.42    22.4102     0.1248     0.1515     0.1808    22.4726     0.5575   289.2800    22.1833    -0.0015
  906   18.100   2830.37    22.5697     0.1196     0.1525     0.1810    22.6335     0.5319   289.6000    22.3439    -0.0013
  907   18.120   2831.33    22.8592     0.1160     0.1519     0.1812    22.9229     0.5102   289.9200    22.6330    -0.0013
  908   18.140   2832.28    23.2460     0.1115     0.1432     0.1814    23.3088     0.4829   290.2400    23.0185    -0.0014
  909   18.160   2833.19    23.6862     0.1072     0.1316     0.1816    23.7430     0.4552   290.5600    23.4525    -0.0020
  910   18.180   2834.14    24.0983     0.1028     0.1211     0.1818    24.1500     0.4289   290.8800    23.8591    -0.0025
  911   18.200   2835.10    24.5167     0.0974     0.1228     0.1820    24.5681     0.3995   291.2000    24.2769    -0.0025
  912   18.220   2836.10    24.8449     0.0946     0.1225     0.1822    24.8957     0.3826   291.5200    24.6042    -0.0025
  913   18.240   2837.04    25.2048     0.0948     0.1222     0.1824    25.2562     0.3784   291.8400    24.9644    -0.0024
  914   18.260   2838.02    25.5100     0.0924     0.1212     0.1826    25.5611     0.3642   292.1600    25.2689    -0.0024
  915   18.280   2838.93    25.9264     0.0875     0.1176     0.1828    25.9769     0.3397   292.4800    25.6844    -0.0024
  916   18.300   2839.87    26.4283     0.0793     0.1094     0.1830    26.4750     0.3025   292.8000    26.1822    -0.0027
  917   18.320   2840.84    26.8314     0.0720     0.0953     0.1832    26.8737     0.2695   293.1200    26.5806    -0.0031
  918   18.340   2841.78    27.0729     0.0644     0.0837     0.1834    27.1101     0.2383   293.4400    26.8167    -0.0035
  919   18.360   2842.74    27.0616     0.0581     0.0756     0.1836    27.0951     0.2143   293.7600    26.8014    -0.0039
  920   18.380   2843.69    26.8673     0.0546     0.0726     0.1838    26.8989     0.2027   294.0800    26.6048    -0.0041
  921   18.400   2844.64    26.4860     0.0546     0.0704     0.1840    26.5156     0.2047   294.4000    26.2212    -0.0043
  922   18.420   2845.60    25.7739     0.0559     0.0628     0.1842    25.8026     0.2154   294.7200    25.5079    -0.0045
  923   18.440   2846.60    25.1941     0.0573     0.0641     0.1844    25.2210     0.2261   295.0400    24.9260    -0.0048
  924   18.460   2847.54    24.5202     0.0587     0.0655     0.1846    24.5475     0.2376   295.3600    24.2521    -0.0049
  925   18.480   2848.46    23.6132     0.0620     0.0648     0.1848    23.6401     0.2611   295.6800    23.3445    -0.0052
  926   18.500   2849.37    22.6289     0.0638     0.0798     0.1850    22.6598     0.2803   296.0000    22.3638    -0.0050
  927   18.520   2859.29    21.7696     0.0647     0.0971     0.1852    21.8079     0.2888   296.3200    21.5116    -0.0043
  928   18.540   2872.66    20.9195     0.0652     0.1143     0.1854    20.9650     0.2914   296.6400    20.6683    -0.0037
  929   18.560   2886.03    20.0693     0.0626     0.1308     0.1856    20.1220     0.2797   296.9600    19.8251    -0.0030
  930   18.580   2890.42    19.1527     0.0607     0.1296     0.1858    19.2076     0.3094   297.2800    18.9103    -0.0029
  931   18.600   2891.32    18.1369     0.0575     0.1208     0.1860    18.1912     0.3095   297.6000    17.8936    -0.0032
  932   18.620   2892.28    16.9890     0.0547     0.1275     0.1862    17.0420     0.3191   297.9200    16.7441    -0.0036
  933   18.640   2893.23    15.8612     0.0530     0.1293     0.1864    15.9157     0.3316   298.2400    15.6175    -0.0036
  934   18.660   2894.14    14.5040     0.0542     0.1311     0.1866    14.5586     0.3567   298.5600    14.2600    -0.0040
  935   18.680   2895.06    13.2542     0.0547     0.1374     0.1868    13.3106     0.3975   298.8800    13.0117    -0.0040
  936   18.700   2895.97    11.8723     0.0530     0.1379     0.1870    11.9303     0.4285   299.2000    11.6311    -0.0042
  937   18.720   2896.87    10.6182     0.0511     0.1483     0.1872    10.6788     0.4635   299.5200    10.3793    -0.0041
  938   18.740   2897.84     9.4550     0.0472     0.1633     0.1874     9.5209     0.4883   299.8400     9.2210    -0.0033
  939   18.760   2898.76     8.5394     0.0440     0.1764     0.1876     8.6111     0.5069   300.1600     8.3109    -0.0020
  940   18.780   2899.75     8.1797     0.0430     0.1438     0.1878     8.2502     0.5242   300.4800     7.9497    -0.0025
  941   18.800   2900.70     8.1334     0.0372     0.1220     0.1880     8.1833     0.4563   300.8000     7.8825    -0.0088
  942   18.820   2901.70     7.9966     0.0311     0.0974     0.1882     8.0403     0.3876   301.1200     7.7392    -0.0109
  943   18.840   2902.73     7.9534     0.0290     0.0704     0.1884     7.9877     0.3641   301.4400     7.6862    -0.0139
  944   18.860   2903.73     8.0567     0.0360     0.0401     0.1886     8.0790     0.4505   301.7600     7.7773    -0.0174
  945   18.880   2904.67     8.1797     0.0491     0.0415     0.1888     8.1982     0.6035   302.0800     7.8961    -0.0183
  946   18.900   2905.65     8.2975     0.0570     0.0414     0.1890     8.3133     0.6923   302.4000     8.0109    -0.0189
  947   18.920   2906.56     8.4562     0.0552     0.0575     0.1892     8.4783     0.6597   302.7200     8.1756    -0.0167
  948   18.940   2907.50     8.6113     0.0505     0.0676     0.1894     8.6382     0.5926   303.0400     8.3352    -0.0150
  949   18.960   2908.44     8.9277     0.0507     0.0704     0.1896     8.9584     0.5733   303.3600     8.6551    -0.0134
  950   18.980   2909.36     9.2400     0.0533     0.0384     0.1898     9.2615     0.5862   303.6800     8.9579    -0.0155
  951   19.000   2910.32     9.5214     0.0555     0.0137     0.1900     9.5317     0.5933   304.0000     9.2277    -0.0179
  952   19.020   2911.19    10.0955     0.0564     0.0151     0.1902    10.0970     0.5757   304.3200     9.7927    -0.0191
  953   19.040   2912.13    11.0985     0.0607     0.0351     0.1904    11.1124     0.5678   304.6400    10.8078    -0.0146
  954   19.060   2913.06    12.2723     0.0671     0.0476     0.1906    12.2901     0.5716   304.9600    11.9851    -0.0124
  955   19.080   2914.01    13.5092     0.0765     0.0610     0.1908    13.5327     0.5878   305.2800    13.2274    -0.0102
  956   19.100   2914.95    14.7592     0.0875     0.0739     0.1910    14.7886     0.6166   305.6000    14.4830    -0.0084
  957   19.120   2915.93    16.1660     0.0971     0.0835     0.1912    16.2000     0.6283   305.9200    15.8940    -0.0070
  958   19.140   2916.89    17.6364     0.1063     0.0952     0.1914    17.6744     0.6285   306.2400    17.3681    -0.0058
  959   19.160   2917.82    18.9136     0.1169     0.1122     0.1916    18.9585     0.6383   306.5600    18.6519    -0.0045
  960   19.180   2918.79    19.9078     0.1240     0.1196     0.1918    19.9592     0.6382   306.8800    19.6523    -0.0035
  961   19.200   2919.70    20.6853     0.1294     0.0770     0.1920    20.7260     0.6351   307.2000    20.4188    -0.0047
  962   19.220   2920.60    20.8546     0.1313     0.0599     0.1922    20.8782     0.6299   307.5200    20.5706    -0.0066
  963   19.240   2921.52    20.8680     0.1355     0.0846     0.1924    20.8991     0.6497   307.8400    20.5912    -0.0058
  964   19.260   2922.48    20.9559     0.1416     0.1045     0.1926    20.9976     0.6775   308.1600    20.6894    -0.0045
  965   19.280   2923.43    21.2455     0.1448     0.1152     0.1928    21.2932     0.6868   308.4800    20.9847    -0.0038
  966   19.300   2924.34    21.5044     0.1453     0.1224     0.1930    21.5539     0.6793   308.8000    21.2451    -0.0035
  967   19.320   2925.30    21.6768     0.1430     0.1350     0.1932    21.7320     0.6618   309.1200    21.4228    -0.0029
  968   19.340   2926.27    21.6367     0.1459     0.1385     0.1934    21.6959     0.6727   309.4400    21.3865    -0.0024
  969   19.360   2927.23    21.7825     0.1498     0.1450     0.1936    21.8425     0.6919   309.7600    21.5327    -0.0024
  970   19.380   2928.18    22.4286     0.1519     0.1522     0.1938    22.4908     0.6876   310.0800    22.1807    -0.0021
  971   19.400   2929.05    22.8061     0.1540     0.1614     0.1940    22.8730     0.6799   310.4000    22.5626    -0.0015
  972   19.420   2929.97    22.7543     0.1566     0.1705     0.1942    22.8244     0.6855   310.7200    22.5136    -0.0012
  973   19.440   2930.95    22.3954     0.1607     0.1753     0.1944    22.4684     0.7124   311.0400    22.1573    -0.0009
  974   19.460   2931.88    22.1590     0.1652     0.1820     0.1946    22.2350     0.7423   311.3600    21.9236    -0.0006
  975   19.480   2932.83    21.9777     0.1691     0.1803     0.1948    22.0542     0.7676   311.6800    21.7425    -0.0006
  976   19.500   2933.74    21.7647     0.1709     0.1853     0.1950    21.8418     0.7808   312.0000    21.5298    -0.0005
  977   19.520   2934.72    21.3650     0.1694     0.1947     0.1952    21.4457     0.7868   312.3200    21.1334    -0.0001
  978   19.540   2935.63    20.8460     0.1667     0.1923     0.1954    20.9275     0.7895   312.6400    20.6149    -0.0001
  979   19.560   2936.58    20.1109     0.1608     0.1872     0.1956    20.1905     0.7846   312.9600    19.8776    -0.0003
  980   19.580   2937.53    19.3230     0.1526     0.1848     0.1958    19.4012     0.7747   313.2800    19.0879    -0.0005
  981   19.600   2938.41    18.7625     0.1414     0.1824     0.1960    18.8389     0.7440   313.6000    18.5253    -0.0008
  982   19.620   2939.41    18.3406     0.1302     0.1809     0.1962    18.4165     0.7033   313.9200    18.1026    -0.0009
  983   19.640   2940.32    17.9747     0.1214     0.1804     0.1964    18.0503     0.6675   314.2400    17.7360    -0.0009
  984   19.660   2941.27    17.4276     0.1136     0.1773     0.1966    17.5021     0.6412   314.5600    17.1875    -0.0011
  985   19.680   2942.17    16.6126     0.1060     0.1741     0.1968    16.6863     0.6223   314.8800    16.3715    -0.0013
  986   19.700   2943.15    15.8232     0.0986     0.1715     0.1970    15.8938     0.6085   315.2000    15.5786    -0.0019
  987   19.720   2944.06    15.0535     0.0924     0.1792     0.1972    15.1279     0.5993   315.5200    14.8124    -0.0013
  988   19.740   2944.96    14.4481     0.0865     0.1811     0.1974    14.5238     0.5887   315.8400    14.2079    -0.0012
  989   19.760   2945.91    14.2840     0.0738     0.1880     0.1976    14.3620     0.5154   316.1600    14.0458    -0.0009
  990   19.780   2946.86    14.4613     0.0599     0.1971     0.1978    14.5428     0.4179   316.4800    14.2263    -0.0003
  991   19.800   2947.83    14.8584     0.0503     0.1794     0.1980    14.9386     0.3442   316.8000    14.6218    -0.0005
  992   19.820   2948.78    15.6209     0.0441     0.0894     0.1982    15.6742     0.2910   317.1200    15.3571    -0.0046
  993   19.840   2949.67    16.5698     0.0351     0.0113     0.1984    16.5752     0.2184   317.4400    16.2577    -0.0114
  994   19.860   2950.58    17.1159     0.0270    -0.0151     0.1986    17.1126     0.1599   317.7600    16.7948    -0.0123
  995   19.880   2951.52    17.1982     0.0281    -0.0103     0.1988    17.1945     0.1637   318.0800    16.8765    -0.0123
  996   19.900   2952.48    17.1285     0.0315    -0.0197     0.1990    17.1191     0.1835   318.4000    16.8007    -0.0132
  997   19.920   2953.39    17.1246     0.0365     0.0098     0.1992    17.1240     0.2135   318.7200    16.8053    -0.0119
  998   19.940   2954.34    17.1936     0.0409     0.0266     0.1994    17.2023     0.2388   319.0400    16.8833    -0.0106
  999   19.960   2955.29    17.5758     0.0490     0.0507     0.1996    17.5950     0.2825   319.3600    17.2756    -0.0089
 1000   19.980   2956.19    18.1645     0.0533     0.0631     0.1998    18.1913     0.2985   319.6800    17.8716    -0.0076
 1001   20.000   2957.11    18.5922     0.0583     0.0762     0.2000    18.6222     0.3168   320.0000    18.3022    -0.0070
 1002   20.020   2958.09    19.2025     0.0607     0.0905     0.2002    19.2380     0.3201   320.3200    18.9177    -0.0061
 1003   20.040   2959.03    19.8066     0.0599     0.1099     0.2004    19.8495     0.3061   320.6400    19.5289    -0.0050
 1004   20.060   2959.99    20.3417     0.0610     0.1342     0.2006    20.3947     0.3038   320.9600    20.0738    -0.0037
 1005   20.080   2960.86    20.7352     0.0620     0.1540     0.2008    20.7975     0.3015   321.2800    20.4762    -0.0026
 1006   20.100   2961.79    20.9089     0.0616     0.1728     0.2010    20.9773     0.2959   321.6000    20.6557    -0.0019
 1007   20.120   2962.75    21.1440     0.0620     0.1588     0.2012    21.2136     0.2944   321.9200    20.8917    -0.0017
 1008   20.140   2963.66    21.3046     0.0616     0.1510     0.2014    21.3668     0.2892   322.2400    21.0445    -0.0025
 1009   20.160   2964.62    21.1232     0.0627     0.1669     0.2016    21.1914     0.2959   322.5600    20.8688    -0.0019
 1010   20.180   2965.56    20.6686     0.0649     0.1834     0.2018    20.7452     0.3134   322.8800    20.4223    -0.0009
 1011   20.200   2966.51    20.0671     0.0675     0.1856     0.2020    20.1448     0.3346   323.2000    19.8216    -0.0009
 1012   20.220   2967.43    19.3954     0.0676     0.1917     0.2022    19.4745     0.3428   323.5200    19.1510    -0.0007
 1013   20.240   2968.36    18.7810     0.0668     0.1964     0.2024    18.8630     0.3499   323.8400    18.5391    -0.0004
 1014   20.260   2969.24    18.3383     0.0635     0.2054     0.2026    18.4236     0.3430   324.1600    18.0994     0.0000
 1015   20.280   2970.17    17.9958     0.0606     0.2050     0.2028    18.0814     0.3339   324.4800    17.7569     0.0001
 1016   20.300   2971.14    17.9161     0.0589     0.2067     0.2030    18.0033     0.3295   324.8000    17.6785     0.0003
 1017   20.320   2972.06    18.0897     0.0552     0.1962     0.2032    18.1746     0.3076   325.1200    17.8495    -0.0001
 1018   20.340   2973.01    18.5851     0.0525     0.1670     0.2034    18.6606     0.2853   325.4400    18.3351    -0.0013
 1019   20.360   2973.93    19.1056     0.0535     0.1251     0.2036    19.1638     0.2880   325.7600    18.8380    -0.0034
 1020   20.380   2974.86    19.3335     0.0546     0.0981     0.2038    19.3777     0.2911   326.0800    19.0516    -0.0052
 1021   20.400   2975.79    18.9773     0.0558     0.1119     0.2040    19.0155     0.2941   326.4000    18.6891    -0.0060
 1022   20.420   2976.74    17.8893     0.0578     0.1427     0.2042    17.9488     0.3123   326.7200    17.6221    -0.0035
 1023   20.440   2977.64    16.1504     0.0646     0.1502     0.2044    16.2162     0.3805   327.0400    15.8891    -0.0030
 1024   20.460   2984.49    14.6390     0.0620     0.1607     0.2046    14.7035     0.4046   327.3600    14.3761    -0.0034
 1025   20.480   2998.73    13.1159     0.0637     0.1811     0.2048    13.1890     0.4157   327.6800    12.8613    -0.0020
 1026   20.500   3012.98    11.5927     0.0748     0.2016     0.2050    11.6744     0.4884   328.0000    11.3464    -0.0006
 1027   20.520   3023.94    10.2689     0.0970     0.2280     0.2052    10.3605     0.8499   328.3200    10.0321     0.0013
 1028   20.540   3024.92     9.3676     0.1050     0.2170     0.2054     9.4626     1.0713   328.6400     9.1340     0.0023
 1029   20.560   3025.84     8.1921     0.0926     0.1743     0.2056     8.2737     1.0695   328.9600     7.9448    -0.0015
 1030   20.580   3026.78     7.2345     0.0871     0.1741     0.2058     7.3055     1.1513   329.2800     6.9762    -0.0053
 1031   20.600   3027.69     6.2800     0.0862     0.2119     0.2060     6.3645     1.3084   329.6000     6.0349    -0.0008
 1032   20.620   3028.63     5.2306     0.0918     0.2214     0.2062     5.3118     1.6479   329.9200     4.9819    -0.0026
 1033   20.640   3029.64     4.2285     0.0830     0.2822     0.2064     4.3444     1.8422   330.2400     4.0142     0.0174
 1034   20.660   3030.60     3.2964     0.0548     0.3504     0.2066     3.4287     1.5613   330.5600     3.0982     0.0354
 1035   20.680   3031.54     2.5138     0.0427     0.4460     0.2068     2.6925     1.5960   330.8800     2.3616     0.0933
 1036   20.700   3032.48     1.9653     0.0436     0.4847     0.2070     2.1578     2.0949   331.2000     1.8266     0.1382
 1037   20.720   3033.45     1.5393     0.0428     0.6621     0.2072     1.7922     2.6277   331.5200     1.4607     0.2722
 1038   20.740   3034.45     1.3058     0.0399     0.7886     0.2074     1.6226     2.9455   331.8400     1.2908     0.4245
 1039   20.760   3035.49     1.2225     0.0392     0.8111     0.2076     1.5626     3.1948   332.1600     1.2304     0.4893
 1040   20.780   3036.46     1.2326     0.0376     0.8184     0.2078     1.5746     3.0674   332.4800     1.2421     0.4882
 1041   20.800   3037.41     1.2502     0.0360     0.8192     0.2080     1.5953     2.8921   332.8000     1.2625     0.4861
 1042   20.820   3038.32     1.2458     0.0360     0.8236     0.2082     1.5905     2.8645   333.1200     1.2574     0.4872
 1043   20.840   3039.30     1.1793     0.0352     0.8226     0.2084     1.5244     2.9332   333.4400     1.1910     0.5151
 1044   20.860   3040.29     1.1333     0.0351     0.8329     0.2086     1.4803     3.0687   333.7600     1.1465     0.5386
 1045   20.880   3041.25     1.1296     0.0393     0.8697     0.2088     1.4906     3.5083   334.0800     1.1566     0.5628
 1046   20.900   3042.18     1.2628     0.0412     0.8505     0.2090     1.6262     3.3516   334.4000     1.2918     0.5082
 1047   20.920   3043.13     1.6115     0.0445     0.7995     0.2092     1.9579     2.9615   334.7200     1.6232     0.3797
 1048   20.940   3044.13     2.3343     0.0489     0.7082     0.2094     2.6480     2.3163   335.0400     2.3129     0.2329
 1049   20.960   3045.13     3.3681     0.0463     0.5894     0.2096     3.6325     1.5470   335.3600     3.2971     0.1277
 1050   20.980   3046.10     4.8525     0.0463     0.5103     0.2098     5.0729     1.0697   335.6800     4.7372     0.0667
 1051   21.000   3047.06     6.1809     0.0543     0.4081     0.2100     6.3736     0.9484   336.0000     6.0376     0.0414
 1052   21.020   3048.05     7.1155     0.0663     0.2741     0.2102     7.2466     0.9674   336.3200     6.9102     0.0148
 1053   21.040   3049.00     7.5998     0.0766     0.2338     0.2104     7.6991     1.0253   336.6400     7.3624     0.0035
 1054   21.060   3049.98     7.8822     0.0811     0.2414     0.2106     7.9827     1.0403   336.9600     7.6458     0.0038
 1055   21.080   3050.92     8.1772     0.0771     0.2370     0.2108     8.2777     0.9544   337.2800     7.9404     0.0036
 1056   21.100   3051.88     8.5852     0.0767     0.2317     0.2110     8.6836     0.9077   337.6000     8.3460     0.0028
 1057   21.120   3052.84     9.1106     0.0765     0.2006     0.2112     9.2008     0.8500   337.9200     8.8628     0.0004
 1058   21.140   3053.81     9.6263     0.0809     0.1027     0.2114     9.6856     0.8532   338.2400     9.3474    -0.0075
 1059   21.160   3054.76    10.0128     0.0837     0.0513     0.2116    10.0375     0.8434   338.5600     9.6989    -0.0158
 1060   21.180   3055.75    10.2017     0.0888     0.0784     0.2118    10.2315     0.8756   338.8800     9.8926    -0.0142
 1061   21.200   3056.74    10.3594     0.0947     0.0939     0.2120    10.3968     0.9195   339.2000    10.0576    -0.0122
 1062   21.220   3057.74    10.5158     0.0989     0.1105     0.2122    10.5607     0.9468   339.5200    10.2212    -0.0103
 1063   21.240   3058.69    10.7656     0.1023     0.1183     0.2124    10.8136     0.9605   339.8400    10.4737    -0.0094
 1064   21.260   3059.60    10.8221     0.1048     0.1325     0.2126    10.8749     0.9675   340.1600    10.5348    -0.0082
 1065   21.280   3060.55    10.8385     0.1083     0.1459     0.2128    10.8989     1.0025   340.4800    10.5585    -0.0065
 1066   21.300   3061.50    10.7832     0.1136     0.1509     0.2130    10.8455     1.0492   340.8000    10.5047    -0.0061
 1067   21.320   3062.43    10.6695     0.1138     0.1605     0.2132    10.7352     1.0612   341.1200    10.3941    -0.0055
 1068   21.340   3063.40    10.4680     0.1141     0.1724     0.2134    10.5383     1.0810   341.4400    10.1968    -0.0045
 1069   21.360   3064.33    10.2941     0.1135     0.1876     0.2136    10.3710     1.0956   341.7600    10.0293    -0.0030
 1070   21.380   3065.29    10.1312     0.1153     0.2015     0.2138    10.2142     1.1328   342.0800     9.8721    -0.0016
 1071   21.400   3066.23     9.9933     0.1166     0.2082     0.2140    10.0797     1.1624   342.4000     9.7373    -0.0009
 1072   21.420   3067.23     9.9668     0.1148     0.2043     0.2142    10.0521     1.1509   342.7200     9.7094    -0.0011
 1073   21.440   3068.14     9.9100     0.1105     0.2042     0.2144     9.9958     1.1120   343.0400     9.6527    -0.0011
 1074   21.460   3069.08     9.9001     0.1045     0.2135     0.2146     9.9874     1.0539   343.3600     9.6441    -0.0007
 1075   21.480   3070.06     9.9280     0.1010     0.2146     0.2148    10.0202     1.0198   343.6800     9.6765     0.0005
 1076   21.500   3070.98    10.0000     0.1010     0.2050     0.2150    10.0867     1.0096   344.0000     9.7427    -0.0009
 1077   21.520   3071.92    10.0297     0.1026     0.2010     0.2152    10.1151     1.0241   344.3200     9.7708    -0.0012
 1078   21.540   3072.84    10.0856     0.1041     0.1822     0.2154    10.1645     1.0343   344.6400     9.8199    -0.0028
 1079   21.560   3073.77    10.0856     0.1043     0.1914     0.2156    10.1636     1.0328   344.9600     9.8186    -0.0030
 1080   21.580   3074.70    10.0704     0.1070     0.2087     0.2158    10.1543     1.0615   345.2800     9.8090    -0.0016
 1081   21.600   3075.65    10.0068     0.1115     0.2237     0.2160    10.0986     1.1119   345.6000     9.7529     0.0002
 1082   21.620   3076.67     9.8660     0.1147     0.2354     0.2162     9.9642     1.1551   345.9200     9.6182     0.0018
 1083   21.640   3077.62     9.6530     0.1157     0.2410     0.2164     9.7537     1.1842   346.2400     9.4074     0.0025
 1084   21.660   3078.57     9.4983     0.1134     0.2464     0.2166     9.6006     1.1813   346.5600     9.2541     0.0029
 1085   21.680   3079.48     9.3542     0.1082     0.2558     0.2168     9.4600     1.1484   346.8800     9.1131     0.0039
 1086   21.700   3080.45     9.2525     0.1036     0.2629     0.2170     9.3629     1.1156   347.2000     9.0157     0.0051
 1087   21.720   3081.39     9.1895     0.1006     0.2563     0.2172     9.2972     1.0901   347.5200     8.9497     0.0044
 1088   21.740   3082.30     9.0778     0.1003     0.2623     0.2174     9.1886     1.0995   347.8400     8.8407     0.0052
 1089   21.760   3083.25     8.9748     0.1037     0.2609     0.2176     9.0852     1.1479   348.1600     8.7371     0.0052
 1090   21.780   3084.18     8.8309     0.1077     0.2683     0.2178     8.9429     1.2111   348.4800     8.5944     0.0057
 1091   21.800   3085.11     8.6433     0.1081     0.2746     0.2180     8.7574     1.2433   348.8000     8.4086     0.0064
 1092   21.820   3086.06     8.3586                0.2801     0.2182     8.4758              349.1200     8.1267     0.0075
 1093   21.840   3087.02     8.0766                0.2866     0.2184     8.1953              349.4400     7.8459     0.0082
 1094   21.860   3087.97     7.8427                0.2981     0.2186     7.9667              349.7600     7.6170     0.0101
 1095   21.880   3088.98     7.6293                0.2955     0.2188     7.7549              350.0800     7.4048     0.0108
 1096   21.900   3089.95     7.4407                0.2734     0.2190     7.5586              350.4000     7.2082     0.0086
 1097   21.920   3090.89     7.2022                           0.2192     7.3155              350.7200     6.9647     0.0072
 
 
