

 Program UNIPLOT                         version 05.36.02
 _______________
 (c) Fugro Netherlands Marine, Nootdorp, The Netherlands


 ASCII representation of data plotted on a graph.

 This ASCII file presents data interpolated to values per fixed depth interval.
 The data are corrected for the depth-offset differences between the various 
 transducers in the penetrometer.

 The records at the start of penetration may include no values or anomalous
 values where a depth offset implies incomplete penetration of a particular
 sensor into the ground.

 The records at the end of penetration may include no values for data channels
 where the transducer did not reach this depth.

 The reference level for test values is (1) the ground surface for onshore tests and (2) the seafloor for nearshore and offshore tests.

 UNICAS data file          : CPT-1004.000                            
 Output using command file : PlotASCII.cmd

 ASCII file created at : date          :05-Jul-2022
                         time          :21:33:44
 Project number                        :20024805                                                                                            
 Date of testing                       :26-Jun-2022                                                                                         
 Location                              :Hong Kong Offshore Wind Farm Project                                                                
 Test name                             :CPT-1004
 Penetrometer                          :F7.5CKE2HAW2/B/3285
 Serial no                             :1701-3285

 Table description:
 Column ID                             :Parameter name
 ___________________________________________________________________________________
 Rec                                   :Record ID, Record ID [-]
 Depth                                 :Depth, Depth [m]
 Time                                  :Time, Time [s]
 Cone                                  :Cone Resistance, Cone Resistance [MPa]
 Friction                              :Sleeve Friction, Sleeve Friction [MPa]
 Pore 2                                :Porewater Pressure, Porewater Pressure at Shoulder [MPa]
 HydroPress                            :Hydrostatic Pressure, Hydrostatic Pressure [MPa]
 qt                                    :Total Cone Resistance, Total Cone Resistance [MPa]
 Fric_ratio                            :Friction Ratio, Friction Ratio [%]
 SigmaVert                             :Vertical stress, Vertical stress [kPa] as specified in ground model
 Qnet                                  :Net Cone Resistance, Net Cone Resistance [MPa], unit weight as specified in ground model
 Bq                                    :Porewater Pressure Ratio, Porewater Pressure Ratio [-], unit weight as specified in ground model


 Data table:
  Rec    Depth      Time       Cone   Friction     Pore 2 HydroPress         qt Fric_ratio  SigmaVert       Qnet         Bq
   No        m         s        MPa        MPa        MPa        MPa        MPa          %        kPa        MPa          -
    1    0.000   1980.72     0.0000                           0.0000     0.0000                0.0000     0.0000           
    2    0.020   1981.69     0.0014                0.0000     0.0002     0.0014                0.3200     0.0011    -0.0499
    3    0.040   1982.67     0.0011                0.0000     0.0004     0.0011                0.6400     0.0005    -2.7198
    4    0.060   1983.65     0.0018     0.0003    -0.0001     0.0006     0.0018    13.8183     0.9600     0.0008    -1.0016
    5    0.080   1984.63     0.0035     0.0005    -0.0004     0.0008     0.0034    16.6973     1.2800     0.0021    -0.5186
    6    0.100   1985.56     0.0063     0.0007    -0.0006     0.0010     0.0060    10.1917     1.6000     0.0044    -0.3699
    7    0.120   1986.51     0.0047     0.0007    -0.0018     0.0012     0.0042    11.0506     1.9200     0.0023    -2.1717
    8    0.140   1987.52     0.0076     0.0007    -0.0008     0.0014     0.0071     9.7807     2.2400     0.0049    -0.5163
    9    0.160   1988.48     0.0058     0.0007    -0.0008     0.0016     0.0054    13.1317     2.5600     0.0028    -1.0190
   10    0.180   1989.43     0.0089     0.0008     0.0000     0.0018     0.0088     8.9365     2.8800     0.0059    -0.3615
   11    0.200   1990.39     0.0076     0.0007     0.0000     0.0020     0.0076     8.9916     3.2000     0.0044    -0.4441
   12    0.220   1991.37     0.0085     0.0008     0.0017     0.0022     0.0089     9.7880     3.5200     0.0054    -0.1912
   13    0.240   1992.32     0.0111     0.0010     0.0019     0.0024     0.0119    10.7692     3.8400     0.0081    -0.0501
   14    0.260   1993.29     0.0103     0.0008     0.0009     0.0026     0.0107     7.0845     4.1600     0.0066    -0.2455
   15    0.280   1994.23     0.0120     0.0009     0.0011     0.0028     0.0124     8.2619     4.4800     0.0080    -0.2285
   16    0.300   1995.19     0.0141     0.0009     0.0014     0.0030     0.0145     7.2962     4.8000     0.0097    -0.2065
   17    0.320   1996.16     0.0132     0.0011     0.0021     0.0032     0.0139    10.2540     5.1200     0.0088    -0.1673
   18    0.340   1997.14     0.0109     0.0011     0.0026     0.0034     0.0120     9.6784     5.4400     0.0065    -0.1214
   19    0.360   1998.06     0.0140     0.0006     0.0022     0.0036     0.0150     6.1851     5.7600     0.0092    -0.1450
   20    0.380   1999.02     0.0148     0.0007     0.0031     0.0038     0.0160     4.9621     6.0800     0.0099    -0.1016
   21    0.400   1999.99     0.0144     0.0009     0.0041     0.0040     0.0160     7.8723     6.4000     0.0096    -0.0273
   22    0.420   2000.94     0.0135     0.0011     0.0044     0.0042     0.0152     7.9062     6.7200     0.0085    -0.0039
   23    0.440   2001.91     0.0155     0.0011     0.0038     0.0044     0.0173     6.6464     7.0400     0.0103    -0.0286
   24    0.460   2002.86     0.0169     0.0009     0.0027     0.0046     0.0180     5.5526     7.3600     0.0107    -0.1838
   25    0.480   2003.87     0.0153     0.0010     0.0029     0.0048     0.0164     6.8948     7.6800     0.0088    -0.2352
   26    0.500   2004.85     0.0134     0.0010     0.0049     0.0050     0.0152     7.1146     8.0000     0.0072    -0.0864
   27    0.520   2005.77     0.0158     0.0009     0.0058     0.0052     0.0181     6.2379     8.3200     0.0098     0.0315
   28    0.540   2006.73     0.0141     0.0008     0.0063     0.0054     0.0165     5.9522     8.6400     0.0078     0.0405
   29    0.560   2007.73     0.0161     0.0010     0.0067     0.0056     0.0191     7.2332     8.9600     0.0101     0.1430
   30    0.580   2008.67     0.0180     0.0008     0.0063     0.0058     0.0206     4.3679     9.2800     0.0113     0.0362
   31    0.600   2009.65     0.0168     0.0009     0.0072     0.0060     0.0197     6.3815     9.6000     0.0101     0.0851
   32    0.620   2010.61     0.0172     0.0008     0.0072     0.0062     0.0202     4.8673     9.9200     0.0103     0.1086
   33    0.640   2011.58     0.0160     0.0010     0.0078     0.0064     0.0191     5.4833    10.2400     0.0089     0.1231
   34    0.660   2012.52     0.0135     0.0009     0.0087     0.0066     0.0171     6.1878    10.5600     0.0065     0.2956
   35    0.680   2013.48     0.0152     0.0009     0.0091     0.0068     0.0189     5.9878    10.8800     0.0080     0.2646
   36    0.700   2014.46     0.0136     0.0008     0.0095     0.0070     0.0175     5.6768    11.2000     0.0063     0.3772
   37    0.720   2015.41     0.0162     0.0009     0.0095     0.0072     0.0201     5.9728    11.5200     0.0086     0.2419
   38    0.740   2016.37     0.0173     0.0008     0.0101     0.0074     0.0214     4.8793    11.8400     0.0095     0.2392
   39    0.760   2017.34     0.0208     0.0008     0.0112     0.0076     0.0253     4.3504    12.1600     0.0132     0.2304
   40    0.780   2018.28     0.0206     0.0011     0.0111     0.0078     0.0253     5.3641    12.4800     0.0128     0.2674
   41    0.800   2019.25     0.0256     0.0008     0.0082     0.0080     0.0294     3.4133    12.8000     0.0166     0.0631
   42    0.820   2020.21     0.0244     0.0012     0.0089     0.0082     0.0280     5.2379    13.1200     0.0149     0.0367
   43    0.840   2021.19     0.0253     0.0012     0.0108     0.0084     0.0295     4.9526    13.4400     0.0160     0.0932
   44    0.860   2022.15     0.0283     0.0012     0.0119     0.0086     0.0331     4.3858    13.7600     0.0193     0.1478
   45    0.880   2023.07     0.0289     0.0012     0.0132     0.0088     0.0343     3.8237    14.0800     0.0202     0.2051
   46    0.900   2024.03     0.0306     0.0014     0.0128     0.0090     0.0361     4.8472    14.4000     0.0217     0.1851
   47    0.920   2025.01     0.0327     0.0015     0.0121     0.0092     0.0379     4.3384    14.7200     0.0232     0.1366
   48    0.940   2025.99     0.0356     0.0015     0.0118     0.0094     0.0407     4.2492    15.0400     0.0256     0.1072
   49    0.960   2026.95     0.0396     0.0013     0.0109     0.0096     0.0443     3.4142    15.3600     0.0289     0.0502
   50    0.980   2027.92     0.0418     0.0020     0.0101     0.0098     0.0463     5.1354    15.6800     0.0306     0.0289
   51    1.000   2028.90     0.0459     0.0023     0.0073     0.0100     0.0494     5.0956    16.0000     0.0334    -0.0436
   52    1.020   2029.86     0.0480     0.0025     0.0065     0.0102     0.0510     5.1369    16.3200     0.0347    -0.0859
   53    1.040   2030.86     0.0489     0.0024     0.0028     0.0104     0.0504     4.9956    16.6400     0.0338    -0.1980
   54    1.060   2031.80     0.0510     0.0025     0.0021     0.0106     0.0519     5.1281    16.9600     0.0350    -0.2397
   55    1.080   2032.78     0.0479     0.0022     0.0068     0.0108     0.0499     4.3995    17.2800     0.0327    -0.1813
   56    1.100   2033.72     0.0456     0.0020     0.0101     0.0110     0.0493     4.4538    17.6000     0.0317    -0.0670
   57    1.120   2034.74     0.0417     0.0021     0.0124     0.0112     0.0466     4.7108    17.9200     0.0287     0.0185
   58    1.140   2035.65     0.0443     0.0019     0.0130     0.0114     0.0496     4.3137    18.2400     0.0314     0.0455
   59    1.160   2036.63     0.0395     0.0018     0.0145     0.0116     0.0454     4.3051    18.5600     0.0269     0.0967
   60    1.180   2037.57     0.0391     0.0017     0.0145     0.0118     0.0449     4.2125    18.8800     0.0260     0.0798
   61    1.200   2038.55     0.0411     0.0017     0.0171     0.0120     0.0480     4.0449    19.2000     0.0288     0.1587
   62    1.220   2039.52     0.0435     0.0017     0.0192     0.0122     0.0511     4.0073    19.5200     0.0315     0.1872
   63    1.240   2040.48     0.0463     0.0018     0.0177     0.0124     0.0544     4.1182    19.8400     0.0346     0.2006
   64    1.260   2041.45     0.0492     0.0017     0.0172     0.0126     0.0564     3.5369    20.1600     0.0362     0.1265
   65    1.280   2042.40     0.0477     0.0015     0.0172     0.0128     0.0549     3.1166    20.4800     0.0344     0.1263
   66    1.300   2043.35     0.0508     0.0018     0.0186     0.0130     0.0583     3.5822    20.8000     0.0375     0.1332
   67    1.320   2044.34     0.0502     0.0018     0.0210     0.0132     0.0586     3.5089    21.1200     0.0374     0.1809
   68    1.340   2045.29     0.0537     0.0020     0.0218     0.0134     0.0628     3.7139    21.4400     0.0413     0.1987
   69    1.360   2046.23     0.0537     0.0018     0.0222     0.0136     0.0633     3.4774    21.7600     0.0415     0.2212
   70    1.380   2047.18     0.0544     0.0021     0.0182     0.0138     0.0625     3.8656    22.0800     0.0404     0.1349
   71    1.400   2048.16     0.0541     0.0020     0.0176     0.0140     0.0614     3.5735    22.4000     0.0390     0.0853
   72    1.420   2049.12     0.0550     0.0018     0.0198     0.0142     0.0629     3.3105    22.7200     0.0402     0.1139
   73    1.440   2050.13     0.0548     0.0019     0.0222     0.0144     0.0638     3.4412    23.0400     0.0408     0.1730
   74    1.460   2051.10     0.0572     0.0020     0.0238     0.0146     0.0671     3.5231    23.3600     0.0437     0.2031
   75    1.480   2052.06     0.0571     0.0020     0.0234     0.0148     0.0671     3.4849    23.6800     0.0434     0.2046
   76    1.500   2053.03     0.0580     0.0025     0.0209     0.0150     0.0673     4.1816    24.0000     0.0433     0.1673
   77    1.520   2054.00     0.0617     0.0026     0.0173     0.0152     0.0692     4.1693    24.3200     0.0448     0.0563
   78    1.540   2054.95     0.0620     0.0025     0.0191     0.0154     0.0688     3.9885    24.6400     0.0442     0.0229
   79    1.560   2055.94     0.0614     0.0027     0.0150     0.0156     0.0681     4.4504    24.9600     0.0432     0.0075
   80    1.580   2056.91     0.0615     0.0026     0.0169     0.0158     0.0682     4.2629    25.2800     0.0430     0.0038
   81    1.600   2057.86     0.0616     0.0024     0.0202     0.0160     0.0696     3.9823    25.6000     0.0440     0.0686
   82    1.620   2058.86     0.0701     0.0024     0.0224     0.0162     0.0789     3.5348    25.9200     0.0530     0.0876
   83    1.640   2059.82     0.0759     0.0024     0.0222     0.0164     0.0843     3.2912    26.2400     0.0581     0.0637
   84    1.660   2060.74     0.0834     0.0025     0.0192     0.0166     0.0918     3.0988    26.5600     0.0653     0.0530
   85    1.680   2061.73     0.0870     0.0025     0.0172     0.0168     0.0948     2.9065    26.8800     0.0679     0.0252
   86    1.700   2062.68     0.0871     0.0024     0.0149     0.0170     0.0937     2.7509    27.2000     0.0665    -0.0198
   87    1.720   2063.62     0.0883     0.0024     0.0137     0.0172     0.0942     2.7430    27.5200     0.0667    -0.0443
   88    1.740   2068.85     0.0952     0.0026     0.0156     0.0174     0.1013     2.7692    27.8400     0.0734    -0.0407
   89    1.760   2080.89     0.0958     0.0030     0.0188     0.0176     0.1032     3.1615    28.1600     0.0751    -0.0004
   90    1.780   2092.92     0.0963     0.0031     0.0221     0.0178     0.1051     3.2569    28.4800     0.0767     0.0398
   91    1.800   2100.11     0.0950     0.0029     0.0208     0.0180     0.1041     3.0354    28.8000     0.0753     0.0470
   92    1.820   2101.11     0.0868     0.0029     0.0158     0.0182     0.0945     3.2796    29.1200     0.0654     0.0019
   93    1.840   2102.12     0.0883     0.0034     0.0184     0.0184     0.0927     3.8987    29.4400     0.0632    -0.1272
   94    1.860   2103.07     0.0860     0.0032     0.0247     0.0186     0.0971     3.8559    29.7600     0.0673     0.1165
   95    1.880   2104.04     0.0879     0.0028     0.0238     0.0188     0.0981     3.1134    30.0800     0.0680     0.0799
   96    1.900   2105.01     0.0870     0.0027     0.0241     0.0190     0.0970     3.0648    30.4000     0.0666     0.0711
   97    1.920   2105.95     0.0875     0.0028     0.0263     0.0192     0.0980     3.1829    30.7200     0.0673     0.0886
   98    1.940   2106.91     0.0862     0.0029     0.0293     0.0194     0.0983     3.2958    31.0400     0.0673     0.1408
   99    1.960   2107.91     0.0828     0.0028     0.0317     0.0196     0.0957     3.4046    31.3600     0.0643     0.1734
  100    1.980   2108.87     0.0816     0.0030     0.0301     0.0198     0.0947     3.6379    31.6800     0.0630     0.1784
  101    2.000   2109.87     0.0820     0.0031     0.0289     0.0200     0.0940     3.8567    32.0000     0.0620     0.1363
  102    2.020   2110.84     0.0870     0.0031     0.0332     0.0202     0.1003     3.6383    32.3200     0.0679     0.1680
  103    2.040   2111.78     0.0890     0.0031     0.0385     0.0204     0.1045     3.5745    32.6400     0.0719     0.2314
  104    2.060   2112.77     0.0966     0.0030     0.0440     0.0206     0.1144     3.1462    32.9600     0.0815     0.2668
  105    2.080   2113.71     0.0963     0.0029     0.0484     0.0208     0.1161     3.0364    33.2800     0.0828     0.3177
  106    2.100   2114.72     0.0991     0.0031     0.0523     0.0210     0.1204     3.1385    33.6000     0.0868     0.3415
  107    2.120   2115.64     0.1029     0.0032     0.0536     0.0212     0.1254     3.2286    33.9200     0.0915     0.3547
  108    2.140   2116.62     0.1022     0.0031     0.0505     0.0214     0.1244     3.1148    34.2400     0.0901     0.3483
  109    2.160   2117.55     0.0968     0.0030     0.0407     0.0216     0.1151     3.0534    34.5600     0.0806     0.2718
  110    2.180   2118.51     0.0937     0.0031     0.0377     0.0218     0.1097     3.2656    34.8800     0.0749     0.2189
  111    2.200   2119.47     0.0933     0.0032     0.0393     0.0220     0.1096     3.4791    35.2000     0.0744     0.2251
  112    2.220   2120.43     0.0948     0.0032     0.0434     0.0222     0.1121     3.4282    35.5200     0.0766     0.2463
  113    2.240   2121.40     0.0977     0.0032     0.0447     0.0224     0.1165     3.3481    35.8400     0.0807     0.2790
  114    2.260   2122.33     0.1009     0.0031     0.0412     0.0226     0.1183     3.1036    36.1600     0.0821     0.2281
  115    2.280   2123.34     0.0994     0.0031     0.0434     0.0228     0.1174     3.1201    36.4800     0.0810     0.2504
  116    2.300   2124.28     0.0953     0.0033     0.0473     0.0230     0.1143     3.5101    36.8000     0.0775     0.2876
  117    2.320   2125.22     0.0964     0.0035     0.0524     0.0232     0.1177     3.6006    37.1200     0.0806     0.3431
  118    2.340   2126.21     0.0985     0.0031     0.0551     0.0234     0.1216     3.1542    37.4400     0.0841     0.3738
  119    2.360   2127.14     0.0976     0.0033     0.0559     0.0236     0.1210     3.3441    37.7600     0.0833     0.3860
  120    2.380   2128.11     0.1010     0.0034     0.0547     0.0238     0.1241     3.2663    38.0800     0.0860     0.3629
  121    2.400   2129.10     0.1002     0.0030     0.0554     0.0240     0.1233     2.9205    38.4000     0.0849     0.3644
  122    2.420   2130.06     0.1009     0.0028     0.0562     0.0242     0.1246     2.7362    38.7200     0.0858     0.3738
  123    2.440   2131.03     0.1032     0.0032     0.0576     0.0244     0.1270     3.1021    39.0400     0.0880     0.3666
  124    2.460   2132.00     0.1071     0.0033     0.0588     0.0246     0.1320     3.1184    39.3600     0.0927     0.3755
  125    2.480   2132.97     0.1116     0.0034     0.0557     0.0248     0.1354     3.0846    39.6800     0.0957     0.3330
  126    2.500   2133.92     0.1180     0.0036     0.0490     0.0250     0.1395     3.0485    40.0000     0.0995     0.2647
  127    2.520   2134.91     0.1146     0.0036     0.0439     0.0252     0.1338     3.1298    40.3200     0.0934     0.2174
  128    2.540   2135.88     0.1090     0.0037     0.0457     0.0254     0.1281     3.3364    40.6400     0.0874     0.2300
  129    2.560   2136.83     0.1045     0.0035     0.0478     0.0256     0.1243     3.2751    40.9600     0.0834     0.2590
  130    2.580   2137.80     0.1019     0.0035     0.0504     0.0258     0.1230     3.4302    41.2800     0.0818     0.2997
  131    2.600   2138.73     0.0943     0.0035     0.0512     0.0260     0.1155     3.5843    41.6000     0.0739     0.3322
  132    2.620   2139.73     0.0878     0.0032     0.0522     0.0262     0.1096     3.6605    41.9200     0.0677     0.3792
  133    2.640   2140.67     0.0860     0.0030     0.0544     0.0264     0.1084     3.5530    42.2400     0.0662     0.4078
  134    2.660   2141.63     0.0875     0.0029     0.0579     0.0266     0.1113     3.4910    42.5600     0.0687     0.4374
  135    2.680   2142.59     0.0904     0.0030     0.0620     0.0268     0.1158     3.3464    42.8800     0.0730     0.4610
  136    2.700   2143.55     0.0917     0.0030     0.0650     0.0270     0.1187     3.3074    43.2000     0.0755     0.4953
  137    2.720   2144.49     0.0934     0.0031     0.0642     0.0272     0.1207     3.3597    43.5200     0.0771     0.4884
  138    2.740   2145.47     0.0915     0.0036     0.0570     0.0274     0.1169     3.9037    43.8400     0.0730     0.4507
  139    2.760   2146.48     0.0917     0.0037     0.0507     0.0276     0.1137     3.9253    44.1600     0.0696     0.3571
  140    2.780   2147.42     0.0862     0.0038     0.0463     0.0278     0.1063     4.3043    44.4800     0.0619     0.3265
  141    2.800   2148.38     0.0846     0.0037     0.0455     0.0280     0.1040     4.3580    44.8000     0.0592     0.3071
  142    2.820   2149.35     0.0885     0.0036     0.0425     0.0282     0.1066     4.1688    45.1200     0.0615     0.2418
  143    2.840   2150.33     0.0961     0.0032     0.0499     0.0284     0.1158     3.4296    45.4400     0.0703     0.2609
  144    2.860   2151.27     0.1015     0.0032     0.0536     0.0286     0.1237     3.1788    45.7600     0.0779     0.3121
  145    2.880   2152.25     0.1030     0.0033     0.0575     0.0288     0.1266     3.2375    46.0800     0.0805     0.3409
  146    2.900   2153.21     0.1087     0.0038     0.0584     0.0290     0.1339     3.6158    46.4000     0.0875     0.3528
  147    2.920   2154.19     0.1104     0.0039     0.0543     0.0292     0.1337     3.6174    46.7200     0.0870     0.3026
  148    2.940   2155.16     0.1111     0.0042     0.0512     0.0294     0.1328     3.8347    47.0400     0.0858     0.2605
  149    2.960   2156.14     0.1107     0.0039     0.0485     0.0296     0.1315     3.5441    47.3600     0.0842     0.2367
  150    2.980   2157.11     0.1038     0.0040     0.0487     0.0298     0.1241     3.6827    47.6800     0.0764     0.2421
  151    3.000   2158.10     0.0982     0.0037     0.0501     0.0300     0.1190     3.7362    48.0000     0.0710     0.2762
  152    3.020   2159.05     0.0968     0.0038     0.0523     0.0302     0.1184     3.9867    48.3200     0.0700     0.3004
  153    3.040   2159.98     0.0952     0.0038     0.0566     0.0304     0.1184     4.0104    48.6400     0.0698     0.3552
  154    3.060   2160.96     0.0964     0.0034     0.0607     0.0306     0.1213     3.5898    48.9600     0.0723     0.3968
  155    3.080   2161.94     0.1001     0.0033     0.0639     0.0308     0.1265     3.2697    49.2800     0.0772     0.4160
  156    3.100   2162.91     0.1013     0.0030     0.0666     0.0310     0.1289     3.0088    49.6000     0.0793     0.4374
  157    3.120   2163.90     0.1002     0.0032     0.0687     0.0312     0.1288     3.1300    49.9200     0.0789     0.4693
  158    3.140   2164.85     0.1031     0.0035     0.0734     0.0314     0.1333     3.4386    50.2400     0.0831     0.4870
  159    3.160   2165.81     0.1057     0.0034     0.0736     0.0316     0.1368     3.2013    50.5600     0.0863     0.4934
  160    3.180   2166.74     0.1004     0.0031     0.0666     0.0318     0.1294     3.0025    50.8800     0.0785     0.4740
  161    3.200   2167.73     0.1024     0.0031     0.0649     0.0320     0.1294     2.9963    51.2000     0.0782     0.4140
  162    3.220   2168.68     0.1028     0.0032     0.0679     0.0322     0.1307     3.1072    51.5200     0.0792     0.4325
  163    3.240   2169.64     0.1074     0.0036     0.0717     0.0324     0.1371     3.3279    51.8400     0.0852     0.4491
  164    3.260   2170.61     0.1071     0.0037     0.0699     0.0326     0.1374     3.4598    52.1600     0.0852     0.4642
  165    3.280   2171.55     0.1035     0.0037     0.0612     0.0328     0.1303     3.5698    52.4800     0.0778     0.3981
  166    3.300   2172.53     0.1014     0.0035     0.0581     0.0330     0.1261     3.4387    52.8000     0.0733     0.3495
  167    3.320   2173.49     0.1010     0.0035     0.0585     0.0332     0.1255     3.4766    53.1200     0.0724     0.3471
  168    3.340   2174.46     0.1006     0.0040     0.0631     0.0334     0.1266     3.9788    53.4400     0.0731     0.3875
  169    3.360   2175.42     0.0985     0.0037     0.0658     0.0336     0.1257     3.6723    53.7600     0.0720     0.4354
  170    3.380   2176.38     0.0971     0.0035     0.0689     0.0338     0.1256     3.5614    54.0800     0.0715     0.4772
  171    3.400   2177.35     0.0969     0.0031     0.0741     0.0340     0.1273     3.2467    54.4000     0.0729     0.5264
  172    3.420   2178.33     0.1036     0.0030     0.0779     0.0342     0.1357     2.9498    54.7200     0.0810     0.5216
  173    3.440   2179.33     0.1077     0.0031     0.0815     0.0344     0.1416     2.8496    55.0400     0.0866     0.5358
  174    3.460   2180.24     0.1088     0.0031     0.0798     0.0346     0.1426     2.8852    55.3600     0.0873     0.5272
  175    3.480   2181.25     0.1105     0.0035     0.0768     0.0348     0.1436     3.2116    55.6800     0.0879     0.5012
  176    3.500   2182.19     0.1126     0.0035     0.0706     0.0350     0.1433     3.1454    56.0000     0.0873     0.4354
  177    3.520   2183.16     0.1118     0.0036     0.0647     0.0352     0.1397     3.1999    56.3200     0.0834     0.3730
  178    3.540   2184.16     0.1115     0.0038     0.0636     0.0354     0.1381     3.4408    56.6400     0.0814     0.3434
  179    3.560   2185.11     0.1106     0.0038     0.0621     0.0356     0.1369     3.6121    56.9600     0.0799     0.3368
  180    3.580   2186.10     0.1029     0.0039     0.0646     0.0358     0.1295     3.7835    57.2800     0.0722     0.3822
  181    3.600   2187.04     0.1039     0.0038     0.0656     0.0360     0.1315     3.7187    57.6000     0.0739     0.4048
  182    3.620   2188.02     0.1123     0.0038     0.0643     0.0362     0.1395     3.4962    57.9200     0.0815     0.3493
  183    3.640   2191.62     0.1215     0.0038     0.0653     0.0364     0.1487     3.1577    58.2400     0.0904     0.3124
  184    3.660   2203.26     0.1218     0.0040     0.0670     0.0366     0.1497     3.2802    58.5600     0.0912     0.3268
  185    3.680   2214.90     0.1222     0.0039     0.0688     0.0368     0.1508     3.1794    58.8800     0.0919     0.3412
  186    3.700   2224.90     0.1223     0.0038     0.0693     0.0370     0.1515     3.1492    59.2000     0.0923     0.3528
  187    3.720   2225.86     0.1206     0.0038     0.0707     0.0372     0.1500     3.1512    59.5200     0.0905     0.3633
  188    3.740   2226.84     0.1221     0.0038     0.0700     0.0374     0.1515     3.1619    59.8400     0.0916     0.3564
  189    3.760   2227.82     0.1201     0.0039     0.0707     0.0376     0.1496     3.2336    60.1600     0.0894     0.3655
  190    3.780   2228.73     0.1260     0.0039     0.0720     0.0378     0.1562     3.1811    60.4800     0.0957     0.3552
  191    3.800   2229.71     0.1282     0.0041     0.0720     0.0380     0.1585     3.2405    60.8000     0.0977     0.3498
  192    3.820   2230.67     0.1309     0.0042     0.0730     0.0382     0.1614     3.2645    61.1200     0.1003     0.3425
  193    3.840   2231.62     0.1329     0.0042     0.0746     0.0384     0.1640     3.1609    61.4400     0.1026     0.3483
  194    3.860   2232.59     0.1260     0.0036     0.0767     0.0386     0.1581     2.7757    61.7600     0.0963     0.3921
  195    3.880   2233.57     0.1282     0.0037     0.0795     0.0388     0.1609     2.9060    62.0800     0.0988     0.3939
  196    3.900   2234.52     0.1318     0.0035     0.0849     0.0390     0.1668     2.6904    62.4000     0.1044     0.4240
  197    3.920   2235.48     0.1405     0.0038     0.0899     0.0392     0.1774     2.7281    62.7200     0.1147     0.4244
  198    3.940   2236.48     0.1503     0.0037     0.0914     0.0394     0.1888     2.5567    63.0400     0.1258     0.4163
  199    3.960   2237.44     0.1548     0.0040     0.0831     0.0396     0.1912     2.5453    63.3600     0.1278     0.3674
  200    3.980   2238.38     0.1478     0.0042     0.0763     0.0398     0.1806     2.7771    63.6800     0.1169     0.3269
  201    4.000   2239.38     0.1437     0.0042     0.0745     0.0400     0.1751     2.8840    64.0000     0.1111     0.3139
  202    4.020   2240.35     0.1407     0.0042     0.0732     0.0402     0.1717     2.9392    64.3200     0.1073     0.3123
  203    4.040   2241.30     0.1322     0.0042     0.0761     0.0404     0.1636     3.1520    64.6400     0.0990     0.3468
  204    4.060   2242.28     0.1267     0.0039     0.0819     0.0406     0.1603     3.0280    64.9600     0.0954     0.4139
  205    4.080   2243.28     0.1302     0.0037     0.0870     0.0408     0.1661     2.8049    65.2800     0.1008     0.4426
  206    4.100   2244.19     0.1335     0.0032     0.0928     0.0410     0.1717     2.4423    65.6000     0.1061     0.4708
  207    4.120   2245.19     0.1396     0.0036     0.0933     0.0412     0.1795     2.6185    65.9200     0.1135     0.4729
  208    4.140   2246.14     0.1407     0.0037     0.0872     0.0414     0.1779     2.6023    66.2400     0.1116     0.4215
  209    4.160   2247.11     0.1386     0.0040     0.0838     0.0416     0.1741     2.8355    66.5600     0.1076     0.3996
  210    4.180   2248.05     0.1378     0.0044     0.0816     0.0418     0.1724     3.2168    66.8800     0.1055     0.3836
  211    4.200   2249.03     0.1426     0.0043     0.0801     0.0420     0.1766     3.1343    67.2000     0.1094     0.3550
  212    4.220   2249.98     0.1437     0.0043     0.0806     0.0422     0.1773     2.9861    67.5200     0.1098     0.3439
  213    4.240   2250.98     0.1457     0.0041     0.0849     0.0424     0.1809     2.8187    67.8400     0.1131     0.3659
  214    4.260   2251.94     0.1413     0.0039     0.0870     0.0426     0.1774     2.7452    68.1600     0.1092     0.3967
  215    4.280   2252.88     0.1428     0.0039     0.0920     0.0428     0.1807     2.7293    68.4800     0.1122     0.4235
  216    4.300   2253.85     0.1433     0.0040     0.0960     0.0430     0.1831     2.8277    68.8000     0.1143     0.4536
  217    4.320   2254.80     0.1458     0.0037     0.0971     0.0432     0.1865     2.5905    69.1200     0.1174     0.4580
  218    4.340   2255.78     0.1407     0.0038     0.0961     0.0434     0.1816     2.7012    69.4400     0.1122     0.4812
  219    4.360   2256.76     0.1409     0.0039     0.0917     0.0436     0.1797     2.7765    69.7600     0.1099     0.4426
  220    4.380   2257.71     0.1399     0.0041     0.0920     0.0438     0.1784     2.8849    70.0800     0.1083     0.4409
  221    4.400   2258.66     0.1361     0.0040     0.0962     0.0440     0.1759     2.8993    70.4000     0.1055     0.4806
  222    4.420   2259.64     0.1356     0.0037     0.1004     0.0442     0.1772     2.7408    70.7200     0.1065     0.5148
  223    4.440   2260.63     0.1403     0.0037     0.1041     0.0444     0.1836     2.6281    71.0400     0.1126     0.5219
  224    4.460   2261.57     0.1442     0.0038     0.1066     0.0446     0.1886     2.6558    71.3600     0.1173     0.5214
  225    4.480   2262.57     0.1437     0.0038     0.1071     0.0448     0.1887     2.6711    71.6800     0.1170     0.5330
  226    4.500   2263.53     0.1458     0.0036     0.1039     0.0450     0.1902     2.4750    72.0000     0.1182     0.5134
  227    4.520   2264.52     0.1491     0.0036     0.0964     0.0452     0.1906     2.4130    72.3200     0.1183     0.4525
  228    4.540   2265.47     0.1500     0.0036     0.0964     0.0454     0.1902     2.3519    72.6400     0.1175     0.4281
  229    4.560   2266.43     0.1548     0.0035     0.0983     0.0456     0.1960     2.2968    72.9600     0.1231     0.4261
  230    4.580   2267.39     0.1561     0.0037     0.0964     0.0458     0.1971     2.3563    73.2800     0.1238     0.4184
  231    4.600   2268.37     0.1543     0.0036     0.0974     0.0460     0.1949     2.3365    73.6000     0.1213     0.4180
  232    4.620   2269.32     0.1551     0.0035     0.0955     0.0462     0.1961     2.2841    73.9200     0.1222     0.4217
  233    4.640   2270.28     0.1495     0.0035     0.0896     0.0464     0.1871     2.3455    74.2400     0.1129     0.3828
  234    4.660   2271.23     0.1472     0.0037     0.0935     0.0466     0.1858     2.5070    74.5600     0.1112     0.4070
  235    4.680   2272.20     0.1417     0.0034     0.0973     0.0468     0.1822     2.3307    74.8800     0.1073     0.4620
  236    4.700   2273.16     0.1434     0.0034     0.1005     0.0470     0.1850     2.3680    75.2000     0.1098     0.4739
  237    4.720   2274.11     0.1446     0.0033     0.1051     0.0472     0.1881     2.3205    75.5200     0.1125     0.5007
  238    4.740   2275.08     0.1466     0.0034     0.1077     0.0474     0.1917     2.2685    75.8400     0.1158     0.5178
  239    4.760   2276.05     0.1476     0.0034     0.1030     0.0476     0.1918     2.2895    76.1600     0.1156     0.4977
  240    4.780   2277.02     0.1529     0.0034     0.1040     0.0478     0.1960     2.2635    76.4800     0.1195     0.4597
  241    4.800   2277.94     0.1538     0.0038     0.1071     0.0480     0.1984     2.4451    76.8000     0.1216     0.4786
  242    4.820   2278.91     0.1539     0.0036     0.1078     0.0482     0.1992     2.3620    77.1200     0.1221     0.4887
  243    4.840   2279.86     0.1511     0.0037     0.1050     0.0484     0.1956     2.4063    77.4400     0.1182     0.4884
  244    4.860   2280.82     0.1480     0.0039     0.1016     0.0486     0.1913     2.6433    77.7600     0.1136     0.4799
  245    4.880   2281.80     0.1541     0.0037     0.0995     0.0488     0.1950     2.4524    78.0800     0.1170     0.4158
  246    4.900   2282.77     0.1576     0.0038     0.1017     0.0490     0.2000     2.3818    78.4000     0.1216     0.4282
  247    4.920   2283.75     0.1565     0.0037     0.1030     0.0492     0.1999     2.3999    78.7200     0.1211     0.4468
  248    4.940   2284.72     0.1562     0.0037     0.1011     0.0494     0.1989     2.3835    79.0400     0.1199     0.4369
  249    4.960   2285.66     0.1532     0.0035     0.1012     0.0496     0.1958     2.3079    79.3600     0.1164     0.4448
  250    4.980   2286.67     0.1557     0.0035     0.1042     0.0498     0.1987     2.2924    79.6800     0.1191     0.4431
  251    5.000   2287.66     0.1580     0.0032     0.1087     0.0500     0.2032     1.9856    80.0000     0.1232     0.4673
  252    5.020   2288.63     0.1598     0.0035     0.1105     0.0502     0.2062     2.1972    80.3200     0.1258     0.4785
  253    5.040   2289.59     0.1621     0.0038     0.1076     0.0504     0.2078     2.3365    80.6400     0.1272     0.4605
  254    5.060   2290.53     0.1645     0.0039     0.1013     0.0506     0.2080     2.3732    80.9600     0.1271     0.4168
  255    5.080   2291.53     0.1633     0.0046     0.0969     0.0508     0.2048     2.7912    81.2800     0.1235     0.3879
  256    5.100   2292.50     0.1635     0.0047     0.0906     0.0510     0.2024     2.8500    81.6000     0.1208     0.3446
  257    5.120   2293.45     0.1547     0.0045     0.0866     0.0512     0.1916     2.9028    81.9200     0.1097     0.3352
  258    5.140   2294.42     0.1502     0.0044     0.0877     0.0514     0.1867     2.9197    82.2400     0.1044     0.3385
  259    5.160   2295.37     0.1460     0.0042     0.0903     0.0516     0.1835     2.8205    82.5600     0.1010     0.3739
  260    5.180   2296.36     0.1383     0.0038     0.0909     0.0518     0.1764     2.7295    82.8800     0.0935     0.4156
  261    5.200   2297.31     0.1354     0.0035     0.0931     0.0520     0.1741     2.5901    83.2000     0.0909     0.4425
  262    5.220   2298.24     0.1301     0.0035     0.0931     0.0522     0.1692     2.6691    83.5200     0.0857     0.4770
  263    5.240   2299.27     0.1244     0.0034     0.0940     0.0524     0.1638     2.6705    83.8400     0.0799     0.5180
  264    5.260   2300.18     0.1259     0.0033     0.0940     0.0526     0.1649     2.6368    84.1600     0.0807     0.4991
  265    5.280   2301.15     0.1256     0.0027     0.0992     0.0528     0.1663     2.1029    84.4800     0.0819     0.5404
  266    5.300   2302.11     0.1298     0.0026     0.1041     0.0530     0.1729     2.0798    84.8000     0.0881     0.5646
  267    5.320   2303.10     0.1376     0.0027     0.1081     0.0532     0.1825     1.9405    85.1200     0.0974     0.5517
  268    5.340   2304.06     0.1400     0.0028     0.1125     0.0534     0.1866     2.0265    85.4400     0.1011     0.5680
  269    5.360   2304.98     0.1493     0.0028     0.1130     0.0536     0.1971     1.9176    85.7600     0.1113     0.5407
  270    5.380   2305.83     0.1528     0.0032     0.1094     0.0538     0.1987     2.1092    86.0800     0.1127     0.4939
  271    5.400   2306.79     0.1643     0.0033     0.1108     0.0540     0.2104     2.0884    86.4000     0.1240     0.4491
  272    5.420   2307.76     0.1767     0.0033     0.1070     0.0542     0.2235     1.9221    86.7200     0.1368     0.4180
  273    5.440   2308.75     0.1829     0.0033     0.1051     0.0544     0.2273     1.8258    87.0400     0.1403     0.3664
  274    5.460   2309.69     0.1939     0.0041     0.1049     0.0546     0.2380     2.1414    87.3600     0.1507     0.3357
  275    5.480   2310.71     0.2033     0.0042     0.1060     0.0548     0.2477     2.0864    87.6800     0.1600     0.3186
  276    5.500   2311.67     0.2171     0.0045     0.0984     0.0550     0.2603     2.1166    88.0000     0.1723     0.2778
  277    5.520   2312.64     0.2169     0.0049     0.0811     0.0552     0.2543     2.2267    88.3200     0.1659     0.2027
  278    5.540   2313.60     0.2151     0.0053     0.0675     0.0554     0.2439     2.4667    88.6400     0.1553     0.0846
  279    5.560   2314.60     0.2069     0.0055     0.0710     0.0556     0.2364     2.6173    88.9600     0.1474     0.0985
  280    5.580   2315.52     0.2011     0.0055     0.0684     0.0558     0.2302     2.6993    89.2800     0.1409     0.0958
  281    5.600   2316.51     0.1939     0.0055     0.0735     0.0560     0.2240     2.8046    89.6000     0.1344     0.1155
  282    5.620   2317.42     0.1854     0.0049     0.0769     0.0562     0.2174     2.5693    89.9200     0.1274     0.1555
  283    5.640   2318.22     0.1762     0.0045     0.0801     0.0564     0.2093     2.5098    90.2400     0.1191     0.1885
  284    5.660   2325.51     0.1715     0.0044     0.0917     0.0566     0.2078     2.5778    90.5600     0.1172     0.2505
  285    5.680   2344.70     0.1728     0.0039     0.1068     0.0568     0.2154     2.3051    90.8800     0.1246     0.3513
  286    5.700   2363.89     0.1741     0.0041     0.1183     0.0570     0.2231     2.3650    91.2000     0.1319     0.4521
  287    5.720   2365.63     0.1732     0.0041     0.1229     0.0572     0.2241     2.3755    91.5200     0.1326     0.4834
  288    5.740   2366.59     0.1762     0.0040     0.1269     0.0574     0.2291     2.2975    91.8400     0.1372     0.4981
  289    5.760   2367.54     0.1763     0.0039     0.1276     0.0576     0.2299     2.2120    92.1600     0.1378     0.5097
  290    5.780   2368.49     0.1740     0.0045     0.1248     0.0578     0.2269     2.5934    92.4800     0.1344     0.5063
  291    5.800   2369.47     0.1751     0.0045     0.1297     0.0580     0.2288     2.5731    92.8000     0.1360     0.5141
  292    5.820   2370.44     0.1726     0.0043     0.1327     0.0582     0.2280     2.4833    93.1200     0.1349     0.5461
  293    5.840   2371.37     0.1801     0.0044     0.1331     0.0584     0.2365     2.4716    93.4400     0.1430     0.5309
  294    5.860   2372.36     0.1842     0.0042     0.1360     0.0586     0.2413     2.2826    93.7600     0.1475     0.5232
  295    5.880   2373.32     0.1865     0.0041     0.1385     0.0588     0.2443     2.2273    94.0800     0.1502     0.5248
  296    5.900   2374.29     0.1977     0.0044     0.1333     0.0590     0.2550     2.2790    94.4000     0.1606     0.4822
  297    5.920   2375.23     0.2049     0.0047     0.1245     0.0592     0.2594     2.3332    94.7200     0.1647     0.4289
  298    5.940   2376.17     0.2127     0.0046     0.1157     0.0594     0.2633     2.2133    95.0400     0.1682     0.3624
  299    5.960   2377.14     0.2227     0.0051     0.1073     0.0596     0.2680     2.3314    95.3600     0.1726     0.2795
  300    5.980   2378.13     0.2299     0.0058     0.1034     0.0598     0.2742     2.5294    95.6800     0.1785     0.2556
  301    6.000   2379.10     0.2429     0.0058     0.0944     0.0600     0.2837     2.4169    96.0000     0.1877     0.1981
  302    6.020   2380.08     0.2473     0.0056     0.0860     0.0602     0.2848     2.2815    96.3200     0.1884     0.1542
  303    6.040   2381.05     0.2483     0.0058     0.0782     0.0604     0.2820     2.3260    96.6400     0.1854     0.1069
  304    6.060   2381.98     0.2525     0.0061     0.0748     0.0606     0.2843     2.4056    96.9600     0.1874     0.0816
  305    6.080   2382.94     0.2459     0.0059     0.0743     0.0608     0.2769     2.3802    97.2800     0.1797     0.0729
  306    6.100   2383.94     0.2413     0.0060     0.0805     0.0610     0.2741     2.5053    97.6000     0.1765     0.0968
  307    6.120   2384.89     0.2423     0.0058     0.0859     0.0612     0.2776     2.3977    97.9200     0.1797     0.1276
  308    6.140   2385.85     0.2335     0.0058     0.0882     0.0614     0.2701     2.4557    98.2400     0.1719     0.1502
  309    6.160   2386.81     0.2355     0.0060     0.0945     0.0616     0.2741     2.5615    98.5600     0.1755     0.1730
  310    6.180   2387.80     0.2345     0.0065     0.1005     0.0618     0.2761     2.7654    98.8800     0.1772     0.2096
  311    6.200   2388.70     0.2359     0.0063     0.1056     0.0620     0.2793     2.6753    99.2000     0.1801     0.2294
  312    6.220   2389.65     0.2392     0.0060     0.1109     0.0622     0.2853     2.5635    99.5200     0.1857     0.2557
  313    6.240   2390.64     0.2354     0.0058     0.1135     0.0624     0.2827     2.4847    99.8400     0.1828     0.2735
  314    6.260   2391.61     0.2277     0.0057     0.1160     0.0626     0.2761     2.4593   100.1600     0.1759     0.2995
  315    6.280   2392.58     0.2193     0.0052     0.1162     0.0628     0.2681     2.3231   100.4800     0.1676     0.3194
  316    6.300   2393.53     0.2168     0.0054     0.1190     0.0630     0.2661     2.5248   100.8000     0.1653     0.3288
  317    6.320   2394.46     0.2148     0.0051     0.1238     0.0632     0.2663     2.3401   101.1200     0.1651     0.3598
  318    6.340   2395.42     0.2149     0.0051     0.1274     0.0634     0.2677     2.3977   101.4400     0.1663     0.3755
  319    6.360   2396.40     0.2132     0.0051     0.1304     0.0636     0.2675     2.3853   101.7600     0.1658     0.3961
  320    6.380   2397.37     0.2110     0.0051     0.1342     0.0638     0.2667     2.4381   102.0800     0.1646     0.4172
  321    6.400   2398.35     0.2164     0.0050     0.1340     0.0640     0.2729     2.3044   102.4000     0.1705     0.4132
  322    6.420   2399.26     0.2182     0.0053     0.1351     0.0642     0.2750     2.4332   102.7200     0.1722     0.4116
  323    6.440   2400.23     0.2179     0.0056     0.1358     0.0644     0.2748     2.5597   103.0400     0.1718     0.4146
  324    6.460   2401.18     0.2206     0.0059     0.1343     0.0646     0.2767     2.6863   103.3600     0.1734     0.3983
  325    6.480   2402.26     0.2262     0.0061     0.1395     0.0648     0.2840     2.7774   103.6800     0.1804     0.4039
  326    6.500   2403.21     0.2322     0.0058     0.1431     0.0650     0.2924     2.5073   104.0000     0.1884     0.4155
  327    6.520   2404.17     0.2416     0.0061     0.1392     0.0652     0.3011     2.5449   104.3200     0.1968     0.3885
  328    6.540   2423.51     0.2463     0.0059     0.1305     0.0654     0.3024     2.4281   104.6400     0.1978     0.3447
  329    6.560   2444.62     0.2511     0.0058     0.1219     0.0656     0.3035     2.4160   104.9600     0.1985     0.2989
  330    6.580   2465.72     0.2558     0.0060     0.1133     0.0658     0.3046     2.4231   105.2800     0.1993     0.2531
  331    6.600   2473.17     0.2525     0.0059     0.1092     0.0660     0.2991     2.3420   105.6000     0.1935     0.2319
  332    6.620   2473.80     0.2376     0.0054     0.1069     0.0662     0.2824     2.2558   105.9200     0.1765     0.2286
  333    6.640   2474.45     0.2316     0.0053     0.1090     0.0664     0.2769     2.2713   106.2400     0.1707     0.2437
  334    6.660   2475.08     0.2255     0.0051     0.1121     0.0666     0.2722     2.2591   106.5600     0.1656     0.2685
  335    6.680   2475.70     0.2204     0.0050     0.1156     0.0668     0.2683     2.2745   106.8800     0.1614     0.2926
  336    6.700   2476.30     0.2173     0.0047     0.1200     0.0670     0.2672     2.1716   107.2000     0.1600     0.3241
  337    6.720   2476.92     0.2175     0.0047     0.1239     0.0672     0.2689     2.1656   107.5200     0.1614     0.3421
  338    6.740   2477.55     0.2168     0.0045     0.1288     0.0674     0.2701     2.0495   107.8400     0.1623     0.3674
  339    6.760   2478.15     0.2209     0.0052     0.1363     0.0676     0.2770     2.2925   108.1600     0.1688     0.3901
  340    6.780   2478.77     0.2322     0.0059     0.1444     0.0678     0.2918     2.5355   108.4800     0.1833     0.4045
  341    6.800   2479.43     0.2396     0.0053     0.1488     0.0680     0.3017     2.2537   108.8000     0.1929     0.4132
  342    6.820   2480.07     0.2441     0.0050     0.1462     0.0682     0.3062     2.0659   109.1200     0.1970     0.4042
  343    6.840   2480.71     0.2445     0.0057     0.1388     0.0684     0.3039     2.3248   109.4400     0.1944     0.3753
  344    6.860   2508.76     0.2402     0.0058     0.1313     0.0686     0.2964     2.3784   109.7600     0.1866     0.3482
  345    6.880   2538.78     0.2355     0.0056     0.1238     0.0688     0.2886     2.2947   110.0800     0.1785     0.3215
  346    6.900   2551.79     0.2309     0.0058     0.1244     0.0690     0.2829     2.5254   110.4000     0.1725     0.3169
  347    6.920   2552.74     0.2353     0.0057     0.1231     0.0692     0.2872     2.4362   110.7200     0.1765     0.3076
  348    6.940   2553.74     0.2340     0.0057     0.1251     0.0694     0.2857     2.4075   111.0400     0.1747     0.3080
  349    6.960   2554.71     0.2306     0.0057     0.1312     0.0696     0.2845     2.4631   111.3600     0.1732     0.3400
  350    6.980   2555.69     0.2253     0.0056     0.1369     0.0698     0.2823     2.4771   111.6800     0.1706     0.3865
  351    7.000   2556.69     0.2313     0.0052     0.1410     0.0700     0.2900     2.3046   112.0000     0.1780     0.3921
  352    7.020   2557.66     0.2327     0.0054     0.1453     0.0702     0.2930     2.3111   112.3200     0.1807     0.4063
  353    7.040   2558.65     0.2397     0.0054     0.1478     0.0704     0.3019     2.2778   112.6400     0.1893     0.4111
  354    7.060   2559.60     0.2476     0.0058     0.1440     0.0706     0.3087     2.3428   112.9600     0.1957     0.3829
  355    7.080   2560.60     0.2482     0.0060     0.1398     0.0708     0.3073     2.3943   113.2800     0.1940     0.3600
  356    7.100   2561.58     0.2522     0.0062     0.1372     0.0710     0.3104     2.4926   113.6000     0.1968     0.3428
  357    7.120   2562.53     0.2567     0.0063     0.1350     0.0712     0.3137     2.4609   113.9200     0.1998     0.3227
  358    7.140   2563.50     0.2588     0.0064     0.1316     0.0714     0.3144     2.4679   114.2400     0.2002     0.3048
  359    7.160   2564.47     0.2645     0.0065     0.1345     0.0716     0.3206     2.5062   114.5600     0.2060     0.3011
  360    7.180   2565.47     0.2683     0.0070     0.1369     0.0718     0.3255     2.5857   114.8800     0.2107     0.3059
  361    7.200   2566.43     0.2689     0.0068     0.1354     0.0720     0.3261     2.5513   115.2000     0.2109     0.3048
  362    7.220   2567.43     0.2751     0.0072     0.1300     0.0722     0.3299     2.6465   115.5200     0.2143     0.2716
  363    7.240   2568.36     0.2808     0.0075     0.1313     0.0724     0.3357     2.6732   115.8400     0.2199     0.2660
  364    7.260   2569.29     0.2797     0.0077     0.1297     0.0726     0.3345     2.7461   116.1600     0.2184     0.2657
  365    7.280   2570.26     0.2852     0.0076     0.1278     0.0728     0.3392     2.6572   116.4800     0.2227     0.2501
  366    7.300   2571.26     0.2804     0.0075     0.1246     0.0730     0.3336     2.6452   116.8000     0.2168     0.2471
  367    7.320   2572.23     0.2842     0.0076     0.1260     0.0732     0.3369     2.6702   117.1200     0.2198     0.2377
  368    7.340   2573.19     0.2821     0.0076     0.1301     0.0734     0.3360     2.6841   117.4400     0.2186     0.2518
  369    7.360   2574.19     0.2779     0.0072     0.1386     0.0736     0.3349     2.5848   117.7600     0.2172     0.2869
  370    7.380   2575.13     0.2778     0.0075     0.1463     0.0738     0.3383     2.6728   118.0800     0.2203     0.3196
  371    7.400   2576.11     0.2799     0.0074     0.1516     0.0740     0.3428     2.6346   118.4000     0.2244     0.3376
  372    7.420   2577.12     0.2775     0.0073     0.1580     0.0742     0.3429     2.6120   118.7200     0.2241     0.3636
  373    7.440   2578.09     0.2753     0.0071     0.1630     0.0744     0.3431     2.5532   119.0400     0.2240     0.3877
  374    7.460   2579.11     0.2784     0.0073     0.1689     0.0746     0.3486     2.6357   119.3600     0.2292     0.4036
  375    7.480   2580.08     0.2810     0.0072     0.1732     0.0748     0.3531     2.5568   119.6800     0.2334     0.4151
  376    7.500   2581.04     0.2828     0.0073     0.1791     0.0750     0.3571     2.6051   120.0000     0.2371     0.4293
  377    7.520   2582.01     0.2836     0.0071     0.1806     0.0752     0.3597     2.5137   120.3200     0.2394     0.4435
  378    7.540   2582.96     0.2877     0.0068     0.1813     0.0754     0.3625     2.3488   120.6400     0.2419     0.4246
  379    7.560   2583.95     0.2854     0.0072     0.1823     0.0756     0.3620     2.5196   120.9600     0.2410     0.4427
  380    7.580   2584.93     0.2879     0.0077     0.1715     0.0758     0.3627     2.6836   121.2800     0.2414     0.4239
  381    7.600   2585.91     0.2862     0.0077     0.1798     0.0760     0.3606     2.6796   121.6000     0.2390     0.4239
  382    7.620   2586.88     0.2875     0.0067     0.1823     0.0762     0.3644     2.3338   121.9200     0.2425     0.4410
  383    7.640   2587.87     0.2849     0.0066     0.1834     0.0764     0.3617     2.3167   122.2400     0.2395     0.4450
  384    7.660   2588.83     0.2789     0.0065     0.1843     0.0766     0.3565     2.3274   122.5600     0.2339     0.4623
  385    7.680   2597.80     0.2747     0.0067     0.1828     0.0768     0.3512     2.8465   122.8800     0.2283     0.4621
  386    7.700   2618.66     0.2821     0.0071     0.1841     0.0770     0.3592     3.1631   123.2000     0.2360     0.4521
  387    7.720   2627.86     0.2909     0.0074     0.1786     0.0772     0.3665     2.5760   123.5200     0.2429     0.4228
  388    7.740   2628.84     0.2958     0.0076     0.1751     0.0774     0.3705     2.5715   123.8400     0.2467     0.4075
  389    7.760   2629.82     0.2971     0.0076     0.1697     0.0776     0.3687     2.5676   124.1600     0.2445     0.3797
  390    7.780   2630.71     0.2906     0.0075     0.1667     0.0778     0.3615     2.5504   124.4800     0.2370     0.3839
  391    7.800   2631.71     0.2773     0.0071     0.1680     0.0780     0.3470     2.4697   124.8000     0.2222     0.3957
  392    7.820   2632.70     0.2710     0.0073     0.1789     0.0782     0.3446     2.6699   125.1200     0.2194     0.4416
  393    7.840   2633.67     0.2714     0.0071     0.1835     0.0784     0.3488     2.6143   125.4400     0.2233     0.4742
  394    7.860   2634.65     0.2632     0.0062     0.1841     0.0786     0.3399     2.3470   125.7600     0.2142     0.4857
  395    7.880   2635.60     0.2625     0.0061     0.1913     0.0788     0.3418     2.3195   126.0800     0.2157     0.5098
  396    7.900   2636.55     0.2643     0.0056     0.1964     0.0790     0.3461     2.1651   126.4000     0.2197     0.5265
  397    7.920   2637.52     0.2755     0.0057     0.2027     0.0792     0.3604     2.0883   126.7200     0.2337     0.5256
  398    7.940   2638.50     0.2678     0.0057     0.1987     0.0794     0.3514     2.1103   127.0400     0.2243     0.5336
  399    7.960   2639.49     0.2648     0.0059     0.2054     0.0796     0.3500     2.2693   127.3600     0.2226     0.5534
  400    7.980   2640.49     0.2684     0.0058     0.2131     0.0798     0.3569     2.1468   127.6800     0.2292     0.5716
  401    8.000   2641.44     0.2790     0.0057     0.2086     0.0800     0.3678     2.0773   128.0000     0.2398     0.5485
  402    8.020   2642.44     0.2778     0.0054     0.2063     0.0802     0.3644     1.9536   128.3200     0.2361     0.5341
  403    8.040   2643.40     0.2776     0.0057     0.2107     0.0804     0.3657     2.0538   128.6400     0.2370     0.5454
  404    8.060   2644.34     0.2849     0.0055     0.2080     0.0806     0.3733     1.9649   128.9600     0.2443     0.5316
  405    8.080   2645.34     0.2776     0.0055     0.2081     0.0808     0.3642     1.9693   129.2800     0.2350     0.5344
  406    8.100   2646.28     0.2774     0.0054     0.2151     0.0810     0.3673     1.9390   129.6000     0.2377     0.5592
  407    8.120   2647.28     0.2850     0.0054     0.2007     0.0812     0.3723     1.8999   129.9200     0.2424     0.5227
  408    8.140   2648.23     0.2898     0.0051     0.1993     0.0814     0.3737     1.7535   130.2400     0.2435     0.4867
  409    8.160   2649.19     0.2914     0.0050     0.1882     0.0816     0.3717     1.7520   130.5600     0.2412     0.4550
  410    8.180   2650.17     0.2858     0.0050     0.1808     0.0818     0.3616     1.7392   130.8800     0.2307     0.4274
  411    8.200   2651.15     0.2821     0.0053     0.1812     0.0820     0.3577     1.8870   131.2000     0.2265     0.4330
  412    8.220   2652.12     0.2784     0.0045     0.1830     0.0822     0.3551     1.5831   131.5200     0.2236     0.4491
  413    8.240   2653.07     0.2687     0.0042     0.1856     0.0824     0.3467     1.5553   131.8400     0.2148     0.4802
  414    8.260   2654.04     0.2660     0.0038     0.1912     0.0826     0.3444     1.4304   132.1600     0.2122     0.4900
  415    8.280   2655.04     0.2883     0.0047     0.2024     0.0828     0.3726     1.6383   132.4800     0.2401     0.4907
  416    8.300   2656.01     0.3094     0.0051     0.2118     0.0830     0.3970     1.7238   132.8000     0.2642     0.4755
  417    8.320   2656.94     0.3788     0.0057     0.2056     0.0832     0.4660     1.6198   133.1200     0.3328     0.3758
  418    8.340   2657.95     0.4750     0.0061     0.1900     0.0834     0.5576     1.3652   133.4400     0.4241     0.2681
  419    8.360   2658.93     0.5463     0.0054     0.1728     0.0836     0.6211     1.0203   133.7600     0.4873     0.1942
  420    8.380   2659.89     0.5666     0.0058     0.1622     0.0838     0.6337     1.0199   134.0800     0.4997     0.1521
  421    8.400   2660.83     0.5099     0.0061     0.1607     0.0840     0.5771     1.1616   134.4000     0.4427     0.1718
  422    8.420   2661.80     0.4488     0.0067     0.1712     0.0842     0.5191     1.4354   134.7200     0.3844     0.2171
  423    8.440   2662.78     0.4213     0.0071     0.1606     0.0844     0.4942     1.6855   135.0400     0.3591     0.2479
  424    8.460   2663.75     0.3772     0.0077     0.1749     0.0846     0.4457     1.9353   135.3600     0.3104     0.2534
  425    8.480   2664.73     0.3586     0.0088     0.1869     0.0848     0.4366     2.4422   135.6800     0.3010     0.3358
  426    8.500   2665.70     0.3562     0.0085     0.1773     0.0850     0.4311     2.3867   136.0000     0.2951     0.3163
  427    8.520   2666.69     0.3480     0.0089     0.1725     0.0852     0.4217     2.5653   136.3200     0.2854     0.3170
  428    8.540   2667.66     0.3478     0.0094     0.1669     0.0854     0.4185     2.7092   136.6400     0.2818     0.2944
  429    8.560   2668.64     0.3461     0.0095     0.1689     0.0856     0.4166     2.7248   136.9600     0.2797     0.2940
  430    8.580   2669.61     0.3382     0.0090     0.1758     0.0858     0.4108     2.6112   137.2800     0.2735     0.3185
  431    8.600   2670.57     0.3252     0.0088     0.1830     0.0860     0.4008     2.6841   137.6000     0.2632     0.3574
  432    8.620   2671.52     0.3343     0.0085     0.1974     0.0862     0.4150     2.5721   137.9200     0.2771     0.3823
  433    8.640   2672.51     0.3519     0.0084     0.2084     0.0864     0.4381     2.4334   138.2400     0.2998     0.3958
  434    8.660   2673.48     0.3595     0.0090     0.2157     0.0866     0.4488     2.4983   138.5600     0.3103     0.4068
  435    8.680   2674.42     0.3591     0.0089     0.2216     0.0868     0.4512     2.4827   138.8800     0.3123     0.4239
  436    8.700   2675.40     0.3636     0.0090     0.2210     0.0870     0.4556     2.4850   139.2000     0.3164     0.4176
  437    8.720   2676.35     0.3638     0.0095     0.2323     0.0872     0.4593     2.6178   139.5200     0.3198     0.4386
  438    8.740   2677.35     0.3765     0.0090     0.2405     0.0874     0.4759     2.4222   139.8400     0.3361     0.4444
  439    8.760   2678.35     0.3854     0.0079     0.2452     0.0876     0.4864     2.0676   140.1600     0.3462     0.4415
  440    8.780   2679.30     0.3915     0.0071     0.2536     0.0878     0.4970     1.8272   140.4800     0.3565     0.4582
  441    8.800   2680.22     0.3929     0.0068     0.2536     0.0880     0.4997     1.7340   140.8000     0.3589     0.4633
  442    8.820   2681.22     0.3983     0.0080     0.2573     0.0882     0.5062     2.0152   141.1200     0.3651     0.4624
  443    8.840   2682.20     0.3968     0.0078     0.2476     0.0884     0.5027     1.9854   141.4400     0.3612     0.4529
  444    8.860   2683.19     0.4017     0.0078     0.2293     0.0886     0.5010     1.9476   141.7600     0.3592     0.4118
  445    8.880   2684.13     0.4101     0.0083     0.2177     0.0888     0.5043     2.0433   142.0800     0.3622     0.3736
  446    8.900   2685.09     0.4098     0.0089     0.1999     0.0890     0.4953     2.1988   142.4000     0.3529     0.3250
  447    8.920   2686.07     0.4242     0.0095     0.2048     0.0892     0.5096     2.2222   142.7200     0.3669     0.3113
  448    8.940   2687.02     0.3935     0.0104     0.1695     0.0894     0.4720     2.6553   143.0400     0.3289     0.2955
  449    8.960   2688.03     0.4101     0.0099     0.1577     0.0896     0.4759     2.4684   143.3600     0.3325     0.2020
  450    8.980   2689.01     0.4120     0.0087     0.1652     0.0898     0.4792     2.0791   143.6800     0.3355     0.2092
  451    9.000   2689.97     0.4010     0.0092     0.1573     0.0900     0.4695     2.3221   144.0000     0.3255     0.2245
  452    9.020   2690.93     0.4097     0.0095     0.1524     0.0902     0.4709     2.3285   144.3200     0.3266     0.1695
  453    9.040   2691.91     0.4328     0.0095     0.1713     0.0904     0.4998     2.2493   144.6400     0.3552     0.1940
  454    9.060   2692.90     0.4172     0.0094     0.1729     0.0906     0.4915     2.1769   144.9600     0.3465     0.2493
  455    9.080   2693.89     0.4076     0.0100     0.1310     0.0908     0.4700     2.5163   145.2800     0.3247     0.1787
  456    9.100   2694.85     0.4306     0.0098     0.1316     0.0910     0.4825     2.2863   145.6000     0.3369     0.0967
  457    9.120   2695.80     0.4192     0.0102     0.1406     0.0912     0.4779     2.3795   145.9200     0.3320     0.1463
  458    9.140   2696.73     0.3833     0.0108     0.1358     0.0914     0.4414     2.7606   146.2400     0.2951     0.1587
  459    9.160   2697.74     0.4315     0.0129     0.1112     0.0916     0.4774     3.0039   146.5600     0.3309     0.0536
  460    9.180   2698.71     0.4245     0.0136     0.1115     0.0918     0.4733     3.1402   146.8800     0.3264     0.0746
  461    9.200   2699.68     0.4400     0.0140     0.1146     0.0920     0.4870     3.2552   147.2000     0.3398     0.0584
  462    9.220   2700.63     0.4479     0.0142     0.1231     0.0922     0.4987     3.2296   147.5200     0.3512     0.0816
  463    9.240   2701.61     0.4849     0.0127     0.1291     0.0924     0.5383     2.6729   147.8400     0.3904     0.0887
  464    9.260   2702.56     0.4877     0.0131     0.1409     0.0926     0.5449     2.5762   148.1600     0.3967     0.1099
  465    9.280   2703.54     0.4649     0.0139     0.1576     0.0928     0.5285     3.0112   148.4800     0.3800     0.1538
  466    9.300   2704.49     0.4545     0.0142     0.1714     0.0930     0.5246     3.0818   148.8000     0.3758     0.1972
  467    9.320   2705.47     0.4445     0.0148     0.1827     0.0932     0.5197     3.3423   149.1200     0.3706     0.2314
  468    9.340   2706.46     0.4563     0.0137     0.1904     0.0934     0.5365     3.0460   149.4400     0.3871     0.2522
  469    9.360   2707.40     0.4698     0.0142     0.1819     0.0936     0.5469     3.0243   149.7600     0.3971     0.2268
  470    9.380   2708.39     0.4969     0.0146     0.2096     0.0938     0.5820     2.9963   150.0800     0.4319     0.2518
  471    9.400   2709.34     0.4956     0.0145     0.2119     0.0940     0.5839     2.9556   150.4000     0.4335     0.2683
  472    9.420   2710.33     0.5301     0.0148     0.2347     0.0942     0.6248     2.8013   150.7200     0.4741     0.2769
  473    9.440   2711.32     0.5443     0.0152     0.2381     0.0944     0.6447     2.7991   151.0400     0.4937     0.2933
  474    9.460   2712.31     0.5732     0.0157     0.2534     0.0946     0.6768     2.8421   151.3600     0.5255     0.2896
  475    9.480   2713.26     0.5601     0.0157     0.2568     0.0948     0.6678     2.7387   151.6800     0.5161     0.3134
  476    9.500   2714.25     0.6215     0.0163     0.2750     0.0950     0.7335     2.7049   152.0000     0.5815     0.2951
  477    9.520   2715.20     0.6189     0.0157     0.2881     0.0952     0.7391     2.5123   152.3200     0.5868     0.3256
  478    9.540   2716.22     0.6295     0.0157     0.3066     0.0954     0.7551     2.5038   152.6400     0.6025     0.3381
  479    9.560   2717.20     0.6181     0.0158     0.3216     0.0956     0.7521     2.5159   152.9600     0.5991     0.3730
  480    9.580   2718.13     0.6255     0.0162     0.3354     0.0958     0.7638     2.5928   153.2800     0.6105     0.3822
  481    9.600   2719.11     0.6227     0.0165     0.3543     0.0960     0.7688     2.6479   153.6000     0.6152     0.4092
  482    9.620   2720.07     0.6258     0.0161     0.3690     0.0962     0.7796     2.5606   153.9200     0.6257     0.4313
  483    9.640   2721.08     0.6025     0.0163     0.3669     0.0964     0.7572     2.6703   154.2400     0.6030     0.4513
  484    9.660   2726.37     0.6013     0.0158     0.3724     0.0966     0.7559     2.6287   154.5600     0.6014     0.4515
  485    9.680   2741.32     0.6056     0.0162     0.3846     0.0968     0.7653     2.7031   154.8800     0.6105     0.4642
  486    9.700   2756.27     0.6099     0.0160     0.3956     0.0970     0.7747     2.6596   155.2000     0.6195     0.4770
  487    9.720   2760.51     0.6255     0.0161     0.3989     0.0972     0.7922     2.6076   155.5200     0.6367     0.4707
  488    9.740   2761.52     0.6383     0.0164     0.4125     0.0974     0.8099     2.5746   155.8400     0.6540     0.4757
  489    9.760   2762.49     0.6449     0.0161     0.4249     0.0976     0.8219     2.5123   156.1600     0.6657     0.4865
  490    9.780   2763.45     0.6534     0.0166     0.4377     0.0978     0.8347     2.5336   156.4800     0.6782     0.4923
  491    9.800   2764.43     0.6535     0.0167     0.4468     0.0980     0.8400     2.5631   156.8000     0.6832     0.5065
  492    9.820   2765.37     0.6511     0.0165     0.4550     0.0982     0.8403     2.5296   157.1200     0.6832     0.5157
  493    9.840   2766.32     0.6478     0.0166     0.4679     0.0984     0.8428     2.5655   157.4400     0.6854     0.5337
  494    9.860   2767.31     0.6453     0.0163     0.4740     0.0986     0.8429     2.5278   157.7600     0.6852     0.5430
  495    9.880   2768.32     0.6499     0.0162     0.4844     0.0988     0.8524     2.4979   158.0800     0.6943     0.5520
  496    9.900   2769.25     0.6538     0.0160     0.4905     0.0990     0.8591     2.4477   158.4000     0.7007     0.5563
  497    9.920   2770.26     0.6565     0.0157     0.4899     0.0992     0.8618     2.3958   158.7200     0.7031     0.5543
  498    9.940   2771.18     0.6608     0.0159     0.4883     0.0994     0.8670     2.4097   159.0400     0.7080     0.5530
  499    9.960   2772.18     0.6646     0.0158     0.4877     0.0996     0.8692     2.3829   159.3600     0.7099     0.5461
  500    9.980   2773.16     0.6697     0.0162     0.4918     0.0998     0.8753     2.4251   159.6800     0.7157     0.5445
  501   10.000   2774.16     0.6801     0.0168     0.4954     0.1000     0.8879     2.4736   160.0000     0.7279     0.5424
  502   10.020   2775.12     0.6881     0.0170     0.4975     0.1002     0.8965     2.4879   160.3200     0.7362     0.5379
  503   10.040   2776.08     0.6930     0.0169     0.5016     0.1004     0.9028     2.4494   160.6400     0.7422     0.5379
  504   10.060   2777.03     0.6953     0.0179     0.5093     0.1006     0.9082     2.5768   160.9600     0.7473     0.5437
  505   10.080   2778.01     0.6931     0.0179     0.5137     0.1008     0.9085     2.5849   161.2800     0.7473     0.5515
  506   10.100   2779.01     0.6875     0.0180     0.5215     0.1010     0.9046     2.6004   161.6000     0.7430     0.5598
  507   10.120   2779.99     0.6834     0.0170     0.5386     0.1012     0.9069     2.4880   161.9200     0.7450     0.5786
  508   10.140   2780.91     0.6852     0.0168     0.5488     0.1014     0.9142     2.4463   162.2400     0.7520     0.5903
  509   10.160   2781.94     0.6847     0.0171     0.5619     0.1016     0.9191     2.4967   162.5600     0.7566     0.6034
  510   10.180   2782.85     0.7005     0.0171     0.5822     0.1018     0.9417     2.4757   162.8800     0.7789     0.6069
  511   10.200   2783.83     0.7315     0.0164     0.5825     0.1020     0.9784     2.2520   163.2000     0.8152     0.5961
  512   10.220   2784.78     0.7756     0.0155     0.5716     0.1022     1.0144     2.0166   163.5200     0.8508     0.5480
  513   10.240   2785.76     0.7985     0.0146     0.5755     0.1024     1.0331     1.8265   163.8400     0.8692     0.5247
  514   10.260   2786.76     0.8223     0.0142     0.5960     0.1026     1.0726     1.7461   164.1600     0.9084     0.5429
  515   10.280   2787.74     0.8633     0.0154     0.5932     0.1028     1.1125     1.7994   164.4800     0.9481     0.5174
  516   10.300   2788.68     0.9006     0.0172     0.5897     0.1030     1.1498     1.9326   164.8000     0.9850     0.4977
  517   10.320   2789.61     0.9625     0.0176     0.5683     0.1032     1.2044     1.8614   165.1200     1.0393     0.4551
  518   10.340   2790.59     1.0237     0.0176     0.5453     0.1034     1.2562     1.7425   165.4400     1.0908     0.4128
  519   10.360   2791.57     1.0566     0.0177     0.5163     0.1036     1.2757     1.6827   165.7600     1.1099     0.3766
  520   10.380   2792.57     1.0905     0.0172     0.5157     0.1038     1.3110     1.6019   166.0800     1.1449     0.3680
  521   10.400   2793.54     1.1450     0.0185     0.5239     0.1040     1.3609     1.6342   166.4000     1.1945     0.3432
  522   10.420   2794.54     1.2479     0.0223     0.5279     0.1042     1.4694     1.8230   166.7200     1.3027     0.3250
  523   10.440   2795.50     1.4597     0.0273     0.4926     0.1044     1.6746     1.9822   167.0400     1.5076     0.2716
  524   10.460   2796.46     1.8548     0.0314     0.3871     0.1046     2.0347     1.7900   167.3600     1.8674     0.1745
  525   10.480   2797.43     2.1534     0.0337     0.2967     0.1048     2.2896     1.5941   167.6800     2.1219     0.1035
  526   10.500   2798.41     2.2044     0.0334     0.2368     0.1050     2.3111     1.5147   168.0000     2.1431     0.0694
  527   10.520   2799.42     2.1020     0.0346     0.2432     0.1052     2.2024     1.6248   168.3200     2.0341     0.0658
  528   10.540   2800.40     2.0758     0.0359     0.2207     0.1054     2.1684     1.7449   168.6400     1.9998     0.0576
  529   10.560   2801.38     2.3368     0.0390     0.1931     0.1056     2.4239     1.7278   168.9600     2.2550     0.0453
  530   10.580   2802.37     2.7345     0.0402     0.1589     0.1058     2.8050     1.5273   169.2800     2.6357     0.0236
  531   10.600   2803.27     3.0485     0.0415     0.1226     0.1060     3.1056     1.3908   169.6000     2.9360     0.0102
  532   10.620   2804.26     3.1003     0.0389     0.1049     0.1062     3.1483     1.2548   169.9200     2.9784     0.0027
  533   10.640   2805.26     3.1154     0.0393     0.0719     0.1064     3.1475     1.2612   170.2400     2.9772    -0.0100
  534   10.660   2806.24     3.1145     0.0447     0.0490     0.1066     3.1393     1.4294   170.5600     2.9687    -0.0161
  535   10.680   2807.21     3.1408     0.0458     0.0309     0.1068     3.1564     1.4680   170.8800     2.9855    -0.0233
  536   10.700   2808.18     3.1170     0.0479     0.0316     0.1070     3.1295     1.5344   171.2000     2.9583    -0.0262
  537   10.720   2809.13     2.9962     0.0490     0.0427     0.1072     3.0117     1.6091   171.5200     2.8402    -0.0248
  538   10.740   2810.09     2.8314     0.0505     0.0667     0.1074     2.8560     1.7632   171.8400     2.6842    -0.0182
  539   10.760   2811.08     2.6495     0.0538     0.0880     0.1076     2.6830     1.9943   172.1600     2.5108    -0.0111
  540   10.780   2812.10     2.4169     0.0511     0.1184     0.1078     2.4619     2.0473   172.4800     2.2894    -0.0002
  541   10.800   2813.06     2.3505     0.0539     0.1580     0.1080     2.4112     2.3123   172.8000     2.2384     0.0164
  542   10.820   2814.01     2.6630     0.0533     0.1795     0.1082     2.7363     2.1045   173.1200     2.5632     0.0259
  543   10.840   2814.97     3.1078     0.0607     0.2006     0.1084     3.1891     1.9869   173.4400     3.0157     0.0282
  544   10.860   2815.93     3.3813     0.0705     0.1781     0.1086     3.4591     2.0857   173.7600     3.2854     0.0233
  545   10.880   2816.95     3.4010     0.0799     0.1359     0.1088     3.4650     2.3485   174.0800     3.2909     0.0132
  546   10.900   2817.95     3.2424     0.0805     0.1136     0.1090     3.2921     2.4563   174.4000     3.1177     0.0030
  547   10.920   2818.95     3.1283     0.0752     0.1142     0.1092     3.1737     2.2834   174.7200     2.9990    -0.0003
  548   10.940   2819.91     3.3594     0.0709     0.1147     0.1094     3.4100     1.9709   175.0400     3.2349     0.0034
  549   10.960   2820.89     4.1150     0.0665     0.0974     0.1096     4.1580     1.6583   175.3600     3.9827    -0.0018
  550   10.980   2821.86     4.8030     0.0574     0.0780     0.1098     4.8410     1.2084   175.6800     4.6653    -0.0041
  551   11.000   2822.88     5.3391     0.0511    -0.0664     0.1100     5.3318     0.9675   176.0000     5.1558    -0.0247
  552   11.020   2824.25     5.2067     0.0515    -0.0784     0.1102     5.1681     0.9743   176.3200     4.9918    -0.0404
  553   11.040   2831.07     4.4449     0.0458    -0.0397     0.1104     4.4227     0.8710   176.6400     4.2460    -0.0378
  554   11.060   2837.88     3.6833     0.0458    -0.0010     0.1106     3.6772     0.8713   176.9600     3.5003    -0.0352
  555   11.080   2841.37     2.8868     0.0410     0.0263     0.1108     2.8934     1.3533   177.2800     2.7161    -0.0350
  556   11.100   2842.33     2.3504     0.0339     0.0522     0.1110     2.3683     1.3924   177.6000     2.1907    -0.0311
  557   11.120   2843.29     2.0648     0.0403     0.0944     0.1112     2.0974     1.9209   177.9200     1.9195    -0.0175
  558   11.140   2844.26     2.0887     0.0386     0.1322     0.1114     2.1381     1.9255   178.2400     1.9598     0.0032
  559   11.160   2845.26     2.3954     0.0340     0.1582     0.1116     2.4588     1.4727   178.5600     2.2802     0.0173
  560   11.180   2846.26     2.7205     0.0291     0.1596     0.1118     2.7865     1.1344   178.8800     2.6076     0.0174
  561   11.200   2847.25     3.8624     0.0314     0.2079     0.1120     3.9361     0.9888   179.2000     3.7569     0.0168
  562   11.220   2848.28     6.5039     0.0396     0.2360     0.1122     6.6089     0.7589   179.5200     6.4293     0.0216
  563   11.240   2849.36    10.8543     0.0524     0.0115     0.1124    10.9201     0.5709   179.8400    10.7403     0.0044
  564   11.260   2852.95    12.3533     0.0603    -0.0013     0.1126    12.3563     0.4986   180.1600    12.1762    -0.0087
  565   11.280   2853.95    14.0267     0.0664    -0.0186     0.1128    14.0215     0.4738   180.4800    13.8410    -0.0090
  566   11.300   2854.96    13.9590     0.0782    -0.0417     0.1130    13.9458     0.5594   180.8000    13.7650    -0.0105
  567   11.320   2855.96    13.5357     0.0861    -0.0535     0.1132    13.5143     0.6332   181.1200    13.3332    -0.0123
  568   11.340   2856.99    12.7320     0.0940    -0.0576     0.1134    12.7083     0.7335   181.4400    12.5269    -0.0136
  569   11.360   2858.03    11.8220     0.1008    -0.0564     0.1136    11.7977     0.8462   181.7600    11.6160    -0.0148
  570   11.380   2858.98    10.9683     0.1003    -0.0534     0.1138    10.9452     0.8937   182.0800    10.7631    -0.0157
  571   11.400   2859.98    10.2199     0.0948    -0.0425     0.1140    10.2002     0.8973   182.4000    10.0178    -0.0161
  572   11.420   2860.96     9.7547     0.0900    -0.0209     0.1142     9.7418     0.9060   182.7200     9.5591    -0.0152
  573   11.440   2861.99     9.8761     0.0827     0.0429     0.1144     9.8808     0.8503   183.0400     9.6978    -0.0107
  574   11.460   2863.03    10.5823     0.0771     0.0616     0.1146    10.6171     0.7547   183.3600    10.4337    -0.0030
  575   11.480   2864.07    11.5542     0.0757     0.0150     0.1148    11.5643     0.6791   183.6800    11.3806    -0.0080
  576   11.500   2865.10    12.5853     0.0740    -0.0503     0.1150    12.5767     0.5987   184.0000    12.3927    -0.0109
  577   11.520   2866.15    13.3881     0.0707    -0.0845     0.1152    13.3543     0.5424   184.3200    13.1699    -0.0149
  578   11.540   2867.16    14.0121     0.0675    -0.0870     0.1154    13.9756     0.4862   184.6400    13.7909    -0.0147
  579   11.560   2868.18    14.3569     0.0738    -0.0862     0.1156    14.3209     0.5146   184.9600    14.1359    -0.0143
  580   11.580   2869.23    14.6670     0.0833    -0.0795     0.1158    14.6323     0.5689   185.2800    14.4470    -0.0137
  581   11.600   2870.40    15.7874     0.0907    -0.0517     0.1160    15.7585     0.5877   185.6000    15.5729    -0.0119
  582   11.620   2886.01    17.0063     0.0989    -0.0065     0.1162    16.9970     0.6355   185.9200    16.8111    -0.0083
  583   11.640   2906.70    17.2826     0.1071     0.0387     0.1164    17.2923     0.6877   186.2400    17.1060    -0.0055
  584   11.660   2919.22    17.2235     0.1171     0.0559     0.1166    17.2461     0.6767   186.5600    17.0596    -0.0037
  585   11.680   2920.27    16.6362     0.1246     0.0640     0.1168    16.6630     0.7468   186.8800    16.4761    -0.0032
  586   11.700   2921.30    16.0852     0.1242     0.0697     0.1170    16.1138     0.7613   187.2000    15.9266    -0.0031
  587   11.720   2922.27    15.7050     0.1222     0.0707     0.1172    15.7340     0.7696   187.5200    15.5464    -0.0031
  588   11.740   2923.30    15.2609     0.1207     0.0730     0.1174    15.2915     0.7807   187.8400    15.1036    -0.0029
  589   11.760   2924.32    14.7657     0.1186     0.0867     0.1176    14.7987     0.7924   188.1600    14.6106    -0.0027
  590   11.780   2925.35    14.5621     0.1170     0.0835     0.1178    14.5995     0.8010   188.4800    14.4111    -0.0020
  591   11.800   2926.38    14.5047     0.1145     0.0859     0.1180    14.5403     0.7879   188.8000    14.3515    -0.0023
  592   11.820   2927.38    14.6446     0.1158     0.0831     0.1182    14.6798     0.7945   189.1200    14.4907    -0.0024
  593   11.840   2928.43    14.8227     0.1213     0.0898     0.1184    14.8600     0.8231   189.4400    14.6705    -0.0020
  594   11.860   2929.47    15.1425     0.1267     0.0885     0.1186    15.1789     0.8450   189.7600    14.9891    -0.0021
  595   11.880   2930.52    15.4956     0.1309     0.1026     0.1188    15.5372     0.8529   190.0800    15.3471    -0.0013
  596   11.900   2931.54    15.7989     0.1359     0.0889     0.1190    15.8384     0.8651   190.4000    15.6480    -0.0016
  597   11.920   2932.55    15.7826     0.1389     0.0707     0.1192    15.8144     0.8780   190.7200    15.6237    -0.0028
  598   11.940   2933.62    15.6029     0.1413     0.0692     0.1194    15.6315     0.9015   191.0400    15.4405    -0.0033
  599   11.960   2934.61    15.4082     0.1382     0.0788     0.1196    15.4399     0.8941   191.3600    15.2485    -0.0029
  600   11.980   2935.69    15.3121     0.1348     0.0848     0.1198    15.3471     0.8800   191.6800    15.1555    -0.0024
  601   12.000   2936.74    15.3149     0.1349     0.0864     0.1200    15.3514     0.8797   192.0000    15.1594    -0.0022
  602   12.020   2937.79    15.1355     0.1332     0.0982     0.1202    15.1743     0.8740   192.3200    14.9820    -0.0019
  603   12.040   2938.83    14.9211     0.1332     0.0908     0.1204    14.9617     0.8876   192.6400    14.7691    -0.0016
  604   12.060   2939.85    14.7933     0.1280     0.0804     0.1206    14.8273     0.8615   192.9600    14.6343    -0.0027
  605   12.080   2940.88    14.5984     0.1225     0.0851     0.1208    14.6336     0.8334   193.2800    14.4403    -0.0026
  606   12.100   2941.87    14.0964     0.1306     0.0802     0.1210    14.1311     0.9095   193.6000    13.9375    -0.0027
  607   12.120   2942.91    13.4024     0.1267     0.0810     0.1212    13.4361     0.9267   193.9200    13.2422    -0.0031
  608   12.140   2943.96    12.7763     0.1247     0.0719     0.1214    12.8089     0.9608   194.2400    12.6147    -0.0035
  609   12.160   2944.99    12.6122     0.1204     0.0684     0.1216    12.6413     0.9532   194.5600    12.4467    -0.0042
  610   12.180   2945.99    12.7491     0.1127     0.0829     0.1218    12.7793     0.8896   194.8800    12.5844    -0.0040
  611   12.200   2947.04    13.7261     0.1069     0.0867     0.1220    13.7650     0.8098   195.2000    13.5698    -0.0022
  612   12.220   2948.09    15.0008     0.1006     0.0329     0.1222    15.0253     0.6878   195.5200    14.8298    -0.0043
  613   12.240   2949.13    15.6913     0.1046    -0.0309     0.1224    15.6858     0.6778   195.8400    15.4899    -0.0088
  614   12.260   2950.20    16.0185     0.1055    -0.0715     0.1226    15.9927     0.6616   196.1600    15.7965    -0.0116
  615   12.280   2951.21    15.9014     0.1010    -0.0875     0.1228    15.8658     0.6300   196.4800    15.6693    -0.0132
  616   12.300   2952.26    15.3846     0.1048    -0.0892     0.1230    15.3463     0.6684   196.8000    15.1495    -0.0141
  617   12.320   2953.26    14.6814     0.1143    -0.0873     0.1232    14.6442     0.7626   197.1200    14.4471    -0.0147
  618   12.340   2954.28    13.7971     0.1165    -0.0834     0.1234    13.7606     0.8202   197.4400    13.5631    -0.0155
  619   12.360   2955.31    13.0854     0.1166    -0.0713     0.1236    13.0532     0.8715   197.7600    12.8554    -0.0156
  620   12.380   2956.39    12.6236     0.1175    -0.0509     0.1238    12.5992     0.9165   198.0800    12.4011    -0.0147
  621   12.400   2957.36    11.9938     0.1237    -0.0315     0.1240    11.9780     0.9989   198.4000    11.7796    -0.0137
  622   12.420   2958.40    10.8939     0.1252    -0.0140     0.1242    10.8857     1.1001   198.7200    10.6869    -0.0135
  623   12.440   2959.40    10.0430     0.1146     0.0098     0.1244    10.0428     1.1021   199.0400     9.8438    -0.0127
  624   12.460   2960.43     9.5845     0.1124     0.0338     0.1246     9.5957     1.1653   199.3600     9.3964    -0.0104
  625   12.480   2961.45     9.3302     0.1091     0.0537     0.1248     9.3500     1.1542   199.6800     9.1503    -0.0085
  626   12.500   2962.48     8.8369     0.1049     0.0528     0.1250     8.8621     1.1655   200.0000     8.6621    -0.0075
  627   12.520   2963.51     8.6233     0.1003     0.0363     0.1252     8.6387     1.1671   200.3200     8.4384    -0.0105
  628   12.540   2964.53     9.1655     0.0902     0.0056     0.1254     9.1729     1.0130   200.6400     8.9722    -0.0120
  629   12.560   2965.56     9.8796     0.0820    -0.0174     0.1256     9.8744     0.8547   200.9600     9.6735    -0.0143
  630   12.580   2966.61    10.1379     0.0816    -0.0217     0.1258    10.1307     0.8051   201.2800     9.9294    -0.0144
  631   12.600   2967.61    10.0430     0.0853    -0.0350     0.1260    10.0307     0.8493   201.6000     9.8291    -0.0158
  632   12.620   2968.61    10.1886     0.0900    -0.0613     0.1262    10.1657     0.8886   201.9200     9.9638    -0.0181
  633   12.640   2969.65    10.3490     0.0912    -0.0590     0.1264    10.3234     0.8890   202.2400    10.1211    -0.0185
  634   12.660   2970.71    10.6136     0.0968    -0.0584     0.1266    10.5888     0.9235   202.5600    10.3862    -0.0179
  635   12.680   2971.73    10.7795     0.1029    -0.0571     0.1268    10.7550     0.9590   202.8800    10.5521    -0.0175
  636   12.700   2972.76    10.8183     0.1071    -0.0501     0.1270    10.7961     0.9903   203.2000    10.5929    -0.0170
  637   12.720   2973.78    10.7632     0.1123    -0.0409     0.1272    10.7448     1.0430   203.5200    10.5413    -0.0162
  638   12.740   2974.78    10.6542     0.1140    -0.0274     0.1274    10.6414     1.0624   203.8400    10.4375    -0.0151
  639   12.760   2975.79    10.5400     0.1148    -0.0198     0.1276    10.5303     1.0827   204.1600    10.3262    -0.0146
  640   12.780   2976.85    10.4173     0.1155    -0.0052     0.1278    10.4134     1.1076   204.4800    10.2089    -0.0134
  641   12.800   2977.83    10.3650     0.1150     0.0069     0.1280    10.3661     1.1075   204.8000    10.1613    -0.0123
  642   12.820   2978.85    10.3620     0.1136     0.0179     0.1282    10.3680     1.0964   205.1200    10.1629    -0.0112
  643   12.840   2979.87    10.3188     0.1130     0.0318     0.1284    10.3306     1.0913   205.4400    10.1252    -0.0099
  644   12.860   2980.90    10.2828     0.1141     0.0394     0.1286    10.2984     1.1089   205.7600    10.0927    -0.0091
  645   12.880   2981.93    10.1818     0.1135     0.0514     0.1288    10.2023     1.1107   206.0800     9.9962    -0.0080
  646   12.900   2982.94     9.8917     0.1121     0.0583     0.1290     9.9147     1.1161   206.4000     9.7083    -0.0076
  647   12.920   2983.98     9.5962     0.1123     0.0637     0.1292     9.6229     1.1550   206.7200     9.4162    -0.0070
  648   12.940   2984.98     9.3054     0.1081     0.0662     0.1294     9.3327     1.1435   207.0400     9.1257    -0.0071
  649   12.960   2985.98     8.9913     0.1038     0.0708     0.1296     9.0204     1.1449   207.3600     8.8131    -0.0068
  650   12.980   2987.04     8.6456     0.0977     0.0707     0.1298     8.6756     1.1264   207.6800     8.4679    -0.0069
  651   13.000   2988.04     8.2443     0.0900     0.0754     0.1300     8.2737     1.0779   208.0000     8.0657    -0.0074
  652   13.020   2989.07     7.8669     0.0844     0.0790     0.1302     7.9006     1.0693   208.3200     7.6923    -0.0065
  653   13.040   2990.09     7.6112     0.0801     0.0804     0.1304     7.6445     1.0495   208.6400     7.4359    -0.0069
  654   13.060   2991.06     7.3903     0.0859     0.0820     0.1306     7.4245     1.1601   208.9600     7.2155    -0.0068
  655   13.080   2992.09     7.1371     0.0937     0.0833     0.1308     7.1713     1.3082   209.2800     6.9620    -0.0071
  656   13.100   2993.08     6.9465     0.0985     0.0972     0.1310     6.9857     1.4157   209.6000     6.7761    -0.0055
  657   13.120   2994.08     6.8658     0.0889     0.0906     0.1312     6.9051     1.2940   209.9200     6.6951    -0.0056
  658   13.140   2995.10     6.9687     0.0865     0.0762     0.1314     7.0057     1.2441   210.2400     6.7955    -0.0064
  659   13.160   2996.12     7.2035     0.0822    -0.0608     0.1316     7.2004     1.1469   210.5600     6.9898    -0.0198
  660   13.180   2997.09     7.3461     0.0804    -0.1181     0.1318     7.2984     1.0990   210.8800     7.0875    -0.0346
  661   13.200   2998.12     8.0154     0.0756    -0.1185     0.1320     7.9658     0.9605   211.2000     7.7546    -0.0323
  662   13.220   2999.12     8.4453     0.0816    -0.1313     0.1322     8.3927     0.9710   211.5200     8.1811    -0.0315
  663   13.240   3000.10     8.3617     0.1073    -0.1362     0.1324     8.3045     1.2759   211.8400     8.0927    -0.0332
  664   13.260   3001.13     7.5492     0.1356    -0.1398     0.1326     7.4909     1.7599   212.1600     7.2788    -0.0373
  665   13.280   3002.10     6.4731     0.1504    -0.1379     0.1328     6.4145     2.2790   212.4800     6.2021    -0.0440
  666   13.300   3003.07     5.6302     0.1474    -0.1164     0.1330     5.5767     2.5905   212.8000     5.3639    -0.0485
  667   13.320   3004.04     5.1224     0.1430    -0.0784     0.1332     5.0840     2.7641   213.1200     4.8709    -0.0461
  668   13.340   3005.04     4.5524     0.1450    -0.0374     0.1334     4.5295     3.1710   213.4400     4.3161    -0.0435
  669   13.360   3006.08     4.0306     0.1490     0.0838     0.1336     4.0432     3.6733   213.7600     3.8294    -0.0268
  670   13.380   3007.06     3.8677     0.1350     0.1748     0.1338     3.9397     3.4617   214.0800     3.7256     0.0101
  671   13.400   3008.07     4.3100     0.1121     0.1228     0.1340     4.3668     2.8149   214.4000     4.1524     0.0005
  672   13.420   3009.07     5.8662     0.0982     0.0760     0.1342     5.9060     1.8639   214.7200     5.6913    -0.0068
  673   13.440   3010.13     7.5378     0.0936     0.0369     0.1344     7.5620     1.6084   215.0400     7.3470    -0.0104
  674   13.460   3011.13     8.0867     0.0897    -0.0315     0.1346     8.0791     1.3315   215.3600     7.8637    -0.0194
  675   13.480   3012.17     8.0584     0.0859    -0.0403     0.1348     8.0419     1.0574   215.6800     7.8263    -0.0222
  676   13.500   3013.15     7.8673     0.0750    -0.0425     0.1350     7.8497     0.9444   216.0000     7.6337    -0.0232
  677   13.520   3014.20     7.6747     0.0796    -0.0431     0.1352     7.6568     1.0277   216.3200     7.4404    -0.0239
  678   13.540   3020.91     7.5150     0.0816    -0.0118     0.1354     7.5041     1.0757   216.6400     7.2875    -0.0220
  679   13.560   3035.39     7.3426     0.0822     0.0293     0.1356     7.3489     1.0839   216.9600     7.1320    -0.0167
  680   13.580   3049.86     7.1702     0.0804     0.0704     0.1358     7.1938     1.0621   217.2800     6.9765    -0.0113
  681   13.600   3055.94     6.9431     0.0781     0.0743     0.1360     6.9726     1.1194   217.6000     6.7550    -0.0097
  682   13.620   3056.92     6.7568     0.0756     0.0685     0.1362     6.7860     1.1124   217.9200     6.5681    -0.0102
  683   13.640   3057.93     6.5001     0.0741     0.0768     0.1364     6.5310     1.1313   218.2400     6.3127    -0.0100
  684   13.660   3058.92     6.2979     0.0708     0.0827     0.1366     6.3316     1.1205   218.5600     6.1130    -0.0092
  685   13.680   3059.87     6.2619     0.0677     0.0958     0.1368     6.2988     1.0817   218.8800     6.0799    -0.0080
  686   13.700   3060.87     6.4096     0.0755     0.0992     0.1370     6.4504     1.1869   219.2000     6.2312    -0.0064
  687   13.720   3061.81     6.6647     0.0950     0.0733     0.1372     6.7046     1.4344   219.5200     6.4850    -0.0065
  688   13.740   3062.86     6.8393     0.1332     0.0057     0.1374     6.8488     1.9522   219.8400     6.6289    -0.0173
  689   13.760   3063.85     6.5067     0.1361    -0.0320     0.1376     6.4974     2.0402   220.1600     6.2773    -0.0255
  690   13.780   3064.83     5.1799     0.1163    -0.0170     0.1378     5.1656     2.1538   220.4800     4.9451    -0.0347
  691   13.800   3065.81     3.9191     0.0991    -0.0072     0.1380     3.9145     2.4953   220.8000     3.6937    -0.0404
  692   13.820   3066.75     3.2008     0.0849     0.0401     0.1382     3.2075     2.6165   221.1200     2.9863    -0.0410
  693   13.840   3067.74     3.2344     0.0797     0.0583     0.1384     3.2640     2.5645   221.4400     3.0426    -0.0223
  694   13.860   3068.72     4.8054     0.0768     0.1072     0.1386     4.8427     1.9747   221.7600     4.6209    -0.0111
  695   13.880   3069.81     7.2520     0.0769     0.0617     0.1388     7.2944     1.0837   222.0800     7.0723    -0.0052
  696   13.900   3070.82     8.6550     0.0732    -0.0180     0.1390     8.6574     0.9030   222.4000     8.4350    -0.0158
  697   13.920   3071.84     8.9985     0.0693    -0.0346     0.1392     8.9866     0.7711   222.7200     8.7639    -0.0191
  698   13.940   3072.87     9.0618     0.0803    -0.0372     0.1394     9.0460     0.8864   223.0400     8.8229    -0.0201
  699   13.960   3073.89     9.0121     0.1030    -0.0361     0.1396     8.9970     1.1410   223.3600     8.7736    -0.0200
  700   13.980   3074.89     8.8713     0.1227    -0.0335     0.1398     8.8564     1.3770   223.6800     8.6327    -0.0203
  701   14.000   3075.90     8.4295     0.1443    -0.0247     0.1400     8.4177     1.6849   224.0000     8.1937    -0.0205
  702   14.020   3076.92     7.5855     0.1665    -0.0112     0.1402     7.5782     2.1355   224.3200     7.3538    -0.0214
  703   14.040   3077.88     6.5074     0.1851     0.0053     0.1404     6.5069     2.7577   224.6400     6.2822    -0.0226
  704   14.060   3078.87     5.2442     0.1722     0.0182     0.1406     5.2494     3.1884   224.9600     5.0245    -0.0255
  705   14.080   3079.83     4.4097     0.1407     0.0454     0.1408     4.4233     2.9427   225.2800     4.1980    -0.0258
  706   14.100   3080.80     3.8488     0.1245     0.1023     0.1410     3.8852     3.2031   225.6000     3.6596    -0.0148
  707   14.120   3081.75     3.7804     0.1115     0.1583     0.1412     3.8403     2.9517   225.9200     3.6143     0.0003
  708   14.140   3082.78     3.8000     0.1019     0.2287     0.1414     3.8758     2.6854   226.2400     3.6495     0.0107
  709   14.160   3083.85     5.6142     0.1003     0.2355     0.1416     5.7180     1.8532   226.5600     5.4914     0.0194
  710   14.180   3084.86     7.5788     0.0990     0.1085     0.1418     7.6507     1.3410   226.8800     7.4238     0.0042
  711   14.200   3085.87     8.7073     0.0959     0.0177     0.1420     8.7211     1.1026   227.2000     8.4939    -0.0128
  712   14.220   3086.81     8.6539     0.0944    -0.0092     0.1422     8.6517     1.0876   227.5200     8.4242    -0.0175
  713   14.240   3087.83     8.2763     0.0869    -0.0157     0.1424     8.2698     1.0447   227.8400     8.0419    -0.0197
  714   14.260   3088.84     7.8636     0.0895    -0.0135     0.1426     7.8567     1.1306   228.1600     7.6285    -0.0208
  715   14.280   3089.84     7.4600     0.0850     0.0061     0.1428     7.4587     1.1323   228.4800     7.2302    -0.0202
  716   14.300   3090.84     7.4072     0.0816     0.0388     0.1430     7.4176     1.1051   228.8000     7.1888    -0.0165
  717   14.320   3091.82     7.7422     0.0799     0.0118     0.1432     7.7542     1.0375   229.1200     7.5251    -0.0152
  718   14.340   3092.83     7.7031     0.0828    -0.0220     0.1434     7.6946     1.0703   229.4400     7.4651    -0.0219
  719   14.360   3093.82     7.3551     0.0998    -0.0386     0.1436     7.3412     1.3458   229.7600     7.1114    -0.0249
  720   14.380   3094.81     6.8307     0.1188    -0.0440     0.1438     6.8122     1.7231   230.0800     6.5821    -0.0285
  721   14.400   3095.79     6.1562     0.1348    -0.0378     0.1440     6.1384     2.1657   230.4000     5.9080    -0.0315
  722   14.420   3096.78     5.3549     0.1362    -0.0255     0.1442     5.3418     2.5116   230.7200     5.1111    -0.0343
  723   14.440   3097.79     4.9650     0.1395     0.0093     0.1444     4.9630     2.7903   231.0400     4.7320    -0.0315
  724   14.460   3098.80     4.6697     0.1293     0.0658     0.1446     4.6876     2.7540   231.3600     4.4562    -0.0229
  725   14.480   3099.80     4.5007     0.1190     0.0698     0.1448     4.5393     2.6277   231.6800     4.3077    -0.0123
  726   14.500   3100.81     4.5576     0.1082     0.0837     0.1450     4.5857     2.4360   232.0000     4.3537    -0.0180
  727   14.520   3101.82     5.4011     0.0947     0.0705     0.1452     5.4319     1.9171   232.3200     5.1996    -0.0138
  728   14.540   3102.86     7.2328     0.0798     0.0172     0.1454     7.2480     1.3146   232.6400     7.0153    -0.0155
  729   14.560   3103.87     9.3311     0.0712    -0.0622     0.1456     9.3152     0.8548   232.9600     9.0822    -0.0202
  730   14.580   3104.91    10.7441     0.0775    -0.1205     0.1458    10.6995     0.7660   233.2800    10.4662    -0.0241
  731   14.600   3105.95    11.4484     0.0873    -0.1460     0.1460    11.3908     0.7802   233.6000    11.1572    -0.0254
  732   14.620   3106.94    11.6758     0.1049    -0.1561     0.1462    11.6122     0.9046   233.9200    11.3783    -0.0261
  733   14.640   3107.97    11.6165     0.1232    -0.1582     0.1464    11.5501     1.0569   234.2400    11.3158    -0.0269
  734   14.660   3108.96    11.4556     0.1323    -0.1585     0.1466    11.3891     1.1470   234.5600    11.1545    -0.0274
  735   14.680   3109.99    11.3040     0.1362    -0.1519     0.1468    11.2392     1.1998   234.8800    11.0043    -0.0274
  736   14.700   3111.04    11.2393     0.1334    -0.1408     0.1470    11.1786     1.1855   235.2000    10.9434    -0.0266
  737   14.720   3112.06    11.4171     0.1287    -0.1290     0.1472    11.3611     1.1387   235.5200    11.1256    -0.0252
  738   14.740   3113.07    11.7879     0.1302    -0.1143     0.1474    11.7374     1.1197   235.8400    11.5015    -0.0233
  739   14.760   3114.09    12.2276     0.1334    -0.0977     0.1476    12.1842     1.1045   236.1600    11.9480    -0.0210
  740   14.780   3115.12    12.6290     0.1397    -0.0832     0.1478    12.5928     1.1232   236.4800    12.3564    -0.0189
  741   14.800   3116.17    13.0731     0.1468    -0.0816     0.1480    13.0383     1.1417   236.8000    12.8015    -0.0180
  742   14.820   3117.21    13.2095     0.1605    -0.0775     0.1482    13.1756     1.2193   237.1200    12.9384    -0.0177
  743   14.840   3118.26    12.9679     0.1705    -0.0664     0.1484    12.9383     1.3037   237.4400    12.7008    -0.0172
  744   14.860   3119.25    12.4482     0.1740    -0.0545     0.1486    12.4234     1.3939   237.7600    12.1857    -0.0170
  745   14.880   3120.26    11.6667     0.1763    -0.0464     0.1488    11.6462     1.4562   238.0800    11.4081    -0.0173
  746   14.900   3121.26    10.5229     0.1748    -0.0345     0.1490    10.5066     1.5836   238.4000    10.2682    -0.0183
  747   14.920   3122.33     9.4184     0.1737    -0.0162     0.1492     9.4088     1.7588   238.7200     9.1701    -0.0188
  748   14.940   3123.34     8.8544     0.1695     0.0132     0.1494     8.8552     1.8680   239.0400     8.6161    -0.0171
  749   14.960   3124.36     8.6521     0.1484     0.0482     0.1496     8.6665     1.6939   239.3600     8.4271    -0.0137
  750   14.980   3125.38     8.3301     0.1292     0.0140     0.1498     8.3487     1.5215   239.6800     8.1090    -0.0130
  751   15.000   3126.39     8.0220     0.1110    -0.0496     0.1500     8.0125     1.3650   240.0000     7.7725    -0.0222
  752   15.020   3127.39     8.6567     0.0992    -0.0823     0.1502     8.6229     1.1922   240.3200     8.3826    -0.0275
  753   15.040   3128.46     9.7749     0.0776    -0.1087     0.1504     9.7350     0.8376   240.6400     9.4943    -0.0258
  754   15.060   3129.48    10.3755     0.0742    -0.1403     0.1506    10.3207     0.7179   240.9600    10.0797    -0.0279
  755   15.080   3130.52    10.4439     0.0744    -0.1671     0.1508    10.3770     0.7134   241.2800    10.1357    -0.0306
  756   15.100   3131.52    10.5138     0.0764    -0.1808     0.1510    10.4395     0.7288   241.6000    10.1979    -0.0322
  757   15.120   3132.51    10.5859     0.0870    -0.1854     0.1512    10.5086     0.8238   241.9200    10.2667    -0.0327
  758   15.140   3133.53    10.2875     0.0949    -0.1881     0.1514    10.2090     0.9159   242.2400     9.9668    -0.0340
  759   15.160   3134.57     9.8812     0.0978    -0.1886     0.1516     9.8015     0.9749   242.5600     9.5590    -0.0357
  760   15.180   3135.58     9.9802     0.0967    -0.1775     0.1518     9.9040     0.9814   242.8800     9.6611    -0.0345
  761   15.200   3136.63    10.5204     0.0907    -0.1671     0.1520    10.4492     0.8860   243.2000    10.2060    -0.0315
  762   15.220   3137.60    10.9673     0.0895    -0.1653     0.1522    10.8977     0.8314   243.5200    10.6542    -0.0298
  763   15.240   3138.62    11.1836     0.0980    -0.1604     0.1524    11.1158     0.8797   243.8400    10.8719    -0.0289
  764   15.260   3139.69    11.1254     0.1062    -0.1547     0.1526    11.0596     0.9533   244.1600    10.8155    -0.0286
  765   15.280   3140.72    10.9449     0.1117    -0.1524     0.1528    10.8812     1.0196   244.4800    10.6367    -0.0286
  766   15.300   3141.75    10.6162     0.1260    -0.1561     0.1530    10.5514     1.1827   244.8000    10.3066    -0.0298
  767   15.320   3142.75     9.9945     0.1404    -0.1596     0.1532     9.9279     1.3989   245.1200     9.6827    -0.0322
  768   15.340   3143.75     9.1899     0.1452    -0.1523     0.1534     9.1249     1.5667   245.4400     8.8795    -0.0347
  769   15.360   3144.73     8.3928     0.1328    -0.1420     0.1536     8.3314     1.5172   245.7600     8.0856    -0.0371
  770   15.380   3145.73     7.8064     0.1248    -0.1300     0.1538     7.7499     1.5547   246.0800     7.5039    -0.0384
  771   15.400   3146.73     7.8099     0.1182    -0.1151     0.1540     7.7589     1.5271   246.4000     7.5125    -0.0367
  772   15.420   3147.78     8.4022     0.0961    -0.0907     0.1542     8.3609     1.1837   246.7200     8.1142    -0.0311
  773   15.440   3148.85     9.4168     0.0827    -0.0811     0.1544     9.3814     0.9191   247.0400     9.1344    -0.0261
  774   15.460   3149.81    10.2025     0.0884    -0.1221     0.1546    10.1613     0.9033   247.3600     9.9140    -0.0255
  775   15.480   3150.85    10.6662     0.0942    -0.1607     0.1548    10.6036     0.8949   247.6800    10.3560    -0.0293
  776   15.500   3151.87    11.0749     0.1070    -0.1799     0.1550    11.0006     0.9808   248.0000    10.7526    -0.0309
  777   15.520   3152.96    11.4015     0.1249    -0.1830     0.1552    11.3251     1.1053   248.3200    11.0768    -0.0304
  778   15.540   3154.04    11.6138     0.1374    -0.1641     0.1554    11.5361     1.1904   248.6400    11.2875    -0.0302
  779   15.560   3171.81    11.6991     0.1485    -0.0235     0.1556    11.6688     1.2778   248.9600    11.4198    -0.0201
  780   15.580   3193.56    11.7912     0.1552     0.0944     0.1558    11.8200     1.3348   249.2800    11.5707    -0.0076
  781   15.600   3198.56    12.0126     0.1587     0.0893     0.1560    12.0501     1.3304   249.6000    11.8005    -0.0057
  782   15.620   3199.63    12.2533     0.1645     0.0927     0.1562    12.2920     1.3542   249.9200    12.0421    -0.0053
  783   15.640   3200.63    12.2858     0.1685     0.0951     0.1564    12.3258     1.3722   250.2400    12.0756    -0.0051
  784   15.660   3201.63    12.1472     0.1702     0.0999     0.1566    12.1878     1.3935   250.5600    11.9373    -0.0050
  785   15.680   3202.65    12.1036     0.1691     0.1046     0.1568    12.1473     1.3959   250.8800    11.8964    -0.0044
  786   15.700   3203.69    12.0330     0.1656     0.1034     0.1570    12.0768     1.3720   251.2000    11.8256    -0.0045
  787   15.720   3204.68    11.8330     0.1631     0.0964     0.1572    11.8751     1.3668   251.5200    11.6235    -0.0049
  788   15.740   3205.71    11.6086     0.1619     0.0881     0.1574    11.6455     1.3927   251.8400    11.3937    -0.0061
  789   15.760   3206.71    11.2613     0.1574     0.0735     0.1576    11.2955     1.3745   252.1600    11.0434    -0.0069
  790   15.780   3207.72    11.0181     0.1511     0.0665     0.1578    11.0462     1.3589   252.4800    10.7937    -0.0084
  791   15.800   3208.71    10.9180     0.1428     0.0735     0.1580    10.9480     1.3053   252.8000    10.6952    -0.0081
  792   15.820   3209.77    10.9662     0.1395     0.0712     0.1582    10.9981     1.2727   253.1200    10.7450    -0.0077
  793   15.840   3210.80    10.9865     0.1363     0.0531     0.1584    11.0104     1.2396   253.4400    10.7570    -0.0094
  794   15.860   3211.82    10.9737     0.1279     0.0299     0.1586    10.9901     1.1676   253.7600    10.7364    -0.0111
  795   15.880   3212.82    11.0136     0.1200    -0.0010     0.1588    11.0188     1.0909   254.0800    10.7647    -0.0136
  796   15.900   3213.87    10.9402     0.1221    -0.0212     0.1590    10.9331     1.1135   254.4000    10.6787    -0.0165
  797   15.920   3214.87    10.5054     0.1292    -0.0410     0.1592    10.4915     1.2204   254.7200    10.2368    -0.0188
  798   15.940   3215.87     9.4701     0.1435    -0.0532     0.1594     9.4481     1.5070   255.0400     9.1931    -0.0230
  799   15.960   3216.91     8.3918     0.1504    -0.0464     0.1596     8.3712     1.7673   255.3600     8.1158    -0.0257
  800   15.980   3217.94     7.4126     0.1440    -0.0351     0.1598     7.3960     1.9139   255.6800     7.1403    -0.0279
  801   16.000   3218.91     6.8612     0.1599    -0.0135     0.1600     6.8503     2.3231   256.0000     6.5943    -0.0282
  802   16.020   3219.91     6.6032     0.1939     0.0200     0.1602     6.6107     2.9168   256.3200     6.3544    -0.0224
  803   16.040   3220.94     5.8375     0.1889    -0.0641     0.1604     5.8258     3.1204   256.6400     5.5691    -0.0342
  804   16.060   3221.90     4.6142     0.1766    -0.0817     0.1606     4.5809     3.6836   256.9600     4.3240    -0.0556
  805   16.080   3222.92     3.8222     0.1497    -0.0602     0.1608     3.7937     3.7722   257.2800     3.5364    -0.0647
  806   16.100   3223.91     3.0261     0.1253    -0.0088     0.1610     3.0155     3.9896   257.6000     2.7579    -0.0675
  807   16.120   3224.91     2.4035     0.1096     0.0133     0.1612     2.4017     4.4025   257.9200     2.1438    -0.0771
  808   16.140   3225.89     2.1146     0.0885     0.1104     0.1614     2.1550     4.2088   258.2400     1.8968    -0.0345
  809   16.160   3226.85     2.2101     0.0643     0.2028     0.1616     2.2858     2.9196   258.5600     2.0272     0.0092
  810   16.180   3227.85     2.1692     0.0511     0.1740     0.1618     2.2461     2.3447   258.8800     1.9873     0.0108
  811   16.200   3228.85     2.0528     0.0609     0.2020     0.1620     2.1326     2.9249   259.2000     1.8734     0.0150
  812   16.220   3229.83     2.0694     0.0651     0.3019     0.1622     2.1850     3.1981   259.5200     1.9255     0.0586
  813   16.240   3230.81     2.4177     0.0600     0.3252     0.1624     2.5544     2.5770   259.8400     2.2946     0.0712
  814   16.260   3231.76     2.9147     0.0637     0.1954     0.1626     3.0129     2.2313   260.1600     2.7527     0.0259
  815   16.280   3232.76     2.8865     0.0872     0.1437     0.1628     2.9577     3.0291   260.4800     2.6972     0.0025
  816   16.300   3233.76     2.7258     0.1022     0.1841     0.1630     2.7958     3.6966   260.8000     2.5350     0.0015
  817   16.320   3234.78     2.9913     0.1038     0.1676     0.1632     3.0642     3.5504   261.1200     2.8031     0.0038
  818   16.340   3235.73     3.3490     0.1019     0.1389     0.1634     3.4097     3.0703   261.4400     3.1482    -0.0060
  819   16.360   3236.72     3.5155     0.0811     0.0798     0.1636     3.5600     2.2766   261.7600     3.2983    -0.0175
  820   16.380   3237.72     2.9909     0.0640     0.0745     0.1638     3.0164     1.9748   262.0800     2.7543    -0.0375
  821   16.400   3238.72     2.4893     0.0563     0.0968     0.1640     2.5309     2.1344   262.4000     2.2685    -0.0285
  822   16.420   3239.77     2.8714     0.0511     0.1733     0.1642     2.9241     2.0383   262.7200     2.6614    -0.0146
  823   16.440   3240.72     4.1555     0.0485     0.2690     0.1644     4.2578     1.3663   263.0400     3.9948     0.0196
  824   16.460   3241.76     5.7105     0.0595     0.0584     0.1646     5.7658     1.0637   263.3600     5.5025    -0.0058
  825   16.480   3242.82     7.0443     0.0605    -0.0115     0.1648     7.0456     0.9345   263.6800     6.7819    -0.0239
  826   16.500   3243.82     7.5438     0.0583    -0.0617     0.1650     7.5278     0.7907   264.0000     7.2638    -0.0279
  827   16.520   3244.86     7.9906     0.0585    -0.0716     0.1652     7.9595     0.7366   264.3200     7.6952    -0.0311
  828   16.540   3245.87     8.8899     0.0621    -0.1098     0.1654     8.8514     0.7036   264.6400     8.5868    -0.0299
  829   16.560   3246.86     9.7563     0.0580    -0.1526     0.1656     9.6952     0.5974   264.9600     9.4302    -0.0330
  830   16.580   3247.89    10.1310     0.0692    -0.1814     0.1658    10.0583     0.6837   265.2800     9.7931    -0.0346
  831   16.600   3248.88    10.1649     0.0892    -0.1939     0.1660    10.0844     0.8774   265.6000     9.8188    -0.0364
  832   16.620   3249.88     9.8777     0.1099    -0.2034     0.1662     9.7938     1.0934   265.9200     9.5279    -0.0384
  833   16.640   3250.88     9.2308     0.1098    -0.2088     0.1664     9.1438     1.1846   266.2400     8.8775    -0.0421
  834   16.660   3251.88     8.6425     0.1137    -0.2071     0.1666     8.5551     1.3115   266.5600     8.2886    -0.0452
  835   16.680   3252.89     8.6219     0.1057    -0.1949     0.1668     8.5371     1.2287   266.8800     8.2702    -0.0446
  836   16.700   3253.88     8.7776     0.0956    -0.1853     0.1670     8.7003     1.0944   267.2000     8.4331    -0.0416
  837   16.720   3254.93     9.4001     0.0971    -0.1982     0.1672     9.3183     1.0654   267.5200     9.0508    -0.0400
  838   16.740   3255.93     9.7984     0.1004    -0.2032     0.1674     9.7134     1.0401   267.8400     9.4455    -0.0392
  839   16.760   3256.92     9.8351     0.0877    -0.2039     0.1676     9.7496     0.8893   268.1600     9.4815    -0.0391
  840   16.780   3257.94     9.6334     0.0819    -0.2023     0.1678     9.5481     0.8404   268.4800     9.2797    -0.0400
  841   16.800   3258.96     9.5648     0.0860    -0.1981     0.1680     9.4813     0.8979   268.8000     9.2125    -0.0398
  842   16.820   3259.99     9.7639     0.0859    -0.1968     0.1682     9.6810     0.8869   269.1200     9.4119    -0.0388
  843   16.840   3261.02    10.0232     0.0915    -0.1920     0.1684     9.9418     0.9133   269.4400     9.6724    -0.0374
  844   16.860   3262.02     9.8112     0.1049    -0.1865     0.1686     9.7321     1.0505   269.7600     9.4623    -0.0377
  845   16.880   3263.04     9.1265     0.1103    -0.1841     0.1688     9.0488     1.1836   270.0800     8.7788    -0.0403
  846   16.900   3264.04     8.3645     0.1035    -0.1818     0.1690     8.2879     1.2110   270.4000     8.0175    -0.0438
  847   16.920   3265.05     8.0747     0.1120    -0.1810     0.1692     7.9982     1.3737   270.7200     7.7275    -0.0454
  848   16.940   3266.05     8.5796     0.1033    -0.1737     0.1694     8.5056     1.2274   271.0400     8.2346    -0.0420
  849   16.960   3267.10     9.3064     0.0847    -0.1752     0.1696     9.2339     0.9331   271.3600     8.9625    -0.0382
  850   16.980   3268.14     9.5986     0.0851    -0.2069     0.1698     9.5168     0.8862   271.6800     9.2451    -0.0394
  851   17.000   3269.15     9.2779     0.0794    -0.2158     0.1700     9.1876     0.8511   272.0000     8.9156    -0.0432
  852   17.020   3270.15     8.6929     0.0893    -0.2147     0.1702     8.6023     1.0217   272.3200     8.3300    -0.0463
  853   17.040   3271.15     8.1280     0.1187    -0.2173     0.1704     8.0378     1.4557   272.6400     7.7651    -0.0496
  854   17.060   3272.15     7.6707     0.1335    -0.2269     0.1706     7.5763     1.7131   272.9600     7.3034    -0.0541
  855   17.080   3273.16     7.4367     0.1282    -0.2251     0.1708     7.3413     1.7179   273.2800     7.0680    -0.0563
  856   17.100   3274.14     7.2287     0.1251    -0.2192     0.1710     7.1359     1.7237   273.6000     6.8623    -0.0571
  857   17.120   3275.19     7.1815     0.1088    -0.2093     0.1712     7.0919     1.5177   273.9200     6.8180    -0.0564
  858   17.140   3276.19     7.7777     0.0931    -0.2093     0.1714     7.6906     1.2124   274.2400     7.4163    -0.0511
  859   17.160   3277.21     9.0158     0.0897    -0.2187     0.1716     8.9261     1.0189   274.5600     8.6516    -0.0445
  860   17.180   3278.17     9.5930     0.0897    -0.2264     0.1718     9.4987     0.9380   274.8800     9.2238    -0.0430
  861   17.200   3279.17     9.2738     0.0793    -0.2324     0.1720     9.1769     0.8498   275.2000     8.9017    -0.0452
  862   17.220   3280.17     8.4735     0.0867    -0.2348     0.1722     8.3754     1.0158   275.5200     8.0999    -0.0501
  863   17.240   3281.19     7.4744     0.0975    -0.2379     0.1724     7.3749     1.2875   275.8400     7.0990    -0.0577
  864   17.260   3282.15     6.6809     0.1161    -0.2383     0.1726     6.5806     1.7231   276.1600     6.3044    -0.0653
  865   17.280   3283.17     6.5834     0.1134    -0.2331     0.1728     6.4845     1.7311   276.4800     6.2080    -0.0658
  866   17.300   3284.17     6.7680     0.1053    -0.2252     0.1730     6.6723     1.5597   276.8000     6.3955    -0.0627
  867   17.320   3285.17     6.8561     0.0957    -0.2191     0.1732     6.7637     1.3962   277.1200     6.4866    -0.0606
  868   17.340   3286.17     6.7681     0.0881    -0.2206     0.1734     6.6767     1.2968   277.4400     6.3992    -0.0611
  869   17.360   3287.17     6.5164     0.0966    -0.2346     0.1736     6.4201     1.4751   277.7600     6.1423    -0.0656
  870   17.380   3288.13     6.1516     0.1062    -0.2438     0.1738     6.0499     1.7186   278.0800     5.7718    -0.0721
  871   17.400   3289.13     5.5145     0.1209    -0.2472     0.1740     5.4114     2.0905   278.4000     5.1330    -0.0818
  872   17.420   3290.14     4.6678     0.1063    -0.2523     0.1742     4.5624     2.1998   278.7200     4.2837    -0.0995
  873   17.440   3291.11     4.0243     0.0996    -0.2527     0.1744     3.9182     2.4009   279.0400     3.6392    -0.1175
  874   17.460   3292.15     3.9729     0.0880    -0.2508     0.1746     3.8669     2.3035   279.3600     3.5875    -0.1192
  875   17.480   3293.16     5.0471     0.0866    -0.2483     0.1748     4.9424     1.9706   279.6800     4.6627    -0.0914
  876   17.500   3294.18     6.5048     0.0889    -0.2487     0.1750     6.4007     1.7522   280.0000     6.1207    -0.0692
  877   17.520   3297.52     6.7582     0.0912    -0.2480     0.1752     6.6541     1.5337   280.3200     6.3738    -0.0674
  878   17.540   3298.49     7.1703     0.0986    -0.2461     0.1754     7.0667     1.3396   280.6400     6.7860    -0.0623
  879   17.560   3299.49     6.4339     0.1055    -0.2436     0.1756     6.3312     1.5864   280.9600     6.0502    -0.0695
  880   17.580   3303.71     5.8053     0.1171    -0.1963     0.1758     5.7110     1.9552   281.2800     5.4298    -0.0733
  881   17.600   3318.81     5.3636     0.1123    -0.1148     0.1760     5.3035     1.9010   281.6000     5.0219    -0.0619
  882   17.620   3333.90     4.9218     0.1316    -0.0332     0.1762     4.8961     2.2288   281.9200     4.6142    -0.0505
  883   17.640   3340.81     4.4415     0.1441    -0.1012     0.1764     4.4101     3.1836   282.2400     4.1278    -0.0609
  884   17.660   3341.81     4.1433     0.1345    -0.1109     0.1766     4.0975     3.2282   282.5600     3.8150    -0.0749
  885   17.680   3342.76     3.8809     0.1135    -0.1213     0.1768     3.8322     2.8685   282.8800     3.5494    -0.0825
  886   17.700   3343.73     3.5655     0.1061    -0.1227     0.1770     3.5129     2.9369   283.2000     3.2297    -0.0936
  887   17.720   3344.73     3.6585     0.1133    -0.1092     0.1772     3.6112     3.1572   283.5200     3.3276    -0.0871
  888   17.740   3345.73     4.1397     0.1227    -0.0842     0.1774     4.1023     3.0535   283.8400     3.8185    -0.0698
  889   17.760   3346.72     4.2623     0.1132    -0.0979     0.1776     4.2280     2.6369   284.1600     3.9438    -0.0658
  890   17.780   3347.72     3.9579     0.0946    -0.1153     0.1778     3.9094     2.3342   284.4800     3.6250    -0.0809
  891   17.800   3348.69     3.2975     0.0789    -0.0966     0.1780     3.2540     2.2819   284.8000     2.9692    -0.0949
  892   17.820   3349.65     2.7112     0.0792    -0.0968     0.1782     2.6716     2.7964   285.1200     2.3865    -0.1146
  893   17.840   3350.63     2.1793     0.0737    -0.0832     0.1784     2.1406     3.2634   285.4400     1.8552    -0.1460
  894   17.860   3351.63     2.0117     0.0600    -0.0527     0.1786     1.9859     2.9575   285.7600     1.7002    -0.1411
  895   17.880   3352.62     2.0054     0.0447    -0.0419     0.1788     1.9867     2.2262   286.0800     1.7006    -0.1313
  896   17.900   3353.58     1.9712     0.0490    -0.0237     0.1790     1.9586     2.4786   286.4000     1.6722    -0.1249
  897   17.920   3354.57     2.1059     0.0582    -0.0052     0.1792     2.1011     2.7830   286.7200     1.8144    -0.1052
  898   17.940   3355.53     2.3062     0.0640     0.0220     0.1794     2.3097     2.8068   287.0400     2.0226    -0.0850
  899   17.960   3356.52     2.7744     0.0727     0.0140     0.1796     2.7840     2.7027   287.3600     2.4966    -0.0630
  900   17.980   3357.57     3.1382     0.0830    -0.0229     0.1798     3.1309     2.6375   287.6800     2.8432    -0.0694
  901   18.000   3358.56     3.0312     0.0864    -0.0152     0.1800     3.0257     2.8381   288.0000     2.7377    -0.0705
  902   18.020   3359.55     2.8594     0.0878    -0.0371     0.1802     2.8462     3.0422   288.3200     2.5579    -0.0828
  903   18.040   3360.56     2.7289     0.0861    -0.0307     0.1804     2.7141     3.1413   288.6400     2.4255    -0.0889
  904   18.060   3361.51     2.9348     0.0707    -0.0082     0.1806     2.9267     2.4702   288.9600     2.6377    -0.0761
  905   18.080   3362.49     3.7460     0.0770     0.0188     0.1808     3.7536     2.1808   289.2800     3.4643    -0.0474
  906   18.100   3363.50     4.6680     0.0947    -0.0276     0.1810     4.6656     2.0669   289.6000     4.3760    -0.0427
  907   18.120   3364.54     5.1598     0.0850    -0.0898     0.1812     5.1286     1.6571   289.9200     4.8387    -0.0528
  908   18.140   3365.54     5.0729     0.0915    -0.1019     0.1814     5.0309     1.7898   290.2400     4.7407    -0.0594
  909   18.160   3366.49     4.8508     0.1023    -0.0994     0.1816     4.8086     2.0928   290.5600     4.5181    -0.0624
  910   18.180   3367.45     4.5431     0.1026    -0.0971     0.1818     4.5023     2.2307   290.8800     4.2114    -0.0662
  911   18.200   3368.45     4.2641     0.1070    -0.1164     0.1820     4.2196     2.5102   291.2000     3.9284    -0.0733
  912   18.220   3369.45     4.2963     0.1181    -0.1286     0.1822     4.2440     2.7645   291.5200     3.9525    -0.0776
  913   18.240   3370.47     3.9825     0.1088    -0.1246     0.1824     3.9307     2.6331   291.8400     3.6389    -0.0842
  914   18.260   3371.44     3.3138     0.0911    -0.1365     0.1826     3.2566     2.6579   292.1600     2.9644    -0.1078
  915   18.280   3372.43     2.8403     0.0874    -0.1366     0.1828     2.7835     2.9987   292.4800     2.4910    -0.1279
  916   18.300   3373.38     2.4821     0.0819    -0.1307     0.1830     2.4252     3.2286   292.8000     2.1324    -0.1494
  917   18.320   3374.36     2.2158     0.0709    -0.1127     0.1832     2.1643     3.1310   293.1200     1.8712    -0.1634
  918   18.340   3375.38     2.1379     0.0731    -0.0896     0.1834     2.0974     3.4700   293.4400     1.8039    -0.1555
  919   18.360   3376.37     2.5000     0.0669    -0.0881     0.1836     2.4628     2.7081   293.7600     2.1690    -0.1255
  920   18.380   3377.34     2.6959     0.0637    -0.0955     0.1838     2.6562     2.3989   294.0800     2.3621    -0.1179
  921   18.400   3378.29     2.7275     0.0631    -0.0879     0.1840     2.6870     2.3047   294.4000     2.3926    -0.1172
  922   18.420   3379.29     2.7327     0.0674    -0.0829     0.1842     2.6982     2.4692   294.7200     2.4034    -0.1108
  923   18.440   3380.31     2.6625     0.0664    -0.0692     0.1844     2.6307     2.5035   295.0400     2.3357    -0.1114
  924   18.460   3381.31     3.0729     0.0654    -0.0589     0.1846     3.0460     2.1569   295.3600     2.7506    -0.0906
  925   18.480   3382.31     4.0584     0.0731    -0.0627     0.1848     4.0345     1.8380   295.6800     3.7389    -0.0649
  926   18.500   3383.35     5.6486     0.0786    -0.0994     0.1850     5.6120     1.4345   296.0000     5.3160    -0.0512
  927   18.520   3384.36     6.8773     0.0993    -0.1322     0.1852     6.8249     1.4686   296.3200     6.5285    -0.0475
  928   18.540   3385.36     6.8475     0.1187    -0.1571     0.1854     6.7836     1.7259   296.6400     6.4870    -0.0520
  929   18.560   3386.35     6.7538     0.1076    -0.1669     0.1856     6.6853     1.5910   296.9600     6.3883    -0.0546
  930   18.580   3387.35     6.3449     0.1038    -0.1752     0.1858     6.2726     1.6140   297.2800     5.9753    -0.0599
  931   18.600   3388.35     5.6932     0.1100    -0.1780     0.1860     5.6182     1.9079   297.6000     5.3206    -0.0686
  932   18.620   3389.35     5.2624     0.1081    -0.1712     0.1862     5.1899     2.0506   297.9200     4.8920    -0.0733
  933   18.640   3390.31     5.4392     0.1086    -0.1765     0.1864     5.3658     2.0071   298.2400     5.0676    -0.0713
  934   18.660   3391.37     6.3505     0.1233    -0.1867     0.1866     6.2734     1.9891   298.5600     5.9749    -0.0620
  935   18.680   3392.35     6.6428     0.1362    -0.1866     0.1868     6.5650     2.0487   298.8800     6.2661    -0.0594
  936   18.700   3393.35     6.1169     0.1201    -0.1893     0.1870     6.0375     1.9130   299.2000     5.7383    -0.0656
  937   18.720   3394.30     5.3436     0.1164    -0.1917     0.1872     5.2632     2.1337   299.5200     4.9637    -0.0763
  938   18.740   3395.26     4.5786     0.1067    -0.1842     0.1874     4.4996     2.3104   299.8400     4.1997    -0.0894
  939   18.760   3396.31     3.8819     0.1087    -0.1735     0.1876     3.8085     2.7534   300.1600     3.5083    -0.1034
  940   18.780   3397.26     3.4799     0.1213    -0.1659     0.1878     3.4081     3.4692   300.4800     3.1076    -0.1154
  941   18.800   3398.26     3.8163     0.1221    -0.1566     0.1880     3.7513     3.2290   300.8000     3.4505    -0.0994
  942   18.820   3399.28     4.3333     0.1088    -0.1644     0.1882     4.2661     2.5415   301.1200     3.9650    -0.0878
  943   18.840   3400.28     4.9564     0.1134    -0.1736     0.1884     4.8839     2.3163   301.4400     4.5824    -0.0788
  944   18.860   3401.28     5.8122     0.1255    -0.1764     0.1886     5.7391     2.1728   301.7600     5.4374    -0.0667
  945   18.880   3402.28     6.1695     0.1260    -0.1951     0.1888     6.0903     2.0497   302.0800     5.7882    -0.0652
  946   18.900   3403.31     6.6927     0.1555    -0.2036     0.1890     6.6078     2.3413   302.4000     6.3054    -0.0620
  947   18.920   3404.31     7.0165     0.1705    -0.2019     0.1892     6.9316     2.4677   302.7200     6.6289    -0.0590
  948   18.940   3405.33     6.5166     0.1457    -0.2070     0.1894     6.4310     2.2251   303.0400     6.1280    -0.0642
  949   18.960   3406.32     5.8803     0.1342    -0.2105     0.1896     5.7915     2.2639   303.3600     5.4882    -0.0731
  950   18.980   3407.32     5.1101     0.1348    -0.2048     0.1898     5.0225     2.6054   303.6800     4.7188    -0.0845
  951   19.000   3408.34     4.6986     0.1510    -0.1957     0.1900     4.6161     3.2091   304.0000     4.3121    -0.0897
  952   19.020   3409.33     4.7878     0.1451    -0.1886     0.1902     4.7084     3.0355   304.3200     4.4041    -0.0861
  953   19.040   3410.38     5.0119     0.1441    -0.1941     0.1904     4.9330     2.8824   304.6400     4.6283    -0.0818
  954   19.060   3411.39     4.9674     0.1245    -0.1998     0.1906     4.8839     2.4967   304.9600     4.5789    -0.0850
  955   19.080   3412.34     4.5880     0.1253    -0.1925     0.1908     4.5059     2.6976   305.2800     4.2006    -0.0920
  956   19.100   3413.34     4.1462     0.1240    -0.1838     0.1910     4.0678     2.8856   305.6000     3.7622    -0.1004
  957   19.120   3414.30     4.2476     0.1308    -0.1792     0.1912     4.1721     3.1174   305.9200     3.8661    -0.0960
  958   19.140   3415.38     4.5904     0.1286    -0.1702     0.1914     4.5189     2.7386   306.2400     4.2127    -0.0861
  959   19.160   3416.38     5.3687     0.1262    -0.1770     0.1916     5.2953     2.3694   306.5600     4.9888    -0.0734
  960   19.180   3417.39     6.0866     0.1236    -0.1771     0.1918     6.0134     2.1174   306.8800     5.7065    -0.0643
  961   19.200   3418.43     7.4836     0.1127    -0.1818     0.1920     7.4074     1.5791   307.2000     7.1002    -0.0528
  962   19.220   3419.47    10.3650     0.1007    -0.1911     0.1922    10.2872     1.1349   307.5200     9.9797    -0.0381
  963   19.240   3421.66    14.1742     0.0864    -0.2016     0.1924    14.0911     0.7464   307.8400    13.7832    -0.0299
  964   19.260   3424.34    17.8898     0.0807    -0.2121     0.1926    17.8022     0.6968   308.1600    17.4941    -0.0237
  965   19.280   3427.22    19.5665     0.0755    -0.2104     0.1928    19.4780     0.4149   308.4800    19.1695    -0.0211
  966   19.300   3429.40    19.8854     0.0742    -0.2161     0.1930    19.7941     0.3716   308.8000    19.4853    -0.0211
  967   19.320   3430.57    22.0649     0.0823    -0.2151     0.1932    21.9748     0.3750   309.1200    21.6657    -0.0188
  968   19.340   3431.68    22.5388     0.1005    -0.2203     0.1934    22.4471     0.4492   309.4400    22.1376    -0.0186
  969   19.360   3432.73    22.9919     0.0971    -0.2201     0.1936    22.8990     0.4252   309.7600    22.5892    -0.0184
  970   19.380   3433.85    23.5376     0.0942    -0.2129     0.1938    23.4470     0.4045   310.0800    23.1369    -0.0177
  971   19.400   3434.92    24.3123     0.0890    -0.1996     0.1940    24.2265     0.3713   310.4000    23.9161    -0.0167
  972   19.420   3435.95    25.4051     0.0874    -0.1820     0.1942    25.3258     0.3449   310.7200    25.0150    -0.0153
  973   19.440   3442.29    26.1613     0.0887    -0.0516     0.1944    26.1240     0.3613   311.0400    25.8130    -0.0110
  974   19.460   3470.44    28.3069     0.1078     0.0561     0.1946    28.3149     0.4302   311.3600    28.0035    -0.0066
  975   19.480   3491.55    30.6086     0.1245     0.0811     0.1948    30.6469     0.4292   311.6800    30.3352    -0.0034
  976   19.500   3492.57    33.3309     0.1453     0.0428     0.1950    33.3542     0.4468   312.0000    33.0422    -0.0042
  977   19.520   3493.53    34.9976     0.1541     0.0476     0.1952    35.0147     0.4484   312.3200    34.7024    -0.0045
  978   19.540   3494.48    36.2437     0.1560     0.0666     0.1954    36.2676     0.4358   312.6400    35.9550    -0.0039
  979   19.560   3495.44    36.5267     0.1581     0.0901     0.1956    36.5612     0.4320   312.9600    36.2482    -0.0031
  980   19.580   3496.38    35.6913     0.1710     0.0007     0.1958    35.7032     0.4736   313.2800    35.3899    -0.0047
  981   19.600   3497.33    35.6544     0.1818    -0.1078     0.1960    35.6307     0.5103   313.6000    35.3171    -0.0072
  982   19.620   3498.25    35.9499     0.1826    -0.1765     0.1962    35.8790     0.5109   313.9200    35.5651    -0.0103
  983   19.640   3499.22    35.1539     0.1750    -0.1557     0.1964    35.0838     0.4892   314.2400    34.7696    -0.0104
  984   19.660   3500.18    33.8505     0.1829    -0.1235     0.1966    33.7945     0.5381   314.5600    33.4800    -0.0099
  985   19.680   3501.06    32.6599     0.1926    -0.0945     0.1968    32.6160     0.5883   314.8800    32.3011    -0.0093
  986   19.700   3501.98    31.4749     0.2005    -0.0627     0.1970    31.4433     0.6341   315.2000    31.1281    -0.0087
  987   19.720   3502.90    29.9953     0.1995    -0.0279     0.1972    29.9785     0.6587   315.5200    29.6629    -0.0080
  988   19.740   3503.85    28.4364     0.1954     0.0062     0.1974    28.4345     0.6838   315.8400    28.1187    -0.0072
  989   19.760   3504.75    26.8461     0.1839     0.0397     0.1976    26.8574     0.6681   316.1600    26.5412    -0.0064
  990   19.780   3505.64    24.9437     0.1731     0.0703     0.1978    24.9693     0.6789   316.4800    24.6528    -0.0055
  991   19.800   3506.54    22.6172     0.1605     0.0896     0.1980    22.6525     0.6957   316.8000    22.3357    -0.0051
  992   19.820   3507.43    20.1474     0.1525     0.1066     0.1982    20.1900     0.7437   317.1200    19.8728    -0.0049
  993   19.840   3508.36    17.2675     0.1505     0.1302     0.1984    17.3191     0.8050   317.4400    17.0017    -0.0044
  994   19.860   3509.44    14.8941     0.1427     0.1548     0.1986    14.9547     0.9380   317.7600    14.6369    -0.0037
  995   19.880   3510.45    13.0285     0.1411     0.1630     0.1988    13.0942     1.0356   318.0800    12.7762    -0.0033
  996   19.900   3511.47    11.3946     0.1389     0.1794     0.1990    11.4665     1.1476   318.4000    11.1481    -0.0025
  997   19.920   3512.47    10.0534     0.1386     0.2143     0.1992    10.1353     1.2905   318.7200     9.8166    -0.0004
  998   19.940   3513.48     8.7486     0.1464     0.2665     0.1994     8.8484     1.5848   319.0400     8.5293     0.0046
  999   19.960   3514.50     7.7383     0.1312     0.3406     0.1996     7.8721     1.6104   319.3600     7.5528     0.0159
 1000   19.980   3515.55     6.9699     0.1049     0.3612     0.1998     7.1123     1.4394   319.6800     6.7926     0.0206
 1001   20.000   3516.58     6.3766     0.0865     0.3706     0.2000     6.5371     1.3131   320.0000     6.2171     0.0293
 1002   20.020   3517.61     6.2535     0.0751     0.3105     0.2002     6.3899     1.1960   320.3200     6.0696     0.0205
 1003   20.040   3518.64     6.4905     0.0614     0.2412     0.2004     6.6042     0.9548   320.6400     6.2835     0.0112
 1004   20.060   3519.64     6.9306     0.0503     0.1620     0.2006     7.0058     0.7323   320.9600     6.6849    -0.0032
 1005   20.080   3520.69     7.1471     0.0410     0.1763     0.2008     7.2155     0.5756   321.2800     6.8943    -0.0055
 1006   20.100   3521.68     7.0923     0.0359     0.2048     0.2010     7.1759     0.5053   321.6000     6.8543    -0.0003
 1007   20.120   3522.70     6.8590     0.0488     0.2308     0.2012     6.9521     0.7065   321.9200     6.6302     0.0031
 1008   20.140   3523.73     6.4206     0.0636     0.2672     0.2014     6.5254     0.9753   322.2400     6.2032     0.0078
 1009   20.160   3524.68     5.8592     0.0782     0.3141     0.2016     5.9839     1.3082   322.5600     5.6614     0.0169
 1010   20.180   3525.65     5.2646     0.0762     0.3482     0.2018     5.4063     1.4129   322.8800     5.0835     0.0267
 1011   20.200   3526.65     4.7088     0.0709     0.3929     0.2020     4.8651     1.4708   323.2000     4.5419     0.0375
 1012   20.220   3527.61     4.2725     0.0560     0.4430     0.2022     4.4489     1.2849   323.5200     4.1253     0.0528
 1013   20.240   3528.59     3.9591     0.0422     0.5465     0.2024     4.1778     1.0564   323.8400     3.8539     0.0826
 1014   20.260   3529.57     3.7450     0.0359     0.5684     0.2026     3.9813     0.9511   324.1600     3.6571     0.0985
 1015   20.280   3530.57     3.6301     0.0339     0.5638     0.2028     3.8664     0.9301   324.4800     3.5419     0.1016
 1016   20.300   3531.54     3.5991     0.0305     0.5646     0.2030     3.8358     0.8468   324.8000     3.5110     0.1027
 1017   20.320   3532.55     3.6297     0.0320     0.5865     0.2032     3.8728     0.8826   325.1200     3.5477     0.1058
 1018   20.340   3533.54     4.0010     0.0360     0.5862     0.2034     4.2521     0.9139   325.4400     3.9266     0.1006
 1019   20.360   3534.52     4.5581     0.0413     0.5034     0.2036     4.7786     0.9175   325.7600     4.4528     0.0723
 1020   20.380   3535.52     4.9452     0.0352     0.4509     0.2038     5.1375     0.7161   326.0800     4.8115     0.0528
 1021   20.400   3536.50     5.0450     0.0294     0.4274     0.2040     5.2304     0.5829   326.4000     4.9040     0.0484
 1022   20.420   3537.54     5.2762     0.0369     0.4176     0.2042     5.4545     0.7068   326.7200     5.1278     0.0430
 1023   20.440   3538.56     5.7087     0.0495     0.3695     0.2044     5.8719     0.8776   327.0400     5.5449     0.0333
 1024   20.460   3539.55     5.8744     0.0592     0.3549     0.2046     6.0234     1.0044   327.3600     5.6960     0.0263
 1025   20.480   3540.54     5.8042     0.0609     0.3687     0.2048     5.9574     1.0470   327.6800     5.6298     0.0284
 1026   20.500   3541.51     5.3204     0.0612     0.3900     0.2050     5.4770     1.1355   328.0000     5.1490     0.0327
 1027   20.520   3542.52     4.9621     0.0697     0.4456     0.2052     5.1420     1.3987   328.3200     4.8137     0.0464
 1028   20.540   3543.54     4.8113     0.0641     0.4751     0.2054     5.0066     1.3270   328.6400     4.6779     0.0555
 1029   20.560   3544.53     4.7279     0.0585     0.5001     0.2056     4.9373     1.2245   328.9600     4.6083     0.0635
 1030   20.580   3545.51     4.4907     0.0500     0.5027     0.2058     4.7027     1.0976   329.2800     4.3735     0.0684
 1031   20.600   3546.49     4.0842     0.0544     0.4928     0.2060     4.2886     1.2968   329.6000     3.9590     0.0710
 1032   20.620   3547.44     3.5550     0.0566     0.4985     0.2062     3.7546     1.5465   329.9200     3.4247     0.0788
 1033   20.640   3548.41     3.0286     0.0535     0.5828     0.2064     3.2540     1.7270   330.2400     2.9237     0.1132
 1034   20.660   3549.43     2.9271     0.0395     0.6431     0.2066     3.1923     1.3762   330.5600     2.8617     0.1485
 1035   20.680   3550.43     3.5403     0.0414     0.6526     0.2068     3.8175     1.2262   330.8800     3.4866     0.1305
 1036   20.700   3551.40     4.6327     0.0560     0.5763     0.2070     4.8874     1.2752   331.2000     4.5562     0.0882
 1037   20.720   3552.36     5.4342     0.0737     0.4703     0.2072     5.6416     1.3736   331.5200     5.3101     0.0539
 1038   20.740   3553.38     5.1476     0.0869     0.4209     0.2074     5.3276     1.6507   331.8400     4.9958     0.0443
 1039   20.760   3554.33     4.5557     0.0962     0.4546     0.2076     4.7423     2.0524   332.1600     4.4101     0.0537
 1040   20.780   3555.31     4.1263     0.0948     0.5070     0.2078     4.3339     2.2484   332.4800     4.0014     0.0716
 1041   20.800   3556.31     3.7585     0.0856     0.5429     0.2080     3.9812     2.2405   332.8000     3.6484     0.0884
 1042   20.820   3557.27     3.4595     0.0759     0.5878     0.2082     3.7039     2.1538   333.1200     3.3708     0.1109
 1043   20.840   3558.27     3.1621     0.0663     0.6615     0.2084     3.4291     2.0585   333.4400     3.0957     0.1381
 1044   20.860   3559.22     2.9074     0.0580     0.7080     0.2086     3.1986     1.9695   333.7600     2.8648     0.1693
 1045   20.880   3560.27     2.8538     0.0501     0.7485     0.2088     3.1642     1.7481   334.0800     2.8301     0.1873
 1046   20.900   3561.24     2.9295     0.0427     0.7667     0.2090     3.2434     1.4693   334.4000     2.9090     0.1851
 1047   20.920   3562.19     2.7624     0.0350     0.7877     0.2092     3.0935     1.2509   334.7200     2.7587     0.2099
 1048   20.940   3563.19     2.5768     0.0354     0.8015     0.2094     2.9093     1.3630   335.0400     2.5742     0.2262
 1049   20.960   3564.19     2.3895     0.0364     0.8639     0.2096     2.7436     1.5065   335.3600     2.4082     0.2631
 1050   20.980   3565.15     2.1448     0.0356     0.9392     0.2098     2.5296     1.6219   335.6800     2.1939     0.3223
 1051   21.000   3566.16     2.0303     0.0310     1.0145     0.2100     2.4493     1.5084   336.0000     2.1133     0.3728
 1052   21.020   3567.15     2.1546     0.0281     0.9978     0.2102     2.5728     1.3346   336.3200     2.2365     0.3515
 1053   21.040   3568.14     2.2314     0.0245     0.9863     0.2104     2.6517     1.1116   336.6400     2.3151     0.3415
 1054   21.060   3569.16     2.2367     0.0239     0.9767     0.2106     2.6462     1.0569   336.9600     2.3092     0.3310
 1055   21.080   3570.09     2.1738     0.0235     0.9738     0.2108     2.5824     1.0779   337.2800     2.2451     0.3394
 1056   21.100   3571.11     2.1170     0.0237     1.0195     0.2110     2.5371     1.1072   337.6000     2.1995     0.3590
 1057   21.120   3572.08     1.9071     0.0234     1.0851     0.2112     2.3522     1.2005   337.9200     2.0143     0.4217
 1058   21.140   3573.04     1.8682     0.0264     1.1007     0.2114     2.3339     1.4343   338.2400     1.9957     0.4498
 1059   21.160   3574.04     1.9504     0.0243     1.0888     0.2116     2.4080     1.2550   338.5600     2.0694     0.4243
 1060   21.180   3575.01     1.9707     0.0259     1.1378     0.2118     2.4383     1.2964   338.8800     2.0994     0.4296
 1061   21.200   3576.02     1.9480     0.0252     1.1758     0.2120     2.4431     1.3250   339.2000     2.1039     0.4597
 1062   21.220   3576.98     2.0087     0.0284     1.1984     0.2122     2.5062     1.4088   339.5200     2.1667     0.4488
 1063   21.240   3577.95     1.9743     0.0299     1.1613     0.2124     2.4685     1.4958   339.8400     2.1287     0.4530
 1064   21.260   3578.92     1.9077     0.0297     1.2186     0.2126     2.4107     1.5591   340.1600     2.0706     0.4758
 1065   21.280   3579.91     1.8945     0.0255     1.2529     0.2128     2.4177     1.3492   340.4800     2.0772     0.4972
 1066   21.300   3580.91     1.9686     0.0248     1.2653     0.2130     2.4990     1.2689   340.8000     2.1582     0.4864
 1067   21.320   3581.91     2.0221     0.0311     1.3277     0.2132     2.5708     1.5541   341.1200     2.2297     0.4902
 1068   21.340   3582.86     2.3389     0.0540     1.3137     0.2134     2.8967     2.4293   341.4400     2.5553     0.4376
 1069   21.360   3583.87     3.1039     0.0705     1.1471     0.2136     3.6166     2.4079   341.7600     3.2749     0.3090
 1070   21.380   3584.85     3.8250     0.0712     0.7510     0.2138     4.2254     1.9108   342.0800     3.8834     0.1907
 1071   21.400   3585.80     3.9147     0.0718     0.5725     0.2140     4.1668     1.8225   342.4000     3.8244     0.1010
 1072   21.420   3586.82     3.2522     0.0758     0.6121     0.2142     3.4908     2.2542   342.7200     3.1481     0.1130
 1073   21.440   3587.77     2.4783     0.0728     0.6978     0.2144     2.7550     2.7779   343.0400     2.4120     0.1846
 1074   21.460   3588.77     1.9364     0.0689     0.8743     0.2146     2.2811     3.2901   343.3600     1.9378     0.3128
 1075   21.480   3589.76     2.0495     0.0589     0.9335     0.2148     2.4372     3.0066   343.6800     2.0935     0.3383
 1076   21.500   3590.78     2.2325     0.0464     0.9475     0.2150     2.6306     2.1589   344.0000     2.2866     0.3205
 1077   21.520   3591.81     2.3995     0.0414     0.9745     0.2152     2.7995     1.7616   344.3200     2.4552     0.3002
 1078   21.540   3604.78     2.5658     0.0385     0.8317     0.2154     2.9402     1.5705   344.6400     2.5956     0.2644
 1079   21.560   3628.52     2.7838     0.0394     0.6588     0.2156     3.0856     1.6056   344.9600     2.7406     0.1882
 1080   21.580   3647.00     2.8576     0.0402     0.6749     0.2158     3.1182     1.3658   345.2800     2.7729     0.1465
 1081   21.600   3647.97     2.4085     0.0377     0.8293     0.2160     2.7376     1.5065   345.6000     2.3920     0.2381
 1082   21.620   3648.93     2.1298     0.0361     0.9462     0.2162     2.5106     1.6615   345.9200     2.1647     0.3192
 1083   21.640   3649.98     2.0091     0.0316     1.0058     0.2164     2.4235     1.5637   346.2400     2.0772     0.3708
 1084   21.660   3650.94     1.9840     0.0309     1.0766     0.2166     2.4255     1.5532   346.5600     2.0789     0.4015
 1085   21.680   3651.93     1.9728     0.0324     1.1636     0.2168     2.4508     1.6480   346.8800     2.1040     0.4379
 1086   21.700   3652.89     2.1424     0.0481     1.2309     0.2170     2.6511     2.3312   347.2000     2.3039     0.4321
 1087   21.720   3653.84     2.7374     0.0606     1.0481     0.2172     3.2138     2.3726   347.5200     2.8662     0.3211
 1088   21.740   3654.84     3.0793     0.0654     0.8309     0.2174     3.4349     2.1306   347.8400     3.0871     0.2038
 1089   21.760   3655.84     3.0208     0.0670     0.7607     0.2176     3.3466     2.2090   348.1600     2.9985     0.1861
 1090   21.780   3656.82     2.8617     0.0686     0.6214     0.2178     3.1269     2.3580   348.4800     2.7784     0.1489
 1091   21.800   3657.78     2.3037     0.0694     0.7002     0.2180     2.5795     2.8690   348.8000     2.2307     0.1967
 1092   21.820   3658.76     1.9724     0.0646     0.8333     0.2182     2.3061     3.1906   349.1200     1.9570     0.2948
 1093   21.840   3659.70     1.8544     0.0491     0.9250     0.2184     2.2326     2.6429   349.4400     1.8832     0.3621
 1094   21.860   3660.70     1.8739     0.0364     0.9925     0.2186     2.2817     1.9466   349.7600     1.9319     0.3894
 1095   21.880   3661.73     1.8799     0.0334     1.0482     0.2188     2.3136     1.7763   350.0800     1.9636     0.4145
 1096   21.900   3662.69     1.9050     0.0319     1.1052     0.2190     2.3608     1.6770   350.4000     2.0104     0.4309
 1097   21.920   3663.72     1.9328     0.0315     1.1304     0.2192     2.4073     1.6402   350.7200     2.0566     0.4427
 1098   21.940   3664.68     1.9513     0.0318     1.1205     0.2194     2.4197     1.6252   351.0400     2.0686     0.4330
 1099   21.960   3665.66     1.9123     0.0322     1.1641     0.2196     2.3948     1.6769   351.3600     2.0434     0.4547
 1100   21.980   3666.67     1.8828     0.0336     1.2002     0.2198     2.3831     1.7746   351.6800     2.0314     0.4782
 1101   22.000   3667.62     1.8869     0.0349     1.2109     0.2200     2.3947     1.8574   352.0000     2.0427     0.4841
 1102   22.020   3668.60     1.9148     0.0327     1.2358     0.2202     2.4291     1.7116   352.3200     2.0768     0.4836
 1103   22.040   3669.61     1.9334     0.0342     1.2572     0.2204     2.4592     1.7713   352.6400     2.1065     0.4897
 1104   22.060   3670.58     1.9579     0.0366     1.2658     0.2206     2.4890     1.8750   352.9600     2.1360     0.4887
 1105   22.080   3671.57     1.9794     0.0364     1.2638     0.2208     2.5105     1.8458   353.2800     2.1573     0.4838
 1106   22.100   3672.52     1.9754     0.0357     1.2658     0.2210     2.5035     1.7989   353.6000     2.1499     0.4820
 1107   22.120   3673.49     1.9815     0.0355     1.2633     0.2212     2.5138     1.8010   353.9200     2.1599     0.4844
 1108   22.140   3674.48     1.9977     0.0355     1.2653     0.2214     2.5274     1.7761   354.2400     2.1732     0.4784
 1109   22.160   3675.47     1.9704     0.0357     1.3053     0.2216     2.5139     1.7997   354.5600     2.1593     0.4967
 1110   22.180   3676.46     1.9505     0.0362     1.3078     0.2218     2.4994     1.8611   354.8800     2.1445     0.5060
 1111   22.200   3677.42     1.9796     0.0352     1.3394     0.2220     2.5402     1.7861   355.2000     2.1850     0.5092
 1112   22.220   3678.40     2.0156     0.0346     1.3377     0.2222     2.5777     1.7209   355.5200     2.2222     0.5023
 1113   22.240   3679.36     2.0292     0.0345     1.3010     0.2224     2.5858     1.7045   355.8400     2.2300     0.4946
 1114   22.260   3680.36     2.0063     0.0356     1.2824     0.2226     2.5434     1.7609   356.1600     2.1873     0.4829
 1115   22.280   3681.36     1.9668     0.0360     1.3045     0.2228     2.5134     1.8269   356.4800     2.1569     0.5000
 1116   22.300   3682.34     1.9615     0.0369     1.3293     0.2230     2.5170     1.8863   356.8000     2.1602     0.5090
 1117   22.320   3683.27     1.9850     0.0351     1.3415     0.2232     2.5484     1.7692   357.1200     2.1913     0.5103
 1118   22.340   3684.22     1.9558     0.0337     1.3285     0.2234     2.5165     1.7185   357.4400     2.1591     0.5149
 1119   22.360   3685.24     1.9182     0.0336     1.3130     0.2236     2.4696     1.7418   357.7600     2.1119     0.5158
 1120   22.380   3686.22     1.9049     0.0327     1.3400     0.2238     2.4628     1.7158   358.0800     2.1047     0.5248
 1121   22.400   3687.21     1.9393     0.0322     1.3609     0.2240     2.5066     1.6637   358.4000     2.1482     0.5245
 1122   22.420   3688.21     1.9437     0.0345     1.3693     0.2242     2.5228     1.7727   358.7200     2.1641     0.5336
 1123   22.440   3689.21     2.0680     0.0413     1.3634     0.2244     2.6388     2.0254   359.0400     2.2797     0.4979
 1124   22.460   3690.16     2.2120     0.0390     1.3444     0.2246     2.7831     1.7670   359.3600     2.4237     0.4683
 1125   22.480   3691.16     2.2601     0.0405     1.2562     0.2248     2.8046     1.8022   359.6800     2.4450     0.4384
 1126   22.500   3692.17     2.2479     0.0410     1.2053     0.2250     2.7541     1.8182   360.0000     2.3941     0.4094
 1127   22.520   3693.17     2.1295     0.0393     1.2414     0.2252     2.6442     1.8310   360.3200     2.2839     0.4381
 1128   22.540   3694.16     2.0216     0.0399     1.2967     0.2254     2.5537     1.9500   360.6400     2.1930     0.4749
 1129   22.560   3695.16     2.0039     0.0395     1.3594     0.2256     2.5712     1.9852   360.9600     2.2102     0.5091
 1130   22.580   3696.12     2.0756     0.0368     1.3713     0.2258     2.6478     1.7828   361.2800     2.2865     0.4971
 1131   22.600   3697.11     2.1849     0.0415     1.3968     0.2260     2.7698     1.9173   361.6000     2.4082     0.4845
 1132   22.620   3698.13     2.4090     0.0402     1.3278     0.2262     2.9847     1.7454   361.9200     2.6228     0.4369
 1133   22.640   3699.13     2.6994     0.0406     1.2483     0.2264     3.2316     1.5254   362.2400     2.8694     0.3627
 1134   22.660   3700.11     2.9022     0.0446     1.1726     0.2266     3.4040     1.5646   362.5600     3.0415     0.3185
 1135   22.680   3701.07     3.3541     0.0561     1.1881     0.2268     3.8431     1.7108   362.8800     3.4802     0.2695
 1136   22.700   3702.05     4.1217     0.0716     1.2136     0.2270     4.6414     1.7738   363.2000     4.2782     0.2373
 1137   22.720   3703.11     6.1061     0.0744     0.7135     0.2272     6.5470     1.4997   363.5200     6.1834     0.1350
 1138   22.740   3705.32     8.4247     0.0786     0.4178     0.2274     8.6723     0.9620   363.8400     8.3085     0.0446
 1139   22.760   3706.43    12.3958     0.0860     0.1432     0.2276    12.4855     0.7066   364.1600    12.1214    -0.0010
 1140   22.780   3707.50    15.7364     0.1059    -0.0724     0.2278    15.7229     0.6802   364.4800    15.3584    -0.0169
 1141   22.800   3708.56    18.0307     0.1272    -0.1307     0.2280    17.9831     0.7153   364.8000    17.6183    -0.0194
 1142   22.820   3709.70    20.0041     0.1495    -0.1356     0.2282    19.9465     0.7596   365.1200    19.5814    -0.0187
 1143   22.840   3710.77    21.5654     0.1731    -0.1362     0.2284    21.5074     0.8178   365.4400    21.1420    -0.0173
 1144   22.860   3711.89    22.6447     0.1967    -0.1354     0.2286    22.5885     0.8759   365.7600    22.2227    -0.0163
 1145   22.880   3712.96    23.2505     0.2214    -0.1371     0.2288    23.1926     0.9535   366.0800    22.8265    -0.0161
 1146   22.900   3714.02    23.6171     0.2398    -0.1257     0.2290    23.5622     1.0173   366.4000    23.1958    -0.0155
 1147   22.920   3715.39    23.8561     0.2480    -0.0825     0.2292    23.8134     1.0435   366.7200    23.4467    -0.0141
 1148   22.940   3717.34    24.1384     0.2530    -0.0272     0.2294    24.1189     1.0648   367.0400    23.7519    -0.0117
 1149   22.960   3719.29    24.4206     0.2590     0.0282     0.2296    24.4244     1.0899   367.3600    24.0571    -0.0092
 1150   22.980   3721.02    24.7388     0.2639     0.0840     0.2298    24.7663     1.0726   367.6800    24.3986    -0.0067
 1151   23.000   3721.98    25.1571     0.2668     0.1079     0.2300    25.1998     1.0662   368.0000    24.8318    -0.0052
 1152   23.020   3722.97    25.7651     0.2707     0.1425     0.2302    25.8204     1.0601   368.3200    25.4521    -0.0039
 1153   23.040   3723.93    26.6319     0.2781     0.1892     0.2304    26.7025     1.0563   368.6400    26.3338    -0.0024
 1154   23.060   3724.89    27.6512     0.2926     0.2196     0.2306    27.7404     1.0690   368.9600    27.3714    -0.0007
 1155   23.080   3725.85    28.7524     0.3086     0.2190     0.2308    28.8436     1.0849   369.2800    28.4744    -0.0005
 1156   23.100   3726.87    30.0199     0.3237     0.2320     0.2310    30.1162     1.0937   369.6000    29.7466    -0.0001
 1157   23.120   3727.83    31.3035     0.3349     0.2249     0.2312    31.3996     1.0895   369.9200    31.0297    -0.0001
 1158   23.140   3728.78    32.1890     0.3461     0.2316     0.2314    32.2868     1.0852   370.2400    31.9165     0.0000
 1159   23.160   3729.78    33.0639     0.3571     0.2343     0.2316    33.1656     1.0842   370.5600    32.7950     0.0003
 1160   23.180   3730.73    33.9683     0.3649     0.2345     0.2318    34.0652     1.0783   370.8800    33.6943     0.0000
 1161   23.200   3731.69    34.8519     0.3722     0.2348     0.2320    34.9515     1.0721   371.2000    34.5803     0.0001
 1162   23.220   3733.77    35.2333     0.3826     0.2256     0.2322    35.3294     1.0954   371.5200    34.9579    -0.0001
 1163   23.240   3735.98    35.5703     0.3918     0.2164     0.2324    35.6625     1.1217   371.8400    35.2906    -0.0004
 1164   23.260   3738.19    35.9073     0.3836     0.2075     0.2326    35.9956     1.0980   372.1600    35.6234    -0.0006
 1165   23.280   3739.21    35.2483     0.3497     0.2038     0.2328    35.3314     0.9894   372.4800    34.9589    -0.0010
 1166   23.300   3740.17    33.9950     0.3241     0.2040     0.2330    34.0802     0.9333   372.8000    33.7074    -0.0009
 1167   23.320   3741.10    32.1628     0.3197     0.2115     0.2332    32.2506     0.9829   373.1200    31.8775    -0.0008
 1168   23.340   3742.00    29.5298     0.3189     0.2247     0.2334    29.6219     1.0274   373.4400    29.2485    -0.0005
 1169   23.360   3742.94    26.5241     0.3002     0.2226     0.2336    26.6175     1.0814   373.7600    26.2438    -0.0004
 1170   23.380   3743.85    24.1516     0.2689     0.2357     0.2338    24.2507     1.0609   374.0800    23.8766     0.0001
 1171   23.400   3744.80    22.3522     0.2403     0.2323     0.2340    22.4476     1.0685   374.4000    22.0732    -0.0003
 1172   23.420   3745.72    21.6134     0.2071     0.2518     0.2342    21.7193     0.9509   374.7200    21.3446     0.0008
 1173   23.440   3746.63    21.7477     0.1782     0.2264     0.2344    21.8475     0.8429   375.0400    21.4725     0.0002
 1174   23.460   3747.54    19.8898     0.1512     0.1935     0.2346    19.9747     0.7528   375.3600    19.5993    -0.0017
 1175   23.480   3748.48    16.7175     0.1248     0.1918     0.2348    16.8000     0.6922   375.6800    16.4243    -0.0024
 1176   23.500   3749.37    14.0077     0.1080     0.1830     0.2350    14.0855     0.7400   376.0000    13.7095    -0.0036
 1177   23.520   3750.33    11.9815     0.0968     0.1837     0.2352    12.0551     0.7799   376.3200    11.6788    -0.0051
 1178   23.540   3754.56    10.2401     0.0924     0.1925     0.2354    10.3167     0.8786   376.6400     9.9401    -0.0052
 1179   23.560   3780.28     8.9639     0.0927     0.2218     0.2356     9.0528     0.8906   376.9600     8.6759    -0.0022
 1180   23.580   3806.01     7.6878     0.1090     0.2464     0.2358     7.7890     1.0480   377.2800     7.4117     0.0008
 1181   23.600   3808.71     6.8050     0.0922     0.3277     0.2360     6.9292     1.2911   377.6000     6.5516     0.0092
 1182   23.620   3809.75     6.2095     0.0710     0.4402     0.2362     6.3761     1.1088   377.9200     5.9982     0.0268
 1183   23.640   3810.80     6.1424     0.0634     0.4786     0.2364     6.3451     1.0386   378.2400     5.9669     0.0413
 1184   23.660   3811.80     6.1901     0.0664     0.4266     0.2366     6.3783     1.0828   378.5600     5.9997     0.0352
 1185   23.680   3812.80     6.3036     0.0774     0.3704     0.2368     6.4749     1.2228   378.8800     6.0960     0.0280
 1186   23.700   3813.81     6.4010     0.1022     0.3343     0.2370     6.5484     1.5949   379.2000     6.1692     0.0184
 1187   23.720   3814.80     6.0989     0.1292     0.3688     0.2372     6.2573     2.0699   379.5200     5.8777     0.0238
 1188   23.740   3815.86     5.6546     0.1476     0.4169     0.2374     5.8179     2.5488   379.8400     5.4380     0.0278
 1189   23.760   3816.87     5.4241     0.1736     0.4893     0.2376     5.6183     3.1440   380.1600     5.2381     0.0429
 1190   23.780   3817.88     5.2972     0.2245     0.6514     0.2378     5.5414     4.2609   380.4800     5.1609     0.0664
 1191   23.800   3818.90     6.6522     0.2638     1.0635     0.2380     7.0331     4.3031   380.8000     6.6523     0.1000
 1192   23.820   3819.98     9.6034     0.3124     0.7567     0.2382    10.0157     3.4372   381.1200     9.6346     0.0785
 1193   23.840   3821.06    12.2577     0.3406     0.1252     0.2384    12.3932     2.8602   381.4400    12.0117     0.0075
 1194   23.860   3822.13    13.7607     0.3474    -0.1016     0.2386    13.7364     2.5533   381.7600    13.3547    -0.0222
 1195   23.880   3823.20    15.0865     0.3839    -0.1985     0.2388    15.0125     2.6000   382.0800    14.6304    -0.0284
 1196   23.900   3824.26    16.3710     0.4098    -0.2486     0.2390    16.2713     2.5841   382.4000    15.8889    -0.0300
 1197   23.920   3825.37    17.1570     0.4270    -0.2926     0.2392    17.0419     2.5577   382.7200    16.6592    -0.0308
 1198   23.940   3826.44    17.5856     0.4443    -0.3105     0.2394    17.4562     2.5314   383.0400    17.0732    -0.0321
 1199   23.960   3827.53    17.0662     0.4798    -0.3185     0.2396    16.9334     2.7740   383.3600    16.5500    -0.0336
 1200   23.980   3828.62    16.6497     0.5520    -0.3181     0.2398    16.5155     3.3278   383.6800    16.1318    -0.0347
 1201   24.000   3833.94    19.1342     0.6222    -0.3137     0.2400    19.0019     3.5361   384.0000    18.6179    -0.0305
 1202   24.020   3845.18    22.1543     0.6526    -0.3101     0.2402    22.0235     3.6511   384.3200    21.6392    -0.0266
 1203   24.040   3856.42    25.1746     0.6749    -0.3065     0.2404    25.0454     3.7757   384.6400    24.6607    -0.0228
 1204   24.060   3862.34    27.6808     0.7306    -0.3288     0.2406    27.5483     2.7389   384.9600    27.1634    -0.0205
 1205   24.080   3863.28    30.3333     0.7881    -0.3405     0.2408    30.1907     2.6836   385.2800    29.8054    -0.0195
 1206   24.100   3864.28    31.7744     0.7927    -0.3415     0.2410    31.6311     2.5142   385.6000    31.2455    -0.0186
 1207   24.120   3865.28    32.9894     0.6582    -0.3390     0.2412    32.8467     2.0149   385.9200    32.4608    -0.0179
 1208   24.140   3866.34    36.0252     0.6035    -0.3375     0.2414    35.8829     1.7088   386.2400    35.4967    -0.0164
 1209   24.160   3867.43    39.9545               -0.3355     0.2416    39.8132              386.5600    39.4267    -0.0147
 1210   24.180   3868.51    42.9631               -0.3356     0.2418    42.8222              386.8800    42.4353    -0.0136
 1211   24.200   3869.64    45.5982               -0.3067     0.2420    45.4580              387.2000    45.0708    -0.0128
 1212   24.220   3881.16    46.3943               -0.1927     0.2422    46.2969              387.5200    45.9094    -0.0103
 1213   24.240   3888.75    48.8182               -0.2616     0.2424    48.7204              387.8400    48.3325    -0.0098
 1214   24.260   3890.30    51.3846                           0.2426    51.2623              388.1600    50.8742    -0.0105
 
 
