

 Program UNIPLOT                         version 05.36.02
 _______________
 (c) Fugro Netherlands Marine, Nootdorp, The Netherlands


 ASCII representation of data plotted on a graph.

 This ASCII file presents data interpolated to values per fixed depth interval.
 The data are corrected for the depth-offset differences between the various 
 transducers in the penetrometer.

 The records at the start of penetration may include no values or anomalous
 values where a depth offset implies incomplete penetration of a particular
 sensor into the ground.

 The records at the end of penetration may include no values for data channels
 where the transducer did not reach this depth.

 The reference level for test values is (1) the ground surface for onshore tests and (2) the seafloor for nearshore and offshore tests.

 UNICAS data file          : CPT-1040.000                            
 Output using command file : PlotASCII.cmd

 ASCII file created at : date          :20-Apr-2022
                         time          :10:19:33
 Project number                        :20024805                                                                                            
 Date of testing                       :11-Apr-2022                                                                                         
 Location                              :Hong Kong Offshore Wind Farm Project                                                                
 Test name                             :CPT-1040
 Penetrometer                          :F7.5CKE2HAW2/B/3342
 Serial no                             :1701-3342

 Table description:
 Column ID                             :Parameter name
 ___________________________________________________________________________________
 Rec                                   :Record ID, Record ID [-]
 Depth                                 :Depth, Depth [m]
 Time                                  :Time, Time [s]
 Cone                                  :Cone Resistance, Cone Resistance [MPa]
 Friction                              :Sleeve Friction, Sleeve Friction [MPa]
 Pore 2                                :Porewater Pressure, Porewater Pressure at Shoulder [MPa]
 HydroPress                            :Hydrostatic Pressure, Hydrostatic Pressure [MPa]
 qt                                    :Total Cone Resistance, Total Cone Resistance [MPa]
 Fric_ratio                            :Friction Ratio, Friction Ratio [%]
 SigmaVert                             :Vertical stress, Vertical stress [kPa] as specified in ground model
 Qnet                                  :Net Cone Resistance, Net Cone Resistance [MPa], unit weight as specified in ground model
 Bq                                    :Porewater Pressure Ratio, Porewater Pressure Ratio [-], unit weight as specified in ground model


 Data table:
  Rec    Depth      Time       Cone   Friction     Pore 2 HydroPress         qt Fric_ratio  SigmaVert       Qnet         Bq
   No        m         s        MPa        MPa        MPa        MPa        MPa          %        kPa        MPa          -
    1    0.000   1620.31     0.0000                           0.0000     0.0000                0.0000     0.0000           
    2    0.020   1621.36     0.0049               -0.0003     0.0002     0.0047                0.3200     0.0044    -0.1275
    3    0.040   1622.32     0.0095               -0.0007     0.0004     0.0092                0.6400     0.0086    -0.1250
    4    0.060   1623.37     0.0112               -0.0011     0.0006     0.0108                0.9600     0.0099    -0.1583
    5    0.080   1624.40     0.0068     0.0003    -0.0013     0.0008     0.0063     3.9529     1.2800     0.0050    -0.4286
    6    0.100   1625.38     0.0070     0.0004    -0.0016     0.0010     0.0064     6.1260     1.6000     0.0048    -0.6082
    7    0.120   1626.39     0.0066     0.0002    -0.0008     0.0012     0.0062     3.5633     1.9200     0.0043    -0.5086
    8    0.140   1627.36     0.0063     0.0005     0.0003     0.0014     0.0062     7.1572     2.2400     0.0040    -0.4247
    9    0.160   1628.38     0.0081     0.0005     0.0010     0.0016     0.0083     6.5888     2.5600     0.0058    -0.1625
   10    0.180   1629.36     0.0090     0.0004     0.0020     0.0018     0.0098     4.8360     2.8800     0.0069     0.0016
   11    0.200   1630.39     0.0114     0.0006     0.0011     0.0020     0.0121     4.8144     3.2000     0.0089    -0.0458
   12    0.220   1631.41     0.0112     0.0009     0.0008     0.0022     0.0115     8.0315     3.5200     0.0079    -0.1863
   13    0.240   1632.41     0.0114     0.0012    -0.0005     0.0024     0.0113    10.8912     3.8400     0.0074    -0.3545
   14    0.260   1633.42     0.0132     0.0011    -0.0010     0.0026     0.0131     8.2324     4.1600     0.0089    -0.3079
   15    0.280   1634.44     0.0156     0.0010     0.0000     0.0028     0.0158     6.2628     4.4800     0.0113    -0.2057
   16    0.300   1635.46     0.0170     0.0013     0.0009     0.0030     0.0172     8.1727     4.8000     0.0124    -0.2020
   17    0.320   1636.46     0.0153     0.0011    -0.0007     0.0032     0.0155     7.5036     5.1200     0.0104    -0.2564
   18    0.340   1637.47     0.0175     0.0015    -0.0008     0.0034     0.0168     7.8403     5.4400     0.0114    -0.4382
   19    0.360   1638.46     0.0152     0.0015     0.0006     0.0036     0.0151    10.0260     5.7600     0.0094    -0.4001
   20    0.380   1639.43     0.0136     0.0015     0.0017     0.0038     0.0141    11.2934     6.0800     0.0080    -0.3175
   21    0.400   1640.46     0.0120     0.0017     0.0031     0.0040     0.0132    14.4006     6.4000     0.0068    -0.1548
   22    0.420   1641.48     0.0133     0.0015     0.0023     0.0042     0.0143    11.5905     6.7200     0.0076    -0.2330
   23    0.440   1642.50     0.0129     0.0015     0.0036     0.0044     0.0142    11.5988     7.0400     0.0072    -0.1778
   24    0.460   1643.54     0.0092     0.0014     0.0041     0.0046     0.0110    16.0250     7.3600     0.0036    -0.1073
   25    0.480   1644.52     0.0093     0.0014     0.0046     0.0048     0.0112    15.2190     7.6800     0.0035    -0.0714
   26    0.500   1645.52     0.0094     0.0014     0.0037     0.0050     0.0112    15.2490     8.0000     0.0032    -0.2423
   27    0.520   1646.54     0.0098     0.0014     0.0050     0.0052     0.0117    13.7728     8.3200     0.0034    -0.1826
   28    0.540   1647.54     0.0096     0.0012     0.0056     0.0054     0.0119    12.0947     8.6400     0.0033     0.0331
   29    0.560   1648.55     0.0079     0.0013     0.0077     0.0056     0.0109    17.2445     8.9600     0.0019     0.7860
   30    0.580   1649.54     0.0093     0.0013     0.0077     0.0058     0.0126    14.1485     9.2800     0.0033     0.6469
   31    0.600   1650.56     0.0101     0.0014     0.0089     0.0060     0.0137    13.0170     9.6000     0.0041     0.6959
   32    0.620   1651.56     0.0079     0.0013     0.0090     0.0062     0.0117    17.7780     9.9200     0.0018     2.6371
   33    0.640   1652.54     0.0074     0.0013     0.0085     0.0064     0.0107    19.6412    10.2400     0.0005    -3.6734
   34    0.660   1653.58     0.0068     0.0014     0.0098     0.0066     0.0110    21.4128    10.5600     0.0004           
   35    0.680   1654.60     0.0060     0.0014     0.0095     0.0068     0.0098    23.1844    10.8800    -0.0011    -2.3018
   36    0.700   1655.60     0.0065     0.0013     0.0104     0.0070     0.0109    18.3245    11.2000    -0.0003    -0.2504
   37    0.720   1656.60     0.0092     0.0014     0.0104     0.0072     0.0135    16.5557    11.5200     0.0020     1.7268
   38    0.740   1657.57     0.0126     0.0015     0.0111     0.0074     0.0173    11.6629    11.8400     0.0055     0.7043
   39    0.760   1677.85     0.0155     0.0016     0.0093     0.0076     0.0196    13.5219    12.1600     0.0075     0.5401
   40    0.780   1703.22     0.0199     0.0014     0.0075     0.0078     0.0234    11.8045    12.4800     0.0109     0.1818
   41    0.800   1722.59     0.0224     0.0013     0.0077     0.0080     0.0254     5.7760    12.8000     0.0126    -0.0674
   42    0.820   1723.62     0.0226     0.0015     0.0091     0.0082     0.0263     6.4495    13.1200     0.0132     0.0471
   43    0.840   1724.62     0.0231     0.0015     0.0101     0.0084     0.0272     6.2700    13.4400     0.0137     0.0941
   44    0.860   1725.59     0.0229     0.0016     0.0115     0.0086     0.0276     6.3560    13.7600     0.0138     0.1805
   45    0.880   1726.62     0.0240     0.0013     0.0124     0.0088     0.0292     5.5877    14.0800     0.0151     0.2338
   46    0.900   1727.62     0.0247     0.0013     0.0126     0.0090     0.0299     5.0964    14.4000     0.0155     0.2125
   47    0.920   1728.63     0.0244     0.0017     0.0114     0.0092     0.0294     6.6751    14.7200     0.0147     0.1887
   48    0.940   1729.61     0.0230     0.0014     0.0112     0.0094     0.0276     6.4761    15.0400     0.0126     0.1421
   49    0.960   1730.67     0.0202     0.0015     0.0122     0.0096     0.0251     7.5842    15.3600     0.0098     0.2197
   50    0.980   1731.65     0.0236     0.0017     0.0119     0.0098     0.0286     7.2773    15.6800     0.0129     0.1614
   51    1.000   1732.64     0.0216     0.0017     0.0138     0.0100     0.0271     7.6659    16.0000     0.0111     0.2685
   52    1.020   1733.63     0.0178     0.0016     0.0156     0.0102     0.0242     8.8373    16.3200     0.0078     0.6410
   53    1.040   1734.62     0.0203     0.0016     0.0162     0.0104     0.0271     8.1215    16.6400     0.0104     0.5484
   54    1.060   1735.62     0.0173     0.0014     0.0162     0.0106     0.0241     7.7076    16.9600     0.0072     0.8316
   55    1.080   1736.65     0.0177     0.0015     0.0161     0.0108     0.0244     8.0264    17.2800     0.0071     0.8151
   56    1.100   1737.67     0.0169     0.0014     0.0176     0.0110     0.0240     8.1640    17.6000     0.0064     0.9828
   57    1.120   1738.65     0.0185     0.0013     0.0193     0.0112     0.0264     6.8213    17.9200     0.0084     0.8964
   58    1.140   1739.62     0.0196     0.0011     0.0199     0.0114     0.0279     5.4725    18.2400     0.0096     0.8812
   59    1.160   1740.65     0.0201     0.0013     0.0209     0.0116     0.0288     6.1817    18.5600     0.0103     0.9008
   60    1.180   1741.64     0.0243     0.0016     0.0215     0.0118     0.0333     6.8489    18.8800     0.0144     0.6668
   61    1.200   1742.67     0.0224     0.0018     0.0208     0.0120     0.0315     7.9556    19.2000     0.0123     0.7869
   62    1.220   1743.66     0.0263     0.0020     0.0191     0.0122     0.0343     7.7265    19.5200     0.0148     0.4797
   63    1.240   1744.67     0.0250     0.0015     0.0197     0.0124     0.0331     6.1089    19.8400     0.0133     0.5478
   64    1.260   1745.64     0.0268     0.0016     0.0212     0.0126     0.0354     6.4421    20.1600     0.0152     0.5091
   65    1.280   1746.67     0.0260     0.0015     0.0239     0.0128     0.0357     5.8439    20.4800     0.0152     0.6850
   66    1.300   1747.64     0.0306     0.0015     0.0261     0.0130     0.0412     4.9574    20.8000     0.0204     0.6046
   67    1.320   1748.68     0.0315     0.0016     0.0263     0.0132     0.0428     5.1797    21.1200     0.0217     0.6307
   68    1.340   1749.69     0.0360     0.0017     0.0240     0.0134     0.0465     4.9583    21.4400     0.0251     0.4643
   69    1.360   1750.70     0.0348     0.0015     0.0217     0.0136     0.0439     4.2074    21.7600     0.0221     0.3685
   70    1.380   1751.70     0.0373     0.0018     0.0218     0.0138     0.0463     4.7797    22.0800     0.0242     0.3150
   71    1.400   1752.70     0.0351     0.0016     0.0240     0.0140     0.0450     4.5135    22.4000     0.0226     0.4173
   72    1.420   1753.69     0.0347     0.0016     0.0257     0.0142     0.0452     4.4915    22.7200     0.0225     0.4875
   73    1.440   1754.69     0.0357     0.0018     0.0256     0.0144     0.0465     4.9419    23.0400     0.0235     0.4790
   74    1.460   1755.69     0.0355     0.0020     0.0272     0.0146     0.0465     5.7132    23.3600     0.0231     0.4982
   75    1.480   1756.72     0.0365     0.0016     0.0292     0.0148     0.0487     4.5597    23.6800     0.0250     0.5643
   76    1.500   1757.74     0.0393     0.0017     0.0290     0.0150     0.0516     4.5563    24.0000     0.0276     0.5158
   77    1.520   1758.71     0.0389     0.0015     0.0296     0.0152     0.0512     3.7724    24.3200     0.0269     0.5297
   78    1.540   1759.72     0.0449     0.0015     0.0308     0.0154     0.0576     3.4511    24.6400     0.0330     0.4496
   79    1.560   1760.71     0.0470     0.0018     0.0334     0.0156     0.0607     3.8571    24.9600     0.0357     0.4777
   80    1.580   1761.71     0.0518     0.0025     0.0339     0.0158     0.0660     4.8385    25.2800     0.0407     0.4438
   81    1.600   1762.71     0.0548     0.0022     0.0321     0.0160     0.0689     3.9779    25.6000     0.0433     0.4073
   82    1.620   1763.71     0.0587     0.0025     0.0305     0.0162     0.0716     4.1890    25.9200     0.0456     0.3163
   83    1.640   1764.73     0.0618     0.0027     0.0300     0.0164     0.0742     4.3390    26.2400     0.0480     0.2752
   84    1.660   1765.72     0.0688     0.0031     0.0313     0.0166     0.0818     4.4552    26.5600     0.0552     0.2589
   85    1.680   1766.76     0.0681     0.0028     0.0329     0.0168     0.0819     4.1577    26.8800     0.0550     0.2933
   86    1.700   1767.74     0.0735     0.0028     0.0314     0.0170     0.0869     3.8175    27.2000     0.0597     0.2528
   87    1.720   1768.75     0.0783     0.0026     0.0271     0.0172     0.0901     3.3359    27.5200     0.0626     0.1744
   88    1.740   1769.76     0.0789     0.0031     0.0279     0.0174     0.0902     3.9287    27.8400     0.0623     0.1506
   89    1.760   1770.73     0.0822     0.0029     0.0321     0.0176     0.0951     3.4956    28.1600     0.0670     0.1974
   90    1.780   1771.77     0.0810     0.0031     0.0293     0.0178     0.0940     3.8355    28.4800     0.0655     0.2025
   91    1.800   1772.78     0.0818     0.0029     0.0303     0.0180     0.0941     3.5202    28.8000     0.0653     0.1741
   92    1.820   1773.82     0.0789     0.0030     0.0320     0.0182     0.0921     3.7565    29.1200     0.0630     0.2101
   93    1.840   1774.79     0.0763     0.0027     0.0347     0.0184     0.0905     3.5655    29.4400     0.0610     0.2503
   94    1.860   1775.77     0.0714     0.0030     0.0375     0.0186     0.0868     4.3295    29.7600     0.0570     0.3141
   95    1.880   1776.79     0.0641     0.0028     0.0391     0.0188     0.0804     4.3673    30.0800     0.0503     0.3945
   96    1.900   1777.82     0.0629     0.0029     0.0406     0.0190     0.0797     4.5128    30.4000     0.0493     0.4266
   97    1.920   1778.80     0.0628     0.0025     0.0424     0.0192     0.0803     4.0981    30.7200     0.0496     0.4554
   98    1.940   1779.82     0.0564     0.0026     0.0441     0.0194     0.0746     4.6307    31.0400     0.0436     0.5475
   99    1.960   1780.85     0.0630     0.0029     0.0471     0.0196     0.0824     4.6545    31.3600     0.0510     0.5190
  100    1.980   1781.83     0.0631     0.0024     0.0494     0.0198     0.0831     3.8184    31.6800     0.0514     0.5413
  101    2.000   1782.83     0.0656     0.0024     0.0524     0.0200     0.0871     3.6746    32.0000     0.0551     0.5692
  102    2.020   1783.83     0.0639     0.0025     0.0547     0.0202     0.0866     3.9508    32.3200     0.0543     0.6230
  103    2.040   1784.86     0.0668     0.0027     0.0560     0.0204     0.0902     4.1035    32.6400     0.0575     0.6145
  104    2.060   1785.84     0.0696     0.0023     0.0543     0.0206     0.0928     3.3710    32.9600     0.0599     0.5809
  105    2.080   1786.87     0.0716     0.0026     0.0547     0.0208     0.0941     3.6137    33.2800     0.0608     0.5396
  106    2.100   1787.89     0.0742     0.0029     0.0537     0.0210     0.0967     3.9189    33.6000     0.0631     0.5144
  107    2.120   1788.88     0.0776     0.0032     0.0564     0.0212     0.1012     4.1417    33.9200     0.0672     0.5189
  108    2.140   1789.90     0.0830     0.0025     0.0572     0.0214     0.1071     3.0062    34.2400     0.0728     0.4933
  109    2.160   1790.88     0.0840     0.0027     0.0587     0.0216     0.1083     3.2209    34.5600     0.0737     0.4904
  110    2.180   1791.92     0.0872     0.0030     0.0605     0.0218     0.1124     3.4037    34.8800     0.0775     0.4911
  111    2.200   1792.89     0.0912     0.0028     0.0631     0.0220     0.1171     3.1464    35.2000     0.0819     0.4840
  112    2.220   1793.91     0.0920     0.0030     0.0602     0.0222     0.1179     3.3266    35.5200     0.0824     0.4802
  113    2.240   1794.94     0.0986     0.0032     0.0551     0.0224     0.1229     3.3581    35.8400     0.0870     0.4056
  114    2.260   1795.96     0.1008     0.0031     0.0508     0.0226     0.1228     3.1068    36.1600     0.0866     0.3430
  115    2.280   1796.96     0.1046     0.0030     0.0537     0.0228     0.1270     2.9721    36.4800     0.0905     0.3387
  116    2.300   1797.96     0.1055     0.0030     0.0555     0.0230     0.1281     2.8409    36.8000     0.0913     0.3370
  117    2.320   1799.01     0.1005     0.0030     0.0567     0.0232     0.1242     2.9293    37.1200     0.0871     0.3825
  118    2.340   1800.01     0.0999     0.0027     0.0589     0.0234     0.1242     2.7227    37.4400     0.0868     0.3991
  119    2.360   1801.02     0.0953     0.0022     0.0575     0.0236     0.1198     2.3323    37.7600     0.0821     0.4246
  120    2.380   1802.01     0.0916     0.0026     0.0583     0.0238     0.1160     2.7987    38.0800     0.0779     0.4397
  121    2.400   1803.04     0.0891     0.0029     0.0568     0.0240     0.1131     3.2871    38.4000     0.0747     0.4434
  122    2.420   1804.04     0.0890     0.0029     0.0542     0.0242     0.1122     3.3616    38.7200     0.0735     0.4245
  123    2.440   1805.07     0.0966     0.0030     0.0545     0.0244     0.1196     3.1800    39.0400     0.0806     0.3791
  124    2.460   1806.07     0.1065     0.0034     0.0561     0.0246     0.1288     3.1984    39.3600     0.0894     0.3189
  125    2.480   1807.08     0.1094     0.0034     0.0586     0.0248     0.1345     3.2370    39.6800     0.0949     0.3688
  126    2.500   1808.08     0.1110     0.0033     0.0506     0.0250     0.1333     3.2141    40.0000     0.0933     0.2991
  127    2.520   1809.07     0.1041     0.0033     0.0520     0.0252     0.1269     3.1913    40.3200     0.0866     0.3363
  128    2.540   1810.11     0.0967     0.0032     0.0520     0.0254     0.1188     3.2327    40.6400     0.0781     0.3460
  129    2.560   1811.12     0.0922     0.0029     0.0567     0.0256     0.1152     3.1289    40.9600     0.0742     0.3920
  130    2.580   1816.14     0.0927     0.0033     0.0590     0.0258     0.1173     3.5682    41.2800     0.0760     0.4309
  131    2.600   1827.94     0.0952     0.0031     0.0604     0.0260     0.1204     3.3973    41.6000     0.0788     0.4308
  132    2.620   1839.74     0.0977     0.0026     0.0618     0.0262     0.1235     2.7925    41.9200     0.0816     0.4306
  133    2.640   1845.39     0.0977     0.0026     0.0616     0.0264     0.1233     2.6514    42.2400     0.0811     0.4276
  134    2.660   1846.39     0.0970     0.0025     0.0663     0.0266     0.1243     2.6306    42.5600     0.0817     0.4684
  135    2.680   1847.42     0.0980     0.0029     0.0699     0.0268     0.1269     2.8708    42.8800     0.0840     0.4990
  136    2.700   1848.35     0.1035     0.0029     0.0678     0.0270     0.1324     2.8406    43.2000     0.0892     0.4696
  137    2.720   1849.40     0.1013     0.0025     0.0664     0.0272     0.1289     2.4967    43.5200     0.0853     0.4498
  138    2.740   1850.40     0.1004     0.0025     0.0684     0.0274     0.1288     2.5365    43.8400     0.0850     0.4721
  139    2.760   1851.47     0.1091     0.0022     0.0721     0.0276     0.1390     2.0913    44.1600     0.0948     0.4585
  140    2.780   1852.46     0.1150     0.0029     0.0704     0.0278     0.1449     2.5692    44.4800     0.1004     0.4312
  141    2.800   1853.48     0.1127     0.0029     0.0655     0.0280     0.1414     2.5351    44.8000     0.0966     0.4191
  142    2.820   1854.46     0.1157     0.0031     0.0548     0.0282     0.1392     2.6663    45.1200     0.0941     0.2969
  143    2.840   1855.49     0.1114     0.0034     0.0552     0.0284     0.1342     3.0736    45.4400     0.0888     0.2912
  144    2.860   1856.51     0.1093     0.0032     0.0605     0.0286     0.1338     2.9043    45.7600     0.0880     0.3382
  145    2.880   1857.53     0.1104     0.0033     0.0658     0.0288     0.1373     3.0123    46.0800     0.0912     0.3857
  146    2.900   1858.52     0.1139     0.0028     0.0697     0.0290     0.1426     2.4398    46.4000     0.0962     0.4092
  147    2.920   1859.51     0.1139     0.0027     0.0717     0.0292     0.1438     2.4097    46.7200     0.0970     0.4324
  148    2.940   1860.54     0.1141     0.0025     0.0693     0.0294     0.1440     2.2053    47.0400     0.0970     0.4312
  149    2.960   1861.55     0.1170     0.0027     0.0643     0.0296     0.1444     2.2782    47.3600     0.0971     0.3675
  150    2.980   1862.56     0.1143     0.0027     0.0618     0.0298     0.1406     2.3730    47.6800     0.0929     0.3531
  151    3.000   1863.58     0.1134     0.0030     0.0593     0.0300     0.1386     2.6046    48.0000     0.0906     0.3327
  152    3.020   1864.58     0.1075     0.0028     0.0571     0.0302     0.1319     2.5966    48.3200     0.0835     0.3323
  153    3.040   1865.57     0.1037     0.0031     0.0543     0.0304     0.1269     2.9686    48.6400     0.0782     0.3172
  154    3.060   1866.59     0.1003     0.0028     0.0581     0.0306     0.1241     2.7833    48.9600     0.0751     0.3457
  155    3.080   1867.61     0.1045     0.0029     0.0616     0.0308     0.1303     2.8087    49.2800     0.0810     0.3772
  156    3.100   1868.64     0.1048     0.0028     0.0595     0.0310     0.1299     2.7054    49.6000     0.0803     0.3587
  157    3.120   1869.65     0.1079     0.0026     0.0634     0.0312     0.1339     2.4093    49.9200     0.0840     0.3679
  158    3.140   1870.65     0.1095     0.0029     0.0657     0.0314     0.1372     2.6848    50.2400     0.0870     0.3990
  159    3.160   1871.68     0.1116     0.0028     0.0618     0.0316     0.1380     2.5476    50.5600     0.0874     0.3562
  160    3.180   1872.65     0.1118     0.0031     0.0633     0.0318     0.1378     2.7951    50.8800     0.0869     0.3457
  161    3.200   1873.66     0.1093     0.0031     0.0667     0.0320     0.1370     2.7975    51.2000     0.0858     0.3946
  162    3.220   1874.69     0.1126     0.0026     0.0671     0.0322     0.1407     2.4304    51.5200     0.0892     0.3905
  163    3.240   1875.70     0.1147     0.0024     0.0674     0.0324     0.1431     2.1285    51.8400     0.0912     0.3850
  164    3.260   1876.73     0.1173     0.0024     0.0665     0.0326     0.1451     2.0107    52.1600     0.0929     0.3609
  165    3.280   1877.72     0.1248     0.0024     0.0725     0.0328     0.1544     1.9816    52.4800     0.1019     0.3696
  166    3.300   1878.76     0.1375     0.0028     0.0730     0.0330     0.1690     2.0701    52.8000     0.1162     0.3621
  167    3.320   1879.74     0.1389     0.0034     0.0636     0.0332     0.1677     2.4411    53.1200     0.1146     0.3090
  168    3.340   1880.80     0.1372     0.0031     0.0539     0.0334     0.1608     2.2775    53.4400     0.1074     0.2125
  169    3.360   1881.77     0.1378     0.0035     0.0515     0.0336     0.1595     2.5431    53.7600     0.1058     0.1721
  170    3.380   1882.80     0.1359     0.0035     0.0512     0.0338     0.1576     2.5737    54.0800     0.1035     0.1741
  171    3.400   1883.78     0.1312     0.0035     0.0530     0.0340     0.1517     2.7289    54.4000     0.0973     0.1529
  172    3.420   1884.78     0.1319     0.0032     0.0600     0.0342     0.1564     2.4365    54.7200     0.1017     0.2373
  173    3.440   1885.82     0.1310     0.0032     0.0618     0.0344     0.1569     2.4551    55.0400     0.1018     0.2669
  174    3.460   1886.84     0.1325     0.0031     0.0648     0.0346     0.1591     2.3439    55.3600     0.1038     0.2769
  175    3.480   1887.87     0.1311     0.0030     0.0680     0.0348     0.1592     2.3220    55.6800     0.1035     0.3105
  176    3.500   1888.85     0.1290     0.0029     0.0703     0.0350     0.1582     2.2315    56.0000     0.1022     0.3383
  177    3.520   1889.88     0.1285     0.0033     0.0727     0.0352     0.1587     2.5622    56.3200     0.1024     0.3576
  178    3.540   1890.85     0.1282     0.0033     0.0752     0.0354     0.1594     2.5866    56.6400     0.1028     0.3781
  179    3.560   1891.82     0.1297     0.0032     0.0785     0.0356     0.1622     2.4397    56.9600     0.1052     0.3961
  180    3.580   1892.83     0.1290     0.0035     0.0808     0.0358     0.1626     2.6078    57.2800     0.1053     0.4199
  181    3.600   1893.86     0.1263     0.0032     0.0816     0.0360     0.1604     2.5383    57.6000     0.1028     0.4400
  182    3.620   1894.89     0.1313     0.0029     0.0826     0.0362     0.1661     2.2056    57.9200     0.1082     0.4314
  183    3.640   1895.91     0.1344     0.0029     0.0791     0.0364     0.1684     2.1585    58.2400     0.1102     0.4048
  184    3.660   1896.88     0.1338     0.0029     0.0758     0.0366     0.1661     2.1849    58.5600     0.1075     0.3738
  185    3.680   1897.92     0.1340     0.0029     0.0779     0.0368     0.1661     2.1675    58.8800     0.1072     0.3694
  186    3.700   1898.89     0.1346     0.0031     0.0799     0.0370     0.1680     2.2778    59.2000     0.1088     0.3913
  187    3.720   1899.92     0.1391     0.0029     0.0828     0.0372     0.1735     2.0641    59.5200     0.1140     0.3915
  188    3.740   1900.94     0.1392     0.0028     0.0866     0.0374     0.1752     2.0111    59.8400     0.1154     0.4185
  189    3.760   1901.90     0.1415     0.0033     0.0853     0.0376     0.1784     2.3274    60.1600     0.1183     0.4258
  190    3.780   1902.95     0.1474     0.0032     0.0799     0.0378     0.1816     2.1970    60.4800     0.1211     0.3596
  191    3.800   1904.00     0.1441     0.0030     0.0778     0.0380     0.1775     2.1095    60.8000     0.1167     0.3551
  192    3.820   1904.97     0.1455     0.0032     0.0791     0.0382     0.1782     2.2153    61.1200     0.1171     0.3399
  193    3.840   1905.98     0.1457     0.0032     0.0784     0.0384     0.1788     2.2265    61.4400     0.1173     0.3440
  194    3.860   1906.96     0.1454     0.0034     0.0795     0.0386     0.1784     2.3095    61.7600     0.1167     0.3431
  195    3.880   1907.98     0.1451     0.0035     0.0813     0.0388     0.1793     2.4323    62.0800     0.1172     0.3625
  196    3.900   1908.99     0.1425     0.0032     0.0786     0.0390     0.1761     2.2139    62.4000     0.1137     0.3600
  197    3.920   1910.01     0.1378     0.0032     0.0734     0.0392     0.1695     2.3404    62.7200     0.1068     0.3394
  198    3.940   1911.04     0.1366     0.0032     0.0684     0.0394     0.1661     2.3903    63.0400     0.1030     0.2982
  199    3.960   1912.04     0.1365     0.0036     0.0682     0.0396     0.1648     2.6511    63.3600     0.1014     0.2742
  200    3.980   1913.08     0.1323     0.0034     0.0713     0.0398     0.1619     2.5784    63.6800     0.0983     0.3139
  201    4.000   1914.01     0.1305     0.0037     0.0726     0.0400     0.1608     2.8166    64.0000     0.0968     0.3336
  202    4.020   1915.04     0.1245     0.0032     0.0717     0.0402     0.1547     2.6009    64.3200     0.0904     0.3524
  203    4.040   1916.03     0.1186     0.0029     0.0703     0.0404     0.1483     2.5067    64.6400     0.0837     0.3615
  204    4.060   1917.04     0.1124     0.0032     0.0698     0.0406     0.1418     2.7248    64.9600     0.0768     0.3803
  205    4.080   1918.03     0.1147     0.0032     0.0729     0.0408     0.1449     2.8117    65.2800     0.0796     0.3906
  206    4.100   1919.09     0.1156     0.0035     0.0745     0.0410     0.1465     3.0393    65.6000     0.0809     0.4017
  207    4.120   1920.11     0.1186     0.0032     0.0806     0.0412     0.1516     2.6791    65.9200     0.0857     0.4352
  208    4.140   1921.12     0.1228     0.0031     0.0846     0.0414     0.1578     2.5749    66.2400     0.0915     0.4575
  209    4.160   1922.13     0.1280     0.0029     0.0872     0.0416     0.1642     2.2773    66.5600     0.0976     0.4575
  210    4.180   1923.13     0.1298     0.0027     0.0897     0.0418     0.1672     2.0549    66.8800     0.1003     0.4711
  211    4.200   1924.16     0.1304     0.0030     0.0925     0.0420     0.1687     2.2798    67.2000     0.1015     0.4858
  212    4.220   1925.14     0.1358     0.0032     0.0972     0.0422     0.1760     2.4318    67.5200     0.1085     0.4931
  213    4.240   1926.17     0.1353     0.0030     0.0952     0.0424     0.1766     2.2020    67.8400     0.1088     0.5138
  214    4.260   1927.19     0.1376     0.0031     0.0922     0.0426     0.1758     2.3027    68.1600     0.1076     0.4488
  215    4.280   1928.21     0.1459     0.0029     0.0970     0.0428     0.1861     1.9823    68.4800     0.1176     0.4495
  216    4.300   1929.19     0.1470     0.0028     0.1004     0.0430     0.1887     1.9317    68.8000     0.1199     0.4704
  217    4.320   1930.21     0.1462     0.0034     0.0975     0.0432     0.1878     2.3230    69.1200     0.1187     0.4702
  218    4.340   1931.21     0.1467     0.0038     0.0942     0.0434     0.1866     2.5755    69.4400     0.1171     0.4388
  219    4.360   1932.22     0.1484     0.0036     0.0964     0.0436     0.1882     2.3984    69.7600     0.1184     0.4309
  220    4.380   1933.27     0.1544     0.0035     0.0989     0.0438     0.1958     2.3824    70.0800     0.1258     0.4359
  221    4.400   1934.30     0.1500     0.0037     0.0961     0.0440     0.1906     2.3948    70.4000     0.1202     0.4394
  222    4.420   1935.33     0.1531     0.0034     0.0997     0.0442     0.1944     2.1946    70.7200     0.1237     0.4376
  223    4.440   1936.33     0.1495     0.0031     0.1033     0.0444     0.1925     2.0702    71.0400     0.1215     0.4767
  224    4.460   1937.37     0.1536     0.0037     0.1038     0.0446     0.1974     2.3830    71.3600     0.1261     0.4739
  225    4.480   1938.39     0.1512     0.0040     0.0932     0.0448     0.1927     2.5957    71.6800     0.1210     0.4458
  226    4.500   1939.40     0.1486     0.0042     0.0916     0.0450     0.1872     2.8085    72.0000     0.1152     0.4061
  227    4.520   1940.42     0.1506     0.0045     0.0854     0.0452     0.1878     3.0345    72.3200     0.1155     0.3752
  228    4.540   1941.49     0.1572     0.0045     0.0800     0.0454     0.1924     2.8429    72.6400     0.1197     0.3199
  229    4.560   1942.45     0.1589     0.0044     0.0847     0.0456     0.1936     2.7433    72.9600     0.1206     0.3068
  230    4.580   1952.58     0.1549     0.0045     0.0897     0.0458     0.1918     2.8790    73.2800     0.1185     0.3555
  231    4.600   1968.51     0.1536     0.0046     0.0946     0.0460     0.1926     2.9352    73.6000     0.1190     0.3937
  232    4.620   1981.95     0.1517     0.0039     0.0980     0.0462     0.1925     2.5811    73.9200     0.1186     0.4309
  233    4.640   1982.98     0.1475     0.0039     0.1005     0.0464     0.1893     2.6442    74.2400     0.1151     0.4634
  234    4.660   1983.97     0.1483     0.0034     0.1033     0.0466     0.1914     2.2971    74.5600     0.1169     0.4797
  235    4.680   1985.01     0.1485     0.0040     0.1021     0.0468     0.1914     2.6920    74.8800     0.1166     0.4754
  236    4.700   1986.01     0.1479     0.0039     0.1013     0.0470     0.1907     2.6555    75.2000     0.1155     0.4751
  237    4.720   1987.00     0.1431     0.0037     0.1008     0.0472     0.1850     2.5082    75.5200     0.1095     0.4811
  238    4.740   1988.05     0.1461     0.0038     0.1025     0.0474     0.1888     2.6233    75.8400     0.1130     0.4814
  239    4.760   1989.09     0.1496     0.0035     0.1058     0.0476     0.1932     2.3720    76.1600     0.1170     0.4810
  240    4.780   1990.10     0.1514     0.0035     0.1104     0.0478     0.1974     2.2852    76.4800     0.1210     0.5118
  241    4.800   1991.09     0.1510     0.0036     0.1125     0.0480     0.1976     2.3747    76.8000     0.1208     0.5204
  242    4.820   1992.09     0.1539     0.0038     0.1152     0.0482     0.2020     2.4891    77.1200     0.1249     0.5318
  243    4.840   1993.10     0.1544     0.0038     0.1166     0.0484     0.2033     2.4302    77.4400     0.1258     0.5394
  244    4.860   1994.09     0.1526     0.0040     0.1159     0.0486     0.2015     2.6280    77.7600     0.1238     0.5492
  245    4.880   1995.10     0.1528     0.0039     0.1156     0.0488     0.2014     2.5585    78.0800     0.1233     0.5421
  246    4.900   1996.09     0.1545     0.0038     0.1121     0.0490     0.2021     2.4943    78.4000     0.1237     0.5212
  247    4.920   1997.12     0.1542     0.0040     0.1094     0.0492     0.2005     2.5671    78.7200     0.1218     0.5012
  248    4.940   1998.16     0.1543     0.0039     0.1097     0.0494     0.2002     2.5153    79.0400     0.1211     0.4930
  249    4.960   1999.15     0.1569     0.0035     0.1121     0.0496     0.2038     2.2367    79.3600     0.1244     0.4972
  250    4.980   2000.14     0.1569     0.0037     0.1063     0.0498     0.2029     2.3268    79.6800     0.1233     0.4853
  251    5.000   2001.14     0.1624     0.0036     0.1013     0.0500     0.2051     2.2367    80.0000     0.1251     0.4129
  252    5.020   2002.16     0.1648     0.0037     0.1021     0.0502     0.2076     2.2218    80.3200     0.1273     0.4070
  253    5.040   2003.13     0.1650     0.0039     0.1010     0.0504     0.2078     2.3821    80.6400     0.1272     0.4054
  254    5.060   2004.16     0.1654     0.0040     0.1009     0.0506     0.2073     2.3930    80.9600     0.1263     0.3885
  255    5.080   2005.15     0.1666     0.0038     0.1036     0.0508     0.2103     2.2708    81.2800     0.1290     0.4119
  256    5.100   2006.17     0.1655     0.0038     0.1062     0.0510     0.2093     2.3095    81.6000     0.1277     0.4168
  257    5.120   2007.17     0.1689     0.0039     0.1113     0.0512     0.2151     2.3016    81.9200     0.1332     0.4410
  258    5.140   2008.19     0.1688     0.0036     0.1123     0.0514     0.2157     2.1297    82.2400     0.1335     0.4514
  259    5.160   2009.21     0.1702     0.0036     0.1148     0.0516     0.2186     2.0981    82.5600     0.1360     0.4676
  260    5.180   2010.20     0.1752     0.0035     0.1156     0.0518     0.2235     2.0672    82.8800     0.1407     0.4507
  261    5.200   2011.21     0.1737     0.0038     0.1129     0.0520     0.2218     2.1606    83.2000     0.1386     0.4510
  262    5.220   2012.23     0.1838     0.0043     0.1097     0.0522     0.2304     2.3197    83.5200     0.1469     0.3996
  263    5.240   2013.22     0.1794     0.0043     0.1037     0.0524     0.2238     2.3870    83.8400     0.1399     0.3808
  264    5.260   2014.21     0.1781     0.0044     0.0996     0.0526     0.2206     2.4988    84.1600     0.1364     0.3557
  265    5.280   2015.23     0.1756     0.0048     0.0979     0.0528     0.2168     2.7466    84.4800     0.1323     0.3409
  266    5.300   2016.26     0.1800     0.0050     0.0986     0.0530     0.2210     2.7732    84.8000     0.1362     0.3275
  267    5.320   2017.28     0.1744     0.0046     0.1029     0.0532     0.2170     2.6377    85.1200     0.1319     0.3650
  268    5.340   2018.31     0.1791     0.0048     0.1082     0.0534     0.2239     2.7062    85.4400     0.1385     0.3849
  269    5.360   2019.36     0.1773     0.0049     0.1043     0.0536     0.2207     2.8031    85.7600     0.1349     0.3680
  270    5.380   2020.35     0.1795     0.0050     0.1036     0.0538     0.2234     2.7897    86.0800     0.1373     0.3687
  271    5.400   2021.23     0.1767     0.0053     0.0978     0.0540     0.2191     2.9877    86.4000     0.1327     0.3541
  272    5.420   2022.16     0.1702     0.0049     0.0941     0.0542     0.2097     2.8951    86.7200     0.1230     0.3247
  273    5.440   2023.21     0.1692     0.0050     0.0942     0.0544     0.2090     2.9839    87.0400     0.1220     0.3317
  274    5.460   2024.22     0.1591     0.0047     0.0913     0.0546     0.1972     2.9272    87.3600     0.1098     0.3284
  275    5.480   2025.22     0.1537     0.0049     0.0966     0.0548     0.1933     3.1577    87.6800     0.1056     0.3727
  276    5.500   2026.23     0.1563     0.0050     0.1068     0.0550     0.1996     3.2607    88.0000     0.1116     0.4301
  277    5.520   2027.28     0.1675     0.0048     0.1150     0.0552     0.2151     2.9786    88.3200     0.1268     0.4593
  278    5.540   2028.29     0.1774     0.0049     0.1238     0.0554     0.2280     2.7780    88.6400     0.1393     0.4664
  279    5.560   2029.26     0.1896     0.0051     0.1235     0.0556     0.2429     2.7028    88.9600     0.1539     0.4633
  280    5.580   2030.34     0.1912     0.0050     0.1173     0.0558     0.2426     2.5671    89.2800     0.1533     0.4347
  281    5.600   2031.32     0.1918     0.0049     0.1178     0.0560     0.2419     2.5599    89.6000     0.1523     0.4152
  282    5.620   2032.35     0.1913     0.0049     0.1155     0.0562     0.2401     2.5438    89.9200     0.1502     0.3998
  283    5.640   2033.37     0.1914     0.0048     0.1131     0.0564     0.2391     2.4609    90.2400     0.1489     0.3846
  284    5.660   2034.22     0.1994     0.0049     0.1172     0.0566     0.2480     2.5069    90.5600     0.1574     0.3762
  285    5.680   2035.05     0.1981     0.0053     0.1204     0.0568     0.2482     2.7101    90.8800     0.1573     0.3967
  286    5.700   2035.92     0.2015     0.0050     0.1213     0.0570     0.2526     2.4692    91.2000     0.1614     0.4011
  287    5.720   2036.86     0.2010     0.0052     0.1212     0.0572     0.2519     2.6006    91.5200     0.1604     0.3988
  288    5.740   2037.95     0.1965     0.0052     0.1223     0.0574     0.2473     2.6313    91.8400     0.1555     0.4094
  289    5.760   2038.91     0.1995     0.0053     0.1249     0.0576     0.2517     2.6950    92.1600     0.1595     0.4177
  290    5.780   2039.96     0.2040     0.0052     0.1254     0.0578     0.2566     2.5519    92.4800     0.1641     0.4110
  291    5.800   2041.00     0.2066     0.0052     0.1289     0.0580     0.2604     2.5307    92.8000     0.1676     0.4175
  292    5.820   2042.00     0.2064     0.0055     0.1288     0.0582     0.2603     2.6673    93.1200     0.1672     0.4189
  293    5.840   2043.00     0.2011     0.0057     0.1259     0.0584     0.2544     2.8397    93.4400     0.1610     0.4264
  294    5.860   2043.99     0.2011     0.0052     0.1254     0.0586     0.2532     2.5636    93.7600     0.1594     0.4113
  295    5.880   2045.01     0.1955     0.0056     0.1275     0.0588     0.2485     2.8733    94.0800     0.1544     0.4369
  296    5.900   2046.00     0.1923     0.0056     0.1304     0.0590     0.2468     2.8759    94.4000     0.1524     0.4641
  297    5.920   2047.06     0.1847     0.0049     0.1298     0.0592     0.2392     2.6635    94.7200     0.1445     0.4897
  298    5.940   2048.05     0.1857     0.0052     0.1317     0.0594     0.2403     2.7930    95.0400     0.1453     0.4860
  299    5.960   2049.07     0.1868     0.0053     0.1343     0.0596     0.2429     2.8190    95.3600     0.1476     0.5025
  300    5.980   2050.07     0.1891     0.0054     0.1356     0.0598     0.2459     2.8526    95.6800     0.1502     0.5013
  301    6.000   2051.08     0.1895     0.0052     0.1318     0.0600     0.2451     2.7565    96.0000     0.1491     0.4858
  302    6.020   2052.08     0.1943     0.0052     0.1327     0.0602     0.2500     2.6953    96.3200     0.1537     0.4711
  303    6.040   2053.10     0.1935     0.0050     0.1360     0.0604     0.2499     2.5685    96.6400     0.1532     0.4812
  304    6.060   2054.12     0.2004     0.0050     0.1353     0.0606     0.2575     2.4835    96.9600     0.1606     0.4702
  305    6.080   2055.13     0.2008     0.0050     0.1365     0.0608     0.2579     2.4956    97.2800     0.1606     0.4686
  306    6.100   2056.15     0.1982     0.0051     0.1346     0.0610     0.2550     2.5795    97.6000     0.1574     0.4726
  307    6.120   2057.18     0.1923     0.0051     0.1342     0.0612     0.2486     2.6562    97.9200     0.1507     0.4834
  308    6.140   2058.20     0.1892     0.0048     0.1349     0.0614     0.2459     2.5569    98.2400     0.1477     0.4989
  309    6.160   2059.23     0.1905     0.0045     0.1331     0.0616     0.2470     2.3775    98.5600     0.1485     0.4912
  310    6.180   2060.21     0.1921     0.0043     0.1352     0.0618     0.2483     2.2318    98.8800     0.1495     0.4825
  311    6.200   2061.21     0.1874     0.0045     0.1373     0.0620     0.2447     2.3803    99.2000     0.1455     0.5111
  312    6.220   2062.24     0.1879     0.0044     0.1388     0.0622     0.2461     2.3480    99.5200     0.1466     0.5215
  313    6.240   2063.23     0.1886     0.0042     0.1408     0.0624     0.2477     2.2130    99.8400     0.1479     0.5297
  314    6.260   2064.25     0.1895     0.0043     0.1375     0.0626     0.2480     2.2392   100.1600     0.1478     0.5189
  315    6.280   2065.27     0.1880     0.0044     0.1401     0.0628     0.2461     2.3553   100.4800     0.1457     0.5199
  316    6.300   2066.24     0.1908     0.0043     0.1442     0.0630     0.2508     2.2516   100.8000     0.1500     0.5331
  317    6.320   2067.28     0.1924     0.0044     0.1429     0.0632     0.2530     2.2432   101.1200     0.1519     0.5344
  318    6.340   2068.33     0.1988     0.0048     0.1374     0.0634     0.2573     2.4271   101.4400     0.1559     0.4870
  319    6.360   2069.30     0.1944     0.0050     0.1381     0.0636     0.2520     2.5472   101.7600     0.1503     0.4891
  320    6.380   2070.33     0.1936     0.0050     0.1417     0.0638     0.2526     2.5751   102.0800     0.1505     0.5084
  321    6.400   2071.32     0.1931     0.0051     0.1422     0.0640     0.2530     2.6043   102.4000     0.1506     0.5212
  322    6.420   2072.34     0.1983     0.0052     0.1446     0.0642     0.2588     2.6454   102.7200     0.1561     0.5107
  323    6.440   2073.38     0.1962     0.0051     0.1402     0.0644     0.2557     2.5968   103.0400     0.1526     0.5059
  324    6.460   2074.37     0.1917     0.0053     0.1417     0.0646     0.2509     2.7147   103.3600     0.1475     0.5182
  325    6.480   2083.52     0.1901     0.0055     0.1410     0.0648     0.2494     2.8327   103.6800     0.1457     0.5254
  326    6.500   2098.54     0.1878     0.0056     0.1401     0.0650     0.2468     2.9228   104.0000     0.1428     0.5286
  327    6.520   2113.56     0.1855     0.0055     0.1393     0.0652     0.2441     2.9189   104.3200     0.1398     0.5318
  328    6.540   2119.02     0.1813     0.0054     0.1435     0.0654     0.2408     2.9782   104.6400     0.1362     0.5616
  329    6.560   2143.86     0.1857     0.0051     0.1434     0.0656     0.2460     2.7805   104.9600     0.1410     0.5527
  330    6.580   2179.54     0.1898     0.0052     0.1434     0.0658     0.2500     2.8695   105.2800     0.1447     0.5372
  331    6.600   2215.21     0.1938     0.0048     0.1435     0.0660     0.2541     2.6432   105.6000     0.1485     0.5218
  332    6.620   2224.81     0.1908     0.0053     0.1447     0.0662     0.2514     2.7118   105.9200     0.1455     0.5370
  333    6.640   2225.47     0.1916     0.0051     0.1425     0.0664     0.2521     2.6646   106.2400     0.1459     0.5319
  334    6.660   2226.09     0.1893     0.0050     0.1447     0.0666     0.2495     2.6389   106.5600     0.1429     0.5369
  335    6.680   2226.72     0.1875     0.0049     0.1420     0.0668     0.2478     2.6086   106.8800     0.1409     0.5447
  336    6.700   2227.38     0.1853     0.0050     0.1420     0.0670     0.2437     2.6739   107.2000     0.1365     0.5287
  337    6.720   2228.02     0.1829     0.0049     0.1471     0.0672     0.2442     2.6061   107.5200     0.1367     0.5762
  338    6.740   2228.69     0.1819     0.0052     0.1512     0.0674     0.2447     2.9066   107.8400     0.1369     0.6009
  339    6.760   2229.35     0.1878     0.0054     0.1576     0.0676     0.2531     2.9848   108.1600     0.1449     0.6054
  340    6.780   2230.02     0.1917     0.0055     0.1599     0.0678     0.2587     2.9667   108.4800     0.1503     0.6116
  341    6.800   2230.67     0.1936     0.0057     0.1524     0.0680     0.2583     2.9486   108.8000     0.1495     0.5757
  342    6.820   2231.29     0.2000     0.0058     0.1526     0.0682     0.2647     2.9539   109.1200     0.1556     0.5519
  343    6.840   2231.95     0.2032     0.0057     0.1516     0.0684     0.2667     2.8289   109.4400     0.1573     0.5266
  344    6.860   2239.49     0.2038     0.0056     0.1499     0.0686     0.2672     2.7210   109.7600     0.1574     0.5223
  345    6.880   2258.70     0.2024     0.0055     0.1472     0.0688     0.2646     2.6855   110.0800     0.1545     0.5131
  346    6.900   2277.91     0.2010     0.0056     0.1445     0.0690     0.2620     2.7292   110.4000     0.1516     0.5038
  347    6.920   2290.22     0.1977     0.0053     0.1478     0.0692     0.2592     2.6112   110.7200     0.1485     0.5201
  348    6.940   2291.27     0.1963     0.0056     0.1499     0.0694     0.2592     2.8661   111.0400     0.1482     0.5418
  349    6.960   2292.28     0.1936     0.0053     0.1507     0.0696     0.2565     2.7703   111.3600     0.1452     0.5534
  350    6.980   2293.30     0.1905     0.0053     0.1548     0.0698     0.2549     2.7691   111.6800     0.1432     0.5830
  351    7.000   2294.30     0.1882     0.0054     0.1609     0.0700     0.2549     2.8253   112.0000     0.1429     0.6208
  352    7.020   2295.30     0.1900     0.0054     0.1657     0.0702     0.2592     2.8955   112.3200     0.1468     0.6441
  353    7.040   2296.34     0.1918     0.0049     0.1658     0.0704     0.2614     2.5204   112.6400     0.1488     0.6412
  354    7.060   2297.41     0.2010     0.0054     0.1649     0.0706     0.2704     2.6656   112.9600     0.1575     0.6014
  355    7.080   2298.41     0.2016     0.0053     0.1664     0.0708     0.2716     2.6401   113.2800     0.1583     0.6053
  356    7.100   2299.41     0.2016     0.0051     0.1640     0.0710     0.2708     2.5218   113.6000     0.1572     0.5966
  357    7.120   2300.44     0.2008     0.0051     0.1647     0.0712     0.2694     2.5393   113.9200     0.1555     0.5937
  358    7.140   2301.44     0.2051     0.0049     0.1700     0.0714     0.2757     2.4492   114.2400     0.1615     0.5984
  359    7.160   2302.46     0.2042     0.0050     0.1738     0.0716     0.2769     2.4044   114.5600     0.1623     0.6245
  360    7.180   2303.49     0.2107     0.0051     0.1744     0.0718     0.2838     2.4496   114.8800     0.1690     0.6055
  361    7.200   2304.52     0.2131     0.0050     0.1718     0.0720     0.2859     2.3581   115.2000     0.1707     0.5941
  362    7.220   2305.52     0.2183     0.0052     0.1702     0.0722     0.2900     2.4318   115.5200     0.1745     0.5642
  363    7.240   2306.58     0.2247     0.0053     0.1653     0.0724     0.2950     2.4062   115.8400     0.1791     0.5293
  364    7.260   2307.59     0.2260     0.0057     0.1601     0.0726     0.2942     2.5256   116.1600     0.1781     0.5041
  365    7.280   2308.62     0.2235     0.0058     0.1554     0.0728     0.2893     2.6037   116.4800     0.1728     0.4861
  366    7.300   2309.63     0.2202     0.0052     0.1539     0.0730     0.2848     2.3741   116.8000     0.1680     0.4809
  367    7.320   2310.67     0.2153     0.0054     0.1566     0.0732     0.2804     2.4548   117.1200     0.1633     0.5019
  368    7.340   2311.65     0.2133     0.0054     0.1620     0.0734     0.2807     2.5230   117.4400     0.1632     0.5329
  369    7.360   2312.69     0.2049     0.0056     0.1676     0.0736     0.2744     2.7080   117.7600     0.1567     0.5868
  370    7.380   2313.73     0.2053     0.0056     0.1735     0.0738     0.2774     2.7127   118.0800     0.1593     0.6147
  371    7.400   2314.77     0.2102     0.0050     0.1791     0.0740     0.2846     2.4157   118.4000     0.1662     0.6203
  372    7.420   2315.83     0.2170     0.0052     0.1843     0.0742     0.2939     2.4105   118.7200     0.1752     0.6216
  373    7.440   2316.80     0.2194     0.0053     0.1823     0.0744     0.2970     2.4499   119.0400     0.1779     0.6195
  374    7.460   2317.83     0.2235     0.0057     0.1807     0.0746     0.2989     2.5542   119.3600     0.1796     0.5854
  375    7.480   2318.78     0.2322     0.0059     0.1799     0.0748     0.3078     2.5890   119.6800     0.1881     0.5591
  376    7.500   2319.81     0.2357     0.0060     0.1763     0.0750     0.3110     2.5749   120.0000     0.1910     0.5453
  377    7.520   2320.84     0.2357     0.0062     0.1730     0.0752     0.3082     2.6220   120.3200     0.1879     0.5187
  378    7.540   2321.91     0.2367     0.0060     0.1755     0.0754     0.3098     2.5508   120.6400     0.1891     0.5214
  379    7.560   2322.92     0.2359     0.0065     0.1736     0.0756     0.3087     2.7589   120.9600     0.1878     0.5206
  380    7.580   2323.94     0.2354     0.0065     0.1759     0.0758     0.3083     2.7491   121.2800     0.1870     0.5235
  381    7.600   2324.97     0.2356     0.0062     0.1823     0.0760     0.3114     2.6330   121.6000     0.1898     0.5504
  382    7.620   2325.95     0.2317     0.0062     0.1868     0.0762     0.3095     2.6500   121.9200     0.1875     0.5815
  383    7.640   2326.96     0.2307     0.0058     0.1904     0.0764     0.3103     2.5062   122.2400     0.1881     0.6014
  384    7.660   2328.00     0.2265     0.0062     0.1941     0.0766     0.3074     2.6834   122.5600     0.1848     0.6269
  385    7.680   2329.07     0.2231     0.0062     0.1987     0.0768     0.3060     2.7737   122.8800     0.1831     0.6581
  386    7.700   2330.06     0.2276     0.0061     0.2023     0.0770     0.3120     2.6853   123.2000     0.1888     0.6565
  387    7.720   2331.06     0.2329     0.0058     0.2032     0.0772     0.3182     2.5009   123.5200     0.1947     0.6470
  388    7.740   2332.09     0.2339     0.0062     0.2052     0.0774     0.3202     2.6466   123.8400     0.1964     0.6524
  389    7.760   2333.13     0.2376     0.0063     0.2036     0.0776     0.3227     2.6457   124.1600     0.1985     0.6297
  390    7.780   2334.13     0.2370     0.0062     0.2091     0.0778     0.3245     2.6256   124.4800     0.2000     0.6527
  391    7.800   2335.17     0.2371     0.0061     0.2041     0.0780     0.3237     2.5937   124.8000     0.1989     0.6445
  392    7.820   2336.16     0.2411     0.0059     0.2014     0.0782     0.3257     2.4506   125.1200     0.2006     0.6148
  393    7.840   2337.20     0.2405     0.0066     0.2040     0.0784     0.3259     2.7262   125.4400     0.2005     0.6241
  394    7.860   2338.25     0.2406     0.0066     0.2053     0.0786     0.3261     2.7843   125.7600     0.2004     0.6243
  395    7.880   2339.23     0.2466     0.0065     0.2067     0.0788     0.3338     2.7032   126.0800     0.2077     0.6198
  396    7.900   2340.28     0.2453     0.0068     0.1979     0.0790     0.3291     2.7816   126.4000     0.2027     0.5952
  397    7.920   2341.28     0.2498     0.0068     0.2004     0.0792     0.3341     2.7674   126.7200     0.2074     0.5853
  398    7.940   2342.30     0.2436     0.0069     0.2031     0.0794     0.3280     2.7895   127.0400     0.2009     0.6044
  399    7.960   2343.36     0.2502     0.0073     0.2065     0.0796     0.3369     2.9090   127.3600     0.2096     0.6052
  400    7.980   2344.36     0.2468     0.0071     0.2099     0.0798     0.3343     2.8924   127.6800     0.2066     0.6224
  401    8.000   2345.41     0.2482     0.0070     0.2121     0.0800     0.3379     2.8367   128.0000     0.2099     0.6366
  402    8.020   2346.40     0.2498     0.0072     0.2081     0.0802     0.3377     2.8458   128.3200     0.2094     0.6170
  403    8.040   2347.46     0.2480     0.0069     0.2164     0.0804     0.3379     2.7897   128.6400     0.2092     0.6382
  404    8.060   2348.45     0.2498     0.0073     0.2139     0.0806     0.3401     2.9318   128.9600     0.2112     0.6370
  405    8.080   2349.49     0.2631     0.0065     0.2111     0.0808     0.3519     2.5886   129.2800     0.2226     0.5870
  406    8.100   2350.44     0.2706     0.0061     0.2084     0.0810     0.3584     2.2937   129.6000     0.2288     0.5593
  407    8.120   2351.51     0.2634     0.0068     0.2139     0.0812     0.3526     2.5741   129.9200     0.2227     0.5895
  408    8.140   2352.55     0.2761     0.0066     0.2131     0.0814     0.3666     2.5029   130.2400     0.2363     0.5682
  409    8.160   2353.57     0.2949     0.0064     0.2083     0.0816     0.3845     2.2064   130.5600     0.2540     0.5198
  410    8.180   2354.58     0.3057     0.0066     0.1950     0.0818     0.3876     2.1723   130.8800     0.2568     0.4414
  411    8.200   2355.58     0.2903     0.0068     0.1907     0.0820     0.3724     2.2943   131.2000     0.2412     0.4702
  412    8.220   2356.57     0.2724     0.0069     0.2095     0.0822     0.3572     2.4558   131.5200     0.2257     0.5307
  413    8.240   2357.63     0.2620     0.0067     0.2219     0.0824     0.3542     2.5283   131.8400     0.2224     0.6162
  414    8.260   2358.64     0.2611     0.0067     0.2246     0.0826     0.3549     2.5898   132.1600     0.2228     0.6318
  415    8.280   2359.69     0.2677     0.0055     0.2376     0.0828     0.3652     2.1029   132.4800     0.2327     0.6420
  416    8.300   2360.72     0.2951     0.0000     0.2402     0.0830     0.3961    -0.0055   132.8000     0.2633     0.5996
  417    8.320   2361.73     0.3053    -0.0044     0.2364     0.0832     0.4036    -1.4116   133.1200     0.2705     0.5580
  418    8.340   2362.78     0.3307    -0.0054     0.2402     0.0834     0.4328    -1.6541   133.4400     0.2993     0.5331
  419    8.360   2363.80     0.3449    -0.0047     0.2367     0.0836     0.4425    -1.3727   133.7600     0.3088     0.4822
  420    8.380   2364.80     0.4295    -0.0023     0.2522     0.0838     0.5315    -0.6305   134.0800     0.3974     0.4005
  421    8.400   2365.85     1.0070     0.0006     0.2344     0.0840     1.1130     0.0461   134.4000     0.9786     0.1762
  422    8.420   2367.97     2.2272     0.0104     0.1216     0.0842     2.2839     0.6326   134.7200     2.1492     0.0243
  423    8.440   2394.55     3.2445     0.0135     0.0826     0.0844     3.2849     0.6162   135.0400     3.1498     0.0086
  424    8.460   2420.80     3.8999     0.0205     0.0619     0.0846     3.9302     0.7591   135.3600     3.7949    -0.0030
  425    8.480   2423.56     4.6469     0.0268     0.0614     0.0848     4.6744     0.5877   135.6800     4.5387    -0.0042
  426    8.500   2425.26     5.2124     0.0314     0.0548     0.0850     5.2376     0.6080   136.0000     5.1016    -0.0049
  427    8.520   2426.86     6.1093     0.0355     0.0282     0.0852     6.1190     0.5951   136.3200     5.9827    -0.0104
  428    8.540   2428.07     6.3233     0.0430    -0.0084     0.0854     6.3260     0.6904   136.6400     6.1893    -0.0127
  429    8.560   2429.15     6.5944     0.0501    -0.0577     0.0856     6.5777     0.7631   136.9600     6.4408    -0.0194
  430    8.580   2430.19     6.7073     0.0581    -0.0743     0.0858     6.6716     0.8676   137.2800     6.5343    -0.0262
  431    8.600   2431.22     6.7821     0.0644     0.0030     0.0860     6.7722     0.9522   137.6000     6.6346    -0.0165
  432    8.620   2432.27     6.8674     0.0682     0.0508     0.0862     6.8852     0.9954   137.9200     6.7473    -0.0065
  433    8.640   2433.32     6.8576     0.0652     0.0762     0.0864     6.8872     0.9484   138.2400     6.7489    -0.0024
  434    8.660   2434.53     6.9114     0.0551     0.0758     0.0866     6.9424     0.8031   138.5600     6.8039    -0.0019
  435    8.680   2435.54     6.8948     0.0473     0.0656     0.0868     6.9235     0.6932   138.8800     6.7846    -0.0027
  436    8.700   2436.57     6.7835     0.0395     0.0763     0.0870     6.8146     0.5832   139.2000     6.6754    -0.0019
  437    8.720   2437.60     6.4911     0.0326     0.0465     0.0872     6.5205     0.4977   139.5200     6.3810    -0.0027
  438    8.740   2438.65     6.3907     0.0292    -0.0243     0.0874     6.3869     0.4567   139.8400     6.2470    -0.0154
  439    8.760   2439.73     6.3046     0.0274    -0.0318     0.0876     6.2901     0.4328   140.1600     6.1500    -0.0198
  440    8.780   2441.96     6.4073     0.0245    -0.0206     0.0878     6.3970     0.3890   140.4800     6.2565    -0.0180
  441    8.800   2444.33     6.5414     0.0259    -0.0094     0.0880     6.5358     0.4115   140.8000     6.3950    -0.0159
  442    8.820   2446.50     6.7011     0.0267    -0.0034     0.0882     6.6996     0.4086   141.1200     6.5584    -0.0140
  443    8.840   2447.57     7.0924     0.0264    -0.0122     0.0884     7.0872     0.3804   141.4400     6.9458    -0.0145
  444    8.860   2448.60     7.5841     0.0245    -0.0076     0.0886     7.5747     0.3314   141.7600     7.4329    -0.0150
  445    8.880   2449.65     8.0636     0.0231     0.0005     0.0888     8.0634     0.2908   142.0800     7.9214    -0.0112
  446    8.900   2450.72     8.3139     0.0257    -0.0671     0.0890     8.3015     0.3107   142.4000     8.1591    -0.0145
  447    8.920   2451.78     8.3194     0.0315    -0.1313     0.0892     8.2679     0.3784   142.7200     8.1252    -0.0261
  448    8.940   2452.81     8.1415     0.0381    -0.1396     0.0894     8.0812     0.4628   143.0400     7.9381    -0.0294
  449    8.960   2453.84     7.8716     0.0405    -0.1123     0.0896     7.8194     0.5066   143.3600     7.6761    -0.0279
  450    8.980   2454.90     7.6438     0.0407    -0.0884     0.0898     7.6041     0.5285   143.6800     7.4604    -0.0247
  451    9.000   2455.94     7.6897     0.0408    -0.0805     0.0900     7.6548     0.5342   144.0000     7.5108    -0.0230
  452    9.020   2456.99     8.1814     0.0367    -0.0487     0.0902     8.1564     0.4589   144.3200     8.0121    -0.0187
  453    9.040   2458.03     8.9453     0.0321    -0.0024     0.0904     8.9369     0.3668   144.6400     8.7922    -0.0126
  454    9.060   2459.05     9.5335     0.0281    -0.0054     0.0906     9.5306     0.2970   144.9600     9.3857    -0.0104
  455    9.080   2460.14     9.8679     0.0277    -0.0192     0.0908     9.8641     0.2824   145.2800     9.7188    -0.0103
  456    9.100   2461.23     9.8802     0.0289     0.0019     0.0910     9.8764     0.2909   145.6000     9.7308    -0.0103
  457    9.120   2462.26     9.7645     0.0335     0.0148     0.0912     9.7686     0.3427   145.9200     9.6227    -0.0085
  458    9.140   2463.32     9.7669     0.0393     0.0452     0.0914     9.7777     0.4029   146.2400     9.6315    -0.0068
  459    9.160   2464.37    10.0881     0.0445     0.0487     0.0916    10.1095     0.4449   146.5600     9.9629    -0.0041
  460    9.180   2465.46    10.4785     0.0454     0.0462     0.0918    10.4977     0.4393   146.8800    10.3508    -0.0045
  461    9.200   2466.52    10.7392     0.0440     0.0517     0.0920    10.7593     0.4124   147.2000    10.6121    -0.0042
  462    9.220   2467.57    10.7116     0.0401     0.0719     0.0922    10.7396     0.3724   147.5200    10.5921    -0.0024
  463    9.240   2468.58    10.3568     0.0365     0.0553     0.0924    10.3830     0.3468   147.8400    10.2351    -0.0030
  464    9.260   2469.64     9.6993     0.0324     0.0505     0.0926     9.7224     0.3245   148.1600     9.5742    -0.0039
  465    9.280   2470.73     8.9411     0.0290     0.0507     0.0928     8.9591     0.3151   148.4800     8.8106    -0.0057
  466    9.300   2471.74     8.1858     0.0297     0.0632     0.0930     8.2109     0.3504   148.8000     8.0621    -0.0041
  467    9.320   2472.79     7.4973     0.0289     0.0684     0.0932     7.5255     0.3740   149.1200     7.3764    -0.0035
  468    9.340   2473.82     7.0391     0.0249     0.0757     0.0934     7.0687     0.3496   149.4400     6.9193    -0.0033
  469    9.360   2474.83     6.7484     0.0243     0.0706     0.0936     6.7810     0.3581   149.7600     6.6313    -0.0024
  470    9.380   2475.92     6.8068     0.0215     0.0523     0.0938     6.8326     0.3176   150.0800     6.6825    -0.0048
  471    9.400   2476.96     7.3541     0.0219     0.0454     0.0940     7.3730     0.2936   150.4000     7.2226    -0.0068
  472    9.420   2478.05     8.2686     0.0226     0.0308     0.0942     8.2805     0.2729   150.7200     8.1298    -0.0082
  473    9.440   2479.12     9.7786     0.0237    -0.0178     0.0944     9.7759     0.2550   151.0400     9.6249    -0.0105
  474    9.460   2480.17    11.6657     0.0270    -0.0438     0.0946    11.6497     0.2423   151.3600    11.4984    -0.0116
  475    9.480   2481.28    14.6237     0.0313    -0.0473     0.0948    14.5991     0.2419   151.6800    14.4474    -0.0106
  476    9.500   2483.15    16.8042     0.0355    -0.0429     0.0950    16.7863     0.2416   152.0000    16.6343    -0.0084
  477    9.520   2485.75    18.9235     0.0445    -0.0436     0.0952    18.9053     0.2828   152.3200    18.7530    -0.0076
  478    9.540   2488.34    21.0430     0.0444    -0.0442     0.0954    21.0245     0.2823   152.6400    20.8719    -0.0068
  479    9.560   2490.98    20.6757     0.0472    -0.0066     0.0956    20.6946     0.2376   152.9600    20.5416    -0.0024
  480    9.580   2492.79    24.0559     0.0506     0.0093     0.0958    24.0575     0.2208   153.2800    23.9042    -0.0039
  481    9.600   2494.84    25.6609     0.0572     0.0252     0.0960    25.6692     0.2496   153.6000    25.5156    -0.0031
  482    9.620   2496.91    27.2549     0.0660     0.0239     0.0962    27.2693     0.2639   153.9200    27.1154    -0.0023
  483    9.640   2499.51    25.9573     0.0751     0.0580     0.0964    25.9905     0.3007   154.2400    25.8363    -0.0006
  484    9.660   2500.64    27.8657     0.0780     0.0802     0.0966    27.8952     0.2806   154.5600    27.7406    -0.0010
  485    9.680   2501.68    28.3666     0.0776     0.0920     0.0968    28.4051     0.2746   154.8800    28.2502    -0.0002
  486    9.700   2502.68    28.8380     0.0783     0.0941     0.0970    28.8750     0.2719   155.2000    28.7198    -0.0003
  487    9.720   2503.71    28.9043     0.0808     0.0957     0.0972    28.9451     0.2794   155.5200    28.7895     0.0000
  488    9.740   2504.66    28.5759     0.0849     0.0863     0.0974    28.6146     0.2965   155.8400    28.4587    -0.0002
  489    9.760   2505.65    27.9157     0.0861     0.0665     0.0976    27.9455     0.3081   156.1600    27.7893    -0.0010
  490    9.780   2506.65    26.9810     0.0809     0.0768     0.0978    27.0113     0.2974   156.4800    26.8548    -0.0010
  491    9.800   2507.70    26.1196     0.0783     0.0804     0.0980    26.1535     0.2991   156.8000    25.9967    -0.0007
  492    9.820   2508.72    25.7332     0.0796     0.0799     0.0982    25.7665     0.3092   157.1200    25.6094    -0.0007
  493    9.840   2509.69    25.5602     0.0783     0.0909     0.0984    25.5972     0.3057   157.4400    25.4397    -0.0004
  494    9.860   2510.72    26.0217     0.0716     0.0945     0.0986    26.0626     0.2761   157.7600    25.9049     0.0000
  495    9.880   2511.73    26.6347     0.0672     0.0916     0.0988    26.6754     0.2531   158.0800    26.5174    -0.0001
  496    9.900   2512.69    27.2333     0.0649     0.0853     0.0990    27.2683     0.2388   158.4000    27.1099    -0.0006
  497    9.920   2513.70    27.8397     0.0640     0.0555     0.0992    27.8686     0.2305   158.7200    27.7099    -0.0011
  498    9.940   2514.77    28.1191     0.0676     0.0323     0.0994    28.1342     0.2403   159.0400    27.9752    -0.0023
  499    9.960   2515.74    27.4857     0.0704     0.0370     0.0996    27.4999     0.2550   159.3600    27.3405    -0.0024
  500    9.980   2516.73    26.4324     0.0727     0.0529     0.0998    26.4497     0.2734   159.6800    26.2900    -0.0022
  501   10.000   2517.71    25.3533     0.0772     0.0741     0.1000    25.3800     0.3028   160.0000    25.2200    -0.0015
  502   10.020   2518.70    24.3274     0.0791     0.0756     0.1002    24.3585     0.3235   160.3200    24.1981    -0.0011
  503   10.040   2519.67    23.5396     0.0739     0.0872     0.1004    23.5750     0.3133   160.6400    23.4144    -0.0007
  504   10.060   2520.68    22.8126     0.0701     0.0924     0.1006    22.8539     0.3069   160.9600    22.6929    -0.0001
  505   10.080   2521.70    22.0169     0.0657     0.0903     0.1008    22.0555     0.2977   161.2800    21.8942    -0.0004
  506   10.100   2522.68    21.4246     0.0639     0.0910     0.1010    21.4607     0.2981   161.6000    21.2991    -0.0007
  507   10.120   2523.67    20.8790     0.0645     0.0931     0.1012    20.9193     0.3086   161.9200    20.7574    -0.0003
  508   10.140   2524.68    20.6972     0.0617     0.0888     0.1014    20.7348     0.2980   162.2400    20.5726    -0.0006
  509   10.160   2525.71    21.0989     0.0517     0.0923     0.1016    21.1377     0.2453   162.5600    20.9752    -0.0004
  510   10.180   2526.73    21.7998     0.0476     0.0953     0.1018    21.8409     0.2191   162.8800    21.6781    -0.0002
  511   10.200   2527.72    22.2379     0.0493     0.0871     0.1020    22.2780     0.2226   163.2000    22.1148    -0.0003
  512   10.220   2528.74    22.4265     0.0485     0.0315     0.1022    22.4488     0.2170   163.5200    22.2853    -0.0022
  513   10.240   2529.74    22.1930     0.0442    -0.0426     0.1024    22.1809     0.1973   163.8400    22.0171    -0.0060
  514   10.260   2530.78    21.2141     0.0451    -0.0531     0.1026    21.1938     0.2088   164.1600    21.0296    -0.0072
  515   10.280   2531.75    19.8101     0.0507    -0.0525     0.1028    19.7849     0.2515   164.4800    19.6204    -0.0083
  516   10.300   2532.76    18.6128     0.0598    -0.0151     0.1030    18.6022     0.3182   164.8000    18.4374    -0.0070
  517   10.320   2533.81    17.5719     0.0640     0.0102     0.1032    17.5746     0.3621   165.1200    17.4095    -0.0056
  518   10.340   2534.90    16.7498     0.0618     0.0371     0.1034    16.7655     0.3686   165.4400    16.6001    -0.0040
  519   10.360   2535.97    16.1198     0.0592     0.0420     0.1036    16.1384     0.3618   165.7600    15.9727    -0.0037
  520   10.380   2537.06    15.8351     0.0566     0.0616     0.1038    15.8577     0.3550   166.0800    15.6917    -0.0032
  521   10.400   2538.20    16.1538     0.0522     0.0715     0.1040    16.1815     0.3280   166.4000    16.0151    -0.0024
  522   10.420   2539.30    17.0373     0.0534     0.0965     0.1042    17.0747     0.3155   166.7200    16.9080    -0.0009
  523   10.440   2540.41    17.7087     0.0561     0.0772     0.1044    17.7450     0.3172   167.0400    17.5780    -0.0010
  524   10.460   2555.22    17.8005     0.0597     0.0558     0.1046    17.8270     0.3339   167.3600    17.6596    -0.0024
  525   10.480   2578.61    17.6840     0.0579     0.0347     0.1048    17.7017     0.3240   167.6800    17.5340    -0.0036
  526   10.500   2593.73    17.5868     0.0545     0.0406     0.1050    17.6030     0.3096   168.0000    17.4350    -0.0038
  527   10.520   2594.84    17.5443     0.0549     0.0337     0.1052    17.5582     0.3132   168.3200    17.3899    -0.0041
  528   10.540   2595.93    17.7873     0.0580     0.0535     0.1054    17.8039     0.3271   168.6400    17.6353    -0.0037
  529   10.560   2597.03    18.3219     0.0596     0.0619     0.1056    18.3497     0.3274   168.9600    18.1807    -0.0022
  530   10.580   2598.06    18.9613     0.0587     0.0840     0.1058    18.9913     0.3111   169.2800    18.8221    -0.0018
  531   10.600   2599.17    19.4216     0.0585     0.0880     0.1060    19.4563     0.3025   169.6000    19.2867    -0.0012
  532   10.620   2600.28    19.7586     0.0595     0.1037     0.1062    19.8012     0.3029   169.9200    19.6313    -0.0002
  533   10.640   2601.36    20.2423     0.0630     0.1100     0.1064    20.2883     0.3154   170.2400    20.1181     0.0002
  534   10.660   2602.42    21.3961     0.0688     0.1078     0.1066    21.4405     0.3311   170.5600    21.2700     0.0000
  535   10.680   2603.51    22.7650     0.0803     0.1054     0.1068    22.8103     0.3532   170.8800    22.6394     0.0000
  536   10.700   2604.55    23.4214     0.0888     0.1082     0.1070    23.4665     0.3796   171.2000    23.2953     0.0000
  537   10.720   2605.56    23.6222     0.0997     0.1114     0.1072    23.6682     0.4222   171.5200    23.4967     0.0001
  538   10.740   2606.53    23.6758     0.1045     0.1074     0.1074    23.7212     0.4414   171.8400    23.5494     0.0000
  539   10.760   2607.53    23.6290     0.1088     0.1007     0.1076    23.6747     0.4600   172.1600    23.5025     0.0001
  540   10.780   2608.55    23.4432     0.1103     0.1127     0.1078    23.4884     0.4699   172.4800    23.3160     0.0000
  541   10.800   2609.56    23.3943     0.1107     0.1052     0.1080    23.4387     0.4730   172.8000    23.2659    -0.0001
  542   10.820   2610.54    23.3758     0.1094     0.1050     0.1082    23.4182     0.4677   173.1200    23.2451    -0.0003
  543   10.840   2611.54    23.1843     0.1127     0.0960     0.1084    23.2249     0.4851   173.4400    23.0515    -0.0005
  544   10.860   2612.56    22.7023     0.1160     0.0982     0.1086    22.7440     0.5093   173.7600    22.5703    -0.0004
  545   10.880   2613.53    22.0835     0.1147     0.0923     0.1088    22.1226     0.5177   174.0800    21.9485    -0.0007
  546   10.900   2614.48    21.7313     0.1122     0.1021     0.1090    21.7740     0.5159   174.4000    21.5996    -0.0003
  547   10.920   2615.47    21.4893     0.1140     0.1090     0.1092    21.5291     0.5305   174.7200    21.3544    -0.0007
  548   10.940   2616.51    21.4757     0.1195     0.1069     0.1094    21.5213     0.5562   175.0400    21.3463     0.0000
  549   10.960   2617.54    21.3718     0.1226     0.1073     0.1096    21.4163     0.5733   175.3600    21.2410    -0.0002
  550   10.980   2618.53    21.3921     0.1224     0.0950     0.1098    21.4325     0.5722   175.6800    21.2568    -0.0006
  551   11.000   2619.58    21.4931     0.1223     0.0899     0.1100    21.5314     0.5695   176.0000    21.3555    -0.0009
  552   11.020   2620.54    21.6903     0.1247     0.1036     0.1102    21.7308     0.5752   176.3200    21.5545    -0.0006
  553   11.040   2621.48    21.8471     0.1261     0.1014     0.1104    21.8931     0.5783   176.6400    21.7164     0.0000
  554   11.060   2622.51    22.0465     0.1256     0.0800     0.1106    22.0822     0.5702   176.9600    21.9052    -0.0012
  555   11.080   2623.50    22.3286     0.1202     0.0857     0.1108    22.3621     0.5413   177.2800    22.1848    -0.0014
  556   11.100   2624.54    22.6288     0.1147     0.0904     0.1110    22.6650     0.5074   177.6000    22.4874    -0.0011
  557   11.120   2625.57    23.0359     0.1187     0.0933     0.1112    23.0745     0.5164   177.9200    22.8965    -0.0008
  558   11.140   2626.57    23.5859     0.1229     0.1028     0.1114    23.6278     0.5226   178.2400    23.4496    -0.0005
  559   11.160   2627.58    24.2873     0.1282     0.1068     0.1116    24.3301     0.5303   178.5600    24.1516    -0.0004
  560   11.180   2628.55    25.1209     0.1279     0.0913     0.1118    25.1615     0.5135   178.8800    24.9826    -0.0006
  561   11.200   2629.57    25.8455     0.1259     0.0882     0.1120    25.8855     0.4935   179.2000    25.7063    -0.0006
  562   11.220   2630.61    26.6103     0.1246     0.0568     0.1122    26.6378     0.4757   179.5200    26.4583    -0.0018
  563   11.240   2631.60    27.8834     0.1195     0.0579     0.1124    27.9073     0.4351   179.8400    27.7274    -0.0020
  564   11.260   2632.64    29.2427     0.1154     0.0711     0.1126    29.2687     0.4002   180.1600    29.0885    -0.0017
  565   11.280   2635.63    28.0406     0.1165     0.0711     0.1128    28.0783     0.4229   180.4800    27.8978    -0.0008
  566   11.300   2636.71    28.9568     0.1122     0.0711     0.1130    28.9859     0.3864   180.8000    28.8051    -0.0015
  567   11.320   2637.73    28.1154     0.0987     0.0903     0.1132    28.1508     0.3474   181.1200    27.9697    -0.0010
  568   11.340   2638.71    27.3590     0.0834     0.1020     0.1134    27.3992     0.3013   181.4400    27.2178    -0.0006
  569   11.360   2639.77    27.2120     0.0860     0.1067     0.1136    27.2564     0.3170   181.7600    27.0747    -0.0003
  570   11.380   2640.70    27.6210     0.0746     0.1017     0.1138    27.6654     0.2722   182.0800    27.4834    -0.0003
  571   11.400   2641.71    28.6451     0.0735     0.1085     0.1140    28.6877     0.2599   182.4000    28.5053    -0.0004
  572   11.420   2642.74    30.5209     0.0733     0.1035     0.1142    30.5665     0.2447   182.7200    30.3838    -0.0002
  573   11.440   2643.83    32.4940     0.0723     0.1019     0.1144    32.5332     0.2272   183.0400    32.3502    -0.0006
  574   11.460   2647.39    30.6271     0.0783     0.1166     0.1146    30.6775     0.2574   183.3600    30.4941     0.0002
  575   11.480   2648.49    33.6247     0.0864     0.1040     0.1148    33.6706     0.2569   183.6800    33.4869    -0.0002
  576   11.500   2649.51    33.3849     0.0938     0.1173     0.1150    33.4341     0.2806   184.0000    33.2501     0.0001
  577   11.520   2650.55    32.7190     0.1000     0.1149     0.1152    32.7682     0.3052   184.3200    32.5838     0.0001
  578   11.540   2651.55    31.8535     0.1104     0.1076     0.1154    31.9017     0.3458   184.6400    31.7171     0.0000
  579   11.560   2652.58    30.8765     0.1180     0.1147     0.1156    30.9238     0.3812   184.9600    30.7388    -0.0001
  580   11.580   2653.58    30.1710     0.1252     0.1149     0.1158    30.2190     0.4141   185.2800    30.0337    -0.0001
  581   11.600   2654.56    29.4738     0.1308     0.1238     0.1160    29.5240     0.4409   185.6000    29.3384     0.0001
  582   11.620   2655.56    29.1241     0.1364     0.1107     0.1162    29.1732     0.4678   185.9200    28.9873     0.0000
  583   11.640   2656.53    29.1020     0.1371     0.1226     0.1164    29.1521     0.4713   186.2400    28.9659     0.0001
  584   11.660   2657.57    29.2873     0.1432     0.1262     0.1166    29.3396     0.4900   186.5600    29.1531     0.0003
  585   11.680   2659.17    29.6744     0.1539     0.1251     0.1168    29.7280     0.5198   186.8800    29.5412     0.0004
  586   11.700   2662.15    29.8887     0.1626     0.1178     0.1170    29.9392     0.5489   187.2000    29.7520     0.0001
  587   11.720   2665.14    30.1030     0.1673     0.1104     0.1172    30.1504     0.5650   187.5200    29.9629    -0.0001
  588   11.740   2667.00    30.1672     0.1712     0.1178     0.1174    30.2161     0.5675   187.8400    30.0283     0.0000
  589   11.760   2668.03    29.8115     0.1765     0.1183     0.1176    29.8623     0.5907   188.1600    29.6741     0.0001
  590   11.780   2669.05    29.2464     0.1772     0.1070     0.1178    29.2940     0.6032   188.4800    29.1056    -0.0002
  591   11.800   2670.03    28.5275     0.1716     0.1303     0.1180    28.5776     0.5954   188.8000    28.3888     0.0000
  592   11.820   2671.01    27.4757     0.1686     0.1319     0.1182    27.5245     0.6007   189.1200    27.3354    -0.0001
  593   11.840   2672.06    26.1662     0.1670     0.1130     0.1184    26.2142     0.6295   189.4400    26.0248    -0.0002
  594   11.860   2673.08    25.4886     0.1694     0.1248     0.1186    25.5395     0.6578   189.7600    25.3498     0.0001
  595   11.880   2674.09    25.4047     0.1659     0.1234     0.1188    25.4575     0.6537   190.0800    25.2674     0.0003
  596   11.900   2675.09    26.2195     0.1608     0.1251     0.1190    26.2712     0.6154   190.4000    26.0808     0.0002
  597   11.920   2676.10    27.3036     0.1559     0.1287     0.1192    27.3559     0.5723   190.7200    27.1652     0.0002
  598   11.940   2677.13    28.0351     0.1519     0.1269     0.1194    28.0909     0.5425   191.0400    27.8999     0.0005
  599   11.960   2678.18    28.6355     0.1494     0.0852     0.1196    28.6791     0.5223   191.3600    28.4878    -0.0005
  600   11.980   2679.14    29.3312     0.1434     0.0531     0.1198    29.3571     0.4923   191.6800    29.1654    -0.0020
  601   12.000   2680.15    30.1286     0.1336     0.0440     0.1200    30.1447     0.4463   192.0000    29.9527    -0.0027
  602   12.020   2681.18    30.9167     0.1343     0.0587     0.1202    30.9384     0.4381   192.3200    30.7461    -0.0022
  603   12.040   2682.22    31.6259     0.1426     0.0898     0.1204    31.6606     0.4533   192.6400    31.4680    -0.0012
  604   12.060   2683.21    32.2919     0.1572     0.0918     0.1206    32.3281     0.4872   192.9600    32.1351    -0.0011
  605   12.080   2684.26    32.7689     0.1666     0.1025     0.1208    32.8132     0.5091   193.2800    32.6199    -0.0005
  606   12.100   2685.29    32.8511     0.1691     0.0966     0.1210    32.8911     0.5145   193.6000    32.6975    -0.0008
  607   12.120   2686.27    32.3703     0.1713     0.1203     0.1212    32.4196     0.5284   193.9200    32.2257    -0.0001
  608   12.140   2687.25    31.2525     0.1722     0.1085     0.1214    31.2947     0.5494   194.2400    31.1004    -0.0007
  609   12.160   2688.23    30.0148     0.1734     0.1223     0.1216    30.0645     0.5741   194.5600    29.8699    -0.0001
  610   12.180   2689.26    28.8573     0.1762     0.1348     0.1218    28.9135     0.6087   194.8800    28.7186     0.0004
  611   12.200   2690.25    28.0841     0.1748     0.1416     0.1220    28.1413     0.6150   195.2000    27.9461     0.0005
  612   12.220   2691.29    27.7167     0.1723     0.1424     0.1222    27.7782     0.6206   195.5200    27.5827     0.0009
  613   12.240   2692.27    27.7422     0.1723     0.1288     0.1224    27.7956     0.6227   195.8400    27.5997     0.0002
  614   12.260   2693.35    27.9232     0.1732     0.1166     0.1226    27.9727     0.6204   196.1600    27.7765    -0.0002
  615   12.280   2694.32    27.8907     0.1738     0.1182     0.1228    27.9416     0.6217   196.4800    27.7451    -0.0001
  616   12.300   2695.33    27.8496     0.1749     0.0837     0.1230    27.8882     0.6281   196.8000    27.6914    -0.0011
  617   12.320   2696.33    27.8308     0.1749     0.0816     0.1232    27.8649     0.6284   197.1200    27.6678    -0.0015
  618   12.340   2697.39    27.8017     0.1701     0.0938     0.1234    27.8423     0.6118   197.4400    27.6449    -0.0010
  619   12.360   2698.38    27.8441     0.1695     0.1095     0.1236    27.8876     0.6087   197.7600    27.6898    -0.0007
  620   12.380   2699.43    27.8980     0.1706     0.1164     0.1238    27.9452     0.6131   198.0800    27.7471    -0.0004
  621   12.400   2700.46    27.7416     0.1709     0.1146     0.1240    27.7932     0.6159   198.4000    27.5948     0.0000
  622   12.420   2701.43    27.6801     0.1681     0.1071     0.1242    27.7269     0.6060   198.7200    27.5282    -0.0005
  623   12.440   2702.45    27.9631     0.1648     0.1125     0.1244    28.0114     0.5920   199.0400    27.8124    -0.0003
  624   12.460   2703.47    28.8010     0.1592     0.1190     0.1246    28.8483     0.5625   199.3600    28.6490    -0.0004
  625   12.480   2704.54    29.8202     0.1587     0.1411     0.1248    29.8766     0.5325   199.6800    29.6769     0.0003
  626   12.500   2709.85    30.1438     0.1610     0.1372     0.1250    30.2031     0.5355   200.0000    30.0031     0.0005
  627   12.520   2731.56    30.0993     0.1625     0.1259     0.1252    30.1538     0.5390   200.3200    29.9535     0.0002
  628   12.540   2753.26    30.0549     0.1560     0.1143     0.1254    30.1046     0.5181   200.6400    29.9040    -0.0002
  629   12.560   2760.08    30.0148     0.1488     0.1101     0.1256    30.0610     0.4954   200.9600    29.8600    -0.0005
  630   12.580   2761.08    29.6489     0.1518     0.1023     0.1258    29.6925     0.5106   201.2800    29.4913    -0.0007
  631   12.600   2762.13    29.0798     0.1566     0.1033     0.1260    29.1219     0.5364   201.6000    28.9203    -0.0009
  632   12.620   2763.14    28.4728     0.1592     0.1087     0.1262    28.5183     0.5576   201.9200    28.3164    -0.0006
  633   12.640   2764.11    27.5642     0.1623     0.1216     0.1264    27.6133     0.5861   202.2400    27.4111    -0.0003
  634   12.660   2765.12    26.3948     0.1624     0.1276     0.1266    26.4485     0.6105   202.5600    26.2460     0.0000
  635   12.680   2766.07    25.2596     0.1637     0.1223     0.1268    25.3109     0.6464   202.8800    25.1081    -0.0002
  636   12.700   2767.08    24.1936     0.1615     0.1299     0.1270    24.2497     0.6630   203.2000    24.0465     0.0003
  637   12.720   2768.09    23.2657     0.1638     0.1305     0.1272    23.3217     0.7001   203.5200    23.1181     0.0003
  638   12.740   2769.07    22.5429     0.1698     0.1310     0.1274    22.5996     0.7501   203.8400    22.3958     0.0003
  639   12.760   2770.09    22.0811     0.1749     0.1258     0.1276    22.1318     0.7906   204.1600    21.9277    -0.0003
  640   12.780   2771.10    21.8788     0.1790     0.1332     0.1278    21.9341     0.8178   204.4800    21.7296     0.0002
  641   12.800   2772.07    21.6943     0.1795     0.1340     0.1280    21.7523     0.8262   204.8000    21.5475     0.0005
  642   12.820   2773.05    21.3351     0.1784     0.1298     0.1282    21.3915     0.8338   205.1200    21.1864     0.0003
  643   12.840   2774.03    20.9850     0.1751     0.1220     0.1284    21.0396     0.8316   205.4400    20.8341     0.0001
  644   12.860   2775.02    20.5360     0.1700     0.1231     0.1286    20.5867     0.8246   205.7600    20.3810    -0.0004
  645   12.880   2776.01    20.1750     0.1657     0.1114     0.1288    20.2248     0.8190   206.0800    20.0187    -0.0005
  646   12.900   2776.98    19.8177     0.1614     0.1250     0.1290    19.8684     0.8120   206.4000    19.6620    -0.0004
  647   12.920   2778.00    19.4940     0.1611     0.1175     0.1292    19.5451     0.8224   206.7200    19.3384    -0.0004
  648   12.940   2778.99    19.0478     0.1593     0.1252     0.1294    19.0989     0.8306   207.0400    18.8918    -0.0004
  649   12.960   2779.95    18.4870     0.1606     0.1246     0.1296    18.5375     0.8648   207.3600    18.3302    -0.0005
  650   12.980   2780.92    17.8311     0.1606     0.1329     0.1298    17.8859     0.8968   207.6800    17.6783     0.0000
  651   13.000   2781.91    17.1125     0.1574     0.1284     0.1300    17.1676     0.9002   208.0000    16.9596     0.0001
  652   13.020   2782.90    16.3327     0.1569     0.1267     0.1302    16.3850     0.9464   208.3200    16.1767    -0.0004
  653   13.040   2783.82    15.5434     0.1603     0.1188     0.1304    15.5943     1.0230   208.6400    15.3856    -0.0006
  654   13.060   2784.88    14.6488     0.1602     0.1200     0.1306    14.7003     1.0883   208.9600    14.4913    -0.0006
  655   13.080   2785.97    13.9755     0.1535     0.1156     0.1308    14.0250     1.0923   209.2800    13.8157    -0.0009
  656   13.100   2787.03    13.6210     0.1490     0.1229     0.1310    13.6718     1.0738   209.6000    13.4622    -0.0007
  657   13.120   2788.12    13.8434     0.1396     0.1361     0.1312    13.8980     0.9908   209.9200    13.6881    -0.0001
  658   13.140   2789.27    14.6791     0.1314     0.1386     0.1314    14.7377     0.9185   210.2400    14.5274     0.0006
  659   13.160   2790.32    15.9376     0.1362     0.1168     0.1316    15.9915     0.8723   210.5600    15.7810    -0.0002
  660   13.180   2791.44    17.1141     0.1378     0.0480     0.1318    17.1462     0.8176   210.8800    16.9353    -0.0033
  661   13.200   2792.71    17.8980     0.1397     0.0052     0.1320    17.8996     0.7838   211.2000    17.6885    -0.0072
  662   13.220   2795.83    18.0759     0.1408     0.0085     0.1322    18.0790     0.7874   211.5200    17.8675    -0.0070
  663   13.240   2798.96    18.2539     0.1406     0.0249     0.1324    18.2584     0.7864   211.8400    18.0465    -0.0067
  664   13.260   2803.10    17.4080     0.1377     0.0856     0.1326    17.4529     0.8457   212.1600    17.2407    -0.0014
  665   13.280   2804.25    18.8264     0.1291     0.0986     0.1328    18.8661     0.6910   212.4800    18.6536    -0.0021
  666   13.300   2805.33    19.1426     0.1198     0.1030     0.1330    19.1837     0.6264   212.8000    18.9709    -0.0018
  667   13.320   2806.37    19.5236     0.1134     0.0968     0.1332    19.5617     0.5868   213.1200    19.3486    -0.0022
  668   13.340   2807.40    20.0819     0.1123     0.1041     0.1334    20.1244     0.5600   213.4400    19.9109    -0.0016
  669   13.360   2808.43    20.6428     0.1147     0.1065     0.1336    20.6872     0.5577   213.7600    20.4735    -0.0014
  670   13.380   2809.45    21.0051     0.1221     0.1272     0.1338    21.0540     0.5819   214.0800    20.8400    -0.0008
  671   13.400   2810.44    21.1343     0.1308     0.1362     0.1340    21.1905     0.6191   214.4000    20.9761     0.0000
  672   13.420   2811.42    21.2688     0.1404     0.1305     0.1342    21.3221     0.6611   214.7200    21.1073    -0.0004
  673   13.440   2812.46    21.2118     0.1472     0.1353     0.1344    21.2679     0.6932   215.0400    21.0529     0.0000
  674   13.460   2813.40    21.1261     0.1516     0.1415     0.1346    21.1849     0.7164   215.3600    20.9696     0.0003
  675   13.480   2814.43    20.8353     0.1589     0.1284     0.1348    20.8925     0.7607   215.6800    20.6768     0.0001
  676   13.500   2815.41    20.5536     0.1610     0.1190     0.1350    20.6058     0.7815   216.0000    20.3898    -0.0005
  677   13.520   2816.39    20.1669     0.1577     0.1308     0.1352    20.2215     0.7798   216.3200    20.0052    -0.0003
  678   13.540   2817.35    19.8025     0.1573     0.1325     0.1354    19.8547     0.7924   216.6400    19.6380    -0.0006
  679   13.560   2818.33    19.3842     0.1553     0.1369     0.1356    19.4455     0.7997   216.9600    19.2285     0.0005
  680   13.580   2819.31    18.9620     0.1541     0.1314     0.1358    19.0185     0.8103   217.2800    18.8012    -0.0001
  681   13.600   2820.34    18.8742     0.1522     0.1318     0.1360    18.9305     0.8063   217.6000    18.7129    -0.0001
  682   13.620   2821.34    19.0009     0.1495     0.1336     0.1362    19.0543     0.7876   217.9200    18.8364    -0.0005
  683   13.640   2822.34    18.9843     0.1504     0.1418     0.1364    19.0419     0.7922   218.2400    18.8237     0.0000
  684   13.660   2823.33    18.8252     0.1532     0.1394     0.1366    18.8842     0.8131   218.5600    18.6656     0.0002
  685   13.680   2824.31    18.7939     0.1578     0.1399     0.1368    18.8518     0.8393   218.8800    18.6330     0.0001
  686   13.700   2825.29    18.8647     0.1603     0.1406     0.1370    18.9240     0.8499   219.2000    18.7048     0.0002
  687   13.720   2826.31    18.8955     0.1624     0.1421     0.1372    18.9565     0.8596   219.5200    18.7370     0.0004
  688   13.740   2827.30    18.8572     0.1610     0.1378     0.1374    18.9163     0.8537   219.8400    18.6965     0.0002
  689   13.760   2828.27    18.5775     0.1597     0.1388     0.1376    18.6343     0.8592   220.1600    18.4141    -0.0001
  690   13.780   2829.26    18.0735     0.1572     0.1400     0.1378    18.1318     0.8690   220.4800    17.9113     0.0000
  691   13.800   2830.31    17.5739     0.1555     0.1372     0.1380    17.6306     0.8826   220.8000    17.4098    -0.0002
  692   13.820   2831.34    17.4015     0.1533     0.1329     0.1382    17.4586     0.8807   221.1200    17.2375    -0.0001
  693   13.840   2832.32    17.5218     0.1497     0.1441     0.1384    17.5802     0.8544   221.4400    17.3588     0.0000
  694   13.860   2833.33    17.7949     0.1515     0.1442     0.1386    17.8543     0.8525   221.7600    17.6325     0.0002
  695   13.880   2834.37    18.1253     0.1564     0.1401     0.1388    18.1838     0.8645   222.0800    17.9618     0.0000
  696   13.900   2835.39    18.5580     0.1578     0.1372     0.1390    18.6150     0.8539   222.4000    18.3926    -0.0002
  697   13.920   2836.38    18.8755     0.1570     0.1396     0.1392    18.9357     0.8329   222.7200    18.7130     0.0002
  698   13.940   2837.35    19.0158     0.1579     0.1398     0.1394    19.0768     0.8303   223.0400    18.8537     0.0003
  699   13.960   2838.36    18.6612     0.1558     0.1393     0.1396    18.7191     0.8238   223.3600    18.4958    -0.0001
  700   13.980   2839.33    17.9476     0.1574     0.1260     0.1398    18.0019     0.8602   223.6800    17.7783    -0.0006
  701   14.000   2840.35    16.9377     0.1545     0.1279     0.1400    16.9908     0.8892   224.0000    16.7668    -0.0008
  702   14.020   2841.40    15.3427     0.1546     0.1205     0.1402    15.3953     0.9653   224.3200    15.1710    -0.0010
  703   14.040   2842.41    13.4415     0.1537     0.1190     0.1404    13.4917     1.0724   224.6400    13.2671    -0.0016
  704   14.060   2843.47    11.0469     0.1525     0.1198     0.1406    11.0989     1.2513   224.9600    10.8739    -0.0016
  705   14.080   2844.51     8.0552     0.1528     0.1124     0.1408     8.1026     1.6585   225.2800     7.8773    -0.0036
  706   14.100   2845.50     6.0405     0.1501     0.1006     0.1410     6.0839     2.2146   225.6000     5.8583    -0.0065
  707   14.120   2846.55     4.2974     0.1384     0.1135     0.1412     4.3420     2.8436   225.9200     4.1161    -0.0084
  708   14.140   2847.59     3.1298     0.1255     0.1271     0.1414     3.1797     3.6409   226.2400     2.9535    -0.0075
  709   14.160   2848.63     2.4309     0.1142     0.1576     0.1416     2.4949     4.3389   226.5600     2.2684     0.0049
  710   14.180   2849.66     1.9639     0.1001     0.1680     0.1418     2.0335     4.7186   226.8800     1.8066     0.0134
  711   14.200   2850.68     1.6552     0.0782     0.1520     0.1420     1.7200     4.3831   227.2000     1.4928     0.0080
  712   14.220   2851.77     1.4513     0.0529     0.1759     0.1422     1.5221     3.4614   227.5200     1.2946     0.0204
  713   14.240   2852.81     1.3539     0.0420     0.1977     0.1424     1.4343     3.0322   227.8400     1.2065     0.0407
  714   14.260   2853.81     1.2486     0.0340     0.2539     0.1426     1.3479     2.6308   228.1600     1.1197     0.0838
  715   14.280   2854.89     1.1647     0.0273     0.4681     0.1428     1.3264     2.2713   228.4800     1.0980     0.2205
  716   14.300   2855.88     1.1323     0.0226     0.5416     0.1430     1.3564     1.9776   228.8000     1.1276     0.3464
  717   14.320   2856.90     1.1183     0.0216     0.5696     0.1432     1.3523     1.9137   229.1200     1.1232     0.3686
  718   14.340   2857.96     1.0996     0.0230     0.6233     0.1434     1.3532     2.0755   229.4400     1.1238     0.4097
  719   14.360   2859.00     1.0782     0.0249     0.6726     0.1436     1.3524     2.2887   229.7600     1.1226     0.4536
  720   14.380   2860.05     1.0610     0.0260     0.6992     0.1438     1.3513     2.4472   230.0800     1.1213     0.4883
  721   14.400   2861.07     1.0792     0.0253     0.6920     0.1440     1.3714     2.3905   230.4000     1.1410     0.4836
  722   14.420   2862.13     1.0791     0.0242     0.6967     0.1442     1.3700     2.2937   230.7200     1.1393     0.4814
  723   14.440   2863.17     1.0384     0.0235     0.7274     0.1444     1.3389     2.2546   231.0400     1.1079     0.5158
  724   14.460   2864.18     1.0022     0.0246     0.7430     0.1446     1.3109     2.4517   231.3600     1.0795     0.5469
  725   14.480   2865.21     0.9951     0.0258     0.7679     0.1448     1.3166     2.6029   231.6800     1.0849     0.5720
  726   14.500   2876.09     1.0002     0.0261     0.7364     0.1450     1.3155     2.6075   232.0000     1.0835     0.5586
  727   14.520   2901.43     0.9999     0.0253     0.6950     0.1452     1.2978     2.5301   232.3200     1.0655     0.5286
  728   14.540   2926.77     0.9995     0.0252     0.6758     0.1454     1.2800     2.5218   232.6400     1.0474     0.4986
  729   14.560   2932.14     0.9460     0.0263     0.7421     0.1456     1.2495     2.7125   232.9600     1.0166     0.5679
  730   14.580   2933.18     0.9243     0.0256     0.7747     0.1458     1.2479     2.7508   233.2800     1.0146     0.6157
  731   14.600   2934.19     0.9135     0.0251     0.7838     0.1460     1.2418     2.7430   233.6000     1.0082     0.6305
  732   14.620   2935.23     0.9108     0.0246     0.7852     0.1462     1.2404     2.7157   233.9200     1.0065     0.6345
  733   14.640   2936.29     0.9210     0.0241     0.7852     0.1464     1.2508     2.6277   234.2400     1.0165     0.6285
  734   14.660   2937.31     0.9120     0.0250     0.7789     0.1466     1.2410     2.7442   234.5600     1.0064     0.6326
  735   14.680   2938.33     0.9166     0.0236     0.7660     0.1468     1.2394     2.6075   234.8800     1.0045     0.6190
  736   14.700   2939.37     0.9059     0.0241     0.7240     0.1470     1.2203     2.6229   235.2000     0.9851     0.6106
  737   14.720   2940.39     0.8772     0.0227     0.6713     0.1472     1.1608     2.5996   235.5200     0.9253     0.5708
  738   14.740   2941.41     0.9135     0.0224     0.6741     0.1474     1.1982     2.4783   235.8400     0.9623     0.5512
  739   14.760   2942.45     0.8594     0.0237     0.6577     0.1476     1.1362     2.6800   236.1600     0.9000     0.5681
  740   14.780   2943.48     0.9097     0.0237     0.6662     0.1478     1.1888     2.7194   236.4800     0.9523     0.5426
  741   14.800   2944.49     0.9365     0.0251     0.6839     0.1480     1.2254     2.6734   236.8000     0.9886     0.5464
  742   14.820   2945.51     0.8118     0.0262     0.5783     0.1482     1.0713     3.0606   237.1200     0.8342     0.5629
  743   14.840   2946.55     0.9060     0.0265     0.5992     0.1484     1.1499     3.0912   237.4400     0.9125     0.4738
  744   14.860   2947.58     0.9332     0.0259     0.6356     0.1486     1.1939     2.7735   237.7600     0.9561     0.4939
  745   14.880   2948.62     0.9239     0.0247     0.6329     0.1488     1.1878     2.6773   238.0800     0.9498     0.5051
  746   14.900   2949.64     0.8894     0.0233     0.6732     0.1490     1.1661     2.5764   238.4000     0.9277     0.5494
  747   14.920   2950.66     0.8999     0.0204     0.7084     0.1492     1.1918     2.2869   238.7200     0.9531     0.5727
  748   14.940   2951.69     0.8925     0.0179     0.7184     0.1494     1.1936     2.0107   239.0400     0.9546     0.5946
  749   14.960   2952.69     0.9160     0.0175     0.7230     0.1496     1.2189     1.9134   239.3600     0.9795     0.5834
  750   14.980   2953.72     0.9098     0.0187     0.7170     0.1498     1.2144     2.0558   239.6800     0.9747     0.5903
  751   15.000   2954.74     0.9061     0.0192     0.7143     0.1500     1.2101     2.0760   240.0000     0.9701     0.5914
  752   15.020   2955.74     0.8942     0.0198     0.6749     0.1502     1.1808     2.2086   240.3200     0.9405     0.5659
  753   15.040   2956.79     0.8645     0.0209     0.6700     0.1504     1.1450     2.3744   240.6400     0.9044     0.5723
  754   15.060   2957.86     0.8623     0.0215     0.6996     0.1506     1.1508     2.5024   240.9600     0.9099     0.5895
  755   15.080   2958.87     0.8802     0.0221     0.7304     0.1508     1.1839     2.5121   241.2800     0.9426     0.6071
  756   15.100   2959.92     0.8924     0.0226     0.7701     0.1510     1.2092     2.5426   241.6000     0.9676     0.6236
  757   15.120   2960.88     0.8828     0.0234     0.7821     0.1512     1.2097     2.6599   241.9200     0.9678     0.6480
  758   15.140   2961.93     0.9145     0.0231     0.7823     0.1514     1.2435     2.5627   242.2400     1.0012     0.6310
  759   15.160   2962.97     0.9667     0.0223     0.7731     0.1516     1.2939     2.3671   242.5600     1.0513     0.5970
  760   15.180   2964.00     0.9930     0.0241     0.7996     0.1518     1.3238     2.4498   242.8800     1.0809     0.5882
  761   15.200   2965.04     0.9941     0.0259     0.8292     0.1520     1.3389     2.6106   243.2000     1.0957     0.6105
  762   15.220   2966.09     0.9964     0.0275     0.8418     0.1522     1.3476     2.7668   243.5200     1.1041     0.6196
  763   15.240   2967.13     0.9992     0.0282     0.8424     0.1524     1.3541     2.8255   243.8400     1.1103     0.6239
  764   15.260   2968.14     0.9808     0.0258     0.8173     0.1526     1.3272     2.5886   244.1600     1.0830     0.6205
  765   15.280   2969.14     0.9966     0.0097     0.8638     0.1528     1.3528     0.9864   244.4800     1.1083     0.6274
  766   15.300   2970.17     0.9942     0.0024     0.8816     0.1530     1.3633     0.2510   244.8000     1.1185     0.6489
  767   15.320   2971.22     0.9888     0.0068     0.8676     0.1532     1.3561     0.7042   245.1200     1.1109     0.6492
  768   15.340   2972.27     0.9608     0.0111     0.8418     0.1534     1.3176     1.1575   245.4400     1.0721     0.6492
  769   15.360   2973.32     1.2384     0.0123     0.7559     0.1536     1.5668     1.2677   245.7600     1.3211     0.4790
  770   15.380   2974.35     2.3382     0.0176     0.6202     0.1538     2.6130     1.0167   246.0800     2.3670     0.2117
  771   15.400   2975.40     3.4935     0.0184     0.4601     0.1540     3.6897     0.6244   246.4000     3.4433     0.0910
  772   15.420   2977.26     3.8929     0.0253     0.4398     0.1542     4.0805     0.7265   246.7200     3.8338     0.0787
  773   15.440   2979.11     4.2923     0.0235     0.4195     0.1544     4.4714     0.6727   247.0400     4.2243     0.0665
  774   15.460   2980.91     4.6890     0.0280     0.4020     0.1546     4.8598     0.7087   247.3600     4.6125     0.0547
  775   15.480   2982.00     4.5670     0.0437     0.3927     0.1548     4.7312     0.9246   247.6800     4.4835     0.0527
  776   15.500   2983.06     4.5109     0.0675     0.3350     0.1550     4.6578     1.5158   248.0000     4.4098     0.0442
  777   15.520   2984.09     4.0716     0.0805     0.3055     0.1552     4.2061     1.8044   248.3200     3.9578     0.0417
  778   15.540   2985.10     3.6157     0.0839     0.2961     0.1554     3.7423     2.3239   248.6400     3.4936     0.0418
  779   15.560   2986.18     3.7367     0.0655     0.3368     0.1556     3.8759     1.9163   248.9600     3.6270     0.0485
  780   15.580   2987.21     4.5867     0.0548     0.3057     0.1558     4.7072     1.3803   249.2800     4.4579     0.0301
  781   15.600   2988.24     3.9222     0.0600     0.3648     0.1560     4.0699     1.4811   249.6000     3.8203     0.0512
  782   15.620   2989.25     4.3228     0.0433     0.3258     0.1562     4.4758     1.0001   249.9200     4.2259     0.0492
  783   15.640   2990.29     3.9788     0.0356     0.2846     0.1564     4.1054     0.8536   250.2400     3.8551     0.0376
  784   15.660   2991.37     4.1322     0.0282     0.3554     0.1566     4.2392     0.7058   250.5600     3.9887     0.0247
  785   15.680   2992.35     1.8372     0.0248     0.5033     0.1568     2.0330     0.9487   250.8800     1.7821     0.1736
  786   15.700   2993.39     1.7685     0.0231     0.4122     0.1570     1.9545     1.3735   251.2000     1.7033     0.1678
  787   15.720   2994.41     1.4944     0.0233     0.4926     0.1572     1.6993     1.4076   251.5200     1.4477     0.2284
  788   15.740   2995.43     1.4358     0.0197     0.4530     0.1574     1.6383     1.3174   251.8400     1.3865     0.2346
  789   15.760   2996.48     1.4324     0.0191     0.4945     0.1576     1.6228     1.2799   252.1600     1.3706     0.2155
  790   15.780   2997.51     1.1185     0.0142     0.6152     0.1578     1.3555     1.2588   252.4800     1.1030     0.3728
  791   15.800   2998.55     0.9795     0.0101     0.5649     0.1580     1.2264     1.0107   252.8000     0.9736     0.4413
  792   15.820   2999.57     0.8426     0.0086     0.6528     0.1582     1.1024     0.9588   253.1200     0.8493     0.5418
  793   15.840   3000.57     0.8405     0.0083     0.6808     0.1584     1.1270     0.9979   253.4400     0.8736     0.6001
  794   15.860   3001.62     0.7839     0.0109     0.7528     0.1586     1.0880     1.3059   253.7600     0.8343     0.6791
  795   15.880   3002.65     0.9562     0.0128     0.7816     0.1588     1.2872     1.7025   254.0800     1.0331     0.6285
  796   15.900   3003.66     1.2775     0.0136     0.6860     0.1590     1.5839     1.1649   254.4000     1.3295     0.4308
  797   15.920   3004.71     1.4845     0.0154     0.6059     0.1592     1.7444     1.0478   254.7200     1.4897     0.3086
  798   15.940   3005.74     1.3637     0.0162     0.6448     0.1594     1.6223     1.1114   255.0400     1.3673     0.3343
  799   15.960   3006.79     1.2589     0.0182     0.6533     0.1596     1.5320     1.5184   255.3600     1.2766     0.3844
  800   15.980   3007.83     1.5541     0.0187     0.5889     0.1598     1.8230     1.3596   255.6800     1.5674     0.3071
  801   16.000   3008.81     1.8515     0.0173     0.5223     0.1600     2.0770     0.9716   256.0000     1.8211     0.2071
  802   16.020   3009.84     2.0185     0.0166     0.4517     0.1602     2.2155     0.8550   256.3200     1.9592     0.1578
  803   16.040   3010.87     2.0353     0.0163     0.4810     0.1604     2.2284     0.7858   256.6400     1.9718     0.1518
  804   16.060   3011.91     1.9803     0.0144     0.4846     0.1606     2.1816     0.7358   256.9600     1.9247     0.1657
  805   16.080   3012.96     1.8044     0.0156     0.5081     0.1608     2.0119     0.8128   257.2800     1.7546     0.1904
  806   16.100   3014.00     1.4631     0.0158     0.5620     0.1610     1.6895     1.0038   257.6000     1.4319     0.2648
  807   16.120   3015.01     1.1685     0.0154     0.6312     0.1612     1.4210     1.2016   257.9200     1.1631     0.3793
  808   16.140   3016.04     1.0881     0.0145     0.6445     0.1614     1.3598     1.3334   258.2400     1.1015     0.4407
  809   16.160   3017.08     1.1398     0.0108     0.6535     0.1616     1.4123     0.9691   258.5600     1.1537     0.4222
  810   16.180   3018.12     1.0923     0.0098     0.6786     0.1618     1.3775     0.8814   258.8800     1.1187     0.4625
  811   16.200   3019.15     1.1292     0.0092     0.6889     0.1620     1.4154     0.8312   259.2000     1.1562     0.4493
  812   16.220   3020.17     1.1662     0.0103     0.6963     0.1622     1.4603     0.8896   259.5200     1.2008     0.4480
  813   16.240   3021.22     1.1787     0.0152     0.7023     0.1624     1.4718     1.2826   259.8400     1.2120     0.4419
  814   16.260   3022.27     1.2658     0.0164     0.7130     0.1626     1.5661     1.3674   260.1600     1.3060     0.4233
  815   16.280   3023.30     1.4535     0.0147     0.6541     0.1628     1.7398     1.0643   260.4800     1.4793     0.3508
  816   16.300   3024.33     1.6231     0.0147     0.5735     0.1630     1.8753     0.9342   260.8000     1.6145     0.2710
  817   16.320   3025.36     1.5677     0.0140     0.5977     0.1632     1.8127     0.8646   261.1200     1.5516     0.2709
  818   16.340   3026.40     1.3929     0.0118     0.6044     0.1634     1.6423     0.8166   261.4400     1.3808     0.3117
  819   16.360   3027.44     1.2964     0.0111     0.6249     0.1636     1.5589     0.8346   261.7600     1.2971     0.3557
  820   16.380   3028.50     1.2703     0.0111     0.6422     0.1638     1.5355     0.8703   262.0800     1.2734     0.3674
  821   16.400   3029.53     1.1732     0.0116     0.6985     0.1640     1.4558     0.9159   262.4000     1.1934     0.4269
  822   16.420   3030.57     1.1660     0.0121     0.7147     0.1642     1.4671     0.9634   262.7200     1.2044     0.4591
  823   16.440   3031.61     1.2864     0.0126     0.6873     0.1644     1.5815     1.0108   263.0400     1.3184     0.4086
  824   16.460   3032.64     1.4386     0.0123     0.6347     0.1646     1.7136     0.8783   263.3600     1.4502     0.3382
  825   16.480   3033.63     1.4752     0.0123     0.5736     0.1648     1.7206     0.8272   263.6800     1.4569     0.2878
  826   16.500   3040.08     1.3448     0.0124     0.5901     0.1650     1.5890     0.9023   264.0000     1.3250     0.3158
  827   16.520   3057.58     1.2716     0.0108     0.6151     0.1652     1.5263     0.7915   264.3200     1.2620     0.3534
  828   16.540   3075.08     1.1983     0.0102     0.6402     0.1654     1.4635     0.7451   264.6400     1.1989     0.3911
  829   16.560   3084.38     1.1296     0.0117     0.6797     0.1656     1.4067     1.0120   264.9600     1.1417     0.4329
  830   16.580   3085.44     1.0997     0.0142     0.7071     0.1658     1.3920     1.2988   265.2800     1.1267     0.4705
  831   16.600   3086.50     1.1099     0.0144     0.7144     0.1660     1.4091     1.2947   265.6000     1.1435     0.4777
  832   16.620   3087.52     1.0765     0.0146     0.7237     0.1662     1.3817     1.3306   265.9200     1.1158     0.5023
  833   16.640   3088.54     1.0676     0.0153     0.7300     0.1664     1.3726     1.4346   266.2400     1.1063     0.5059
  834   16.660   3089.54     1.0769     0.0157     0.7401     0.1666     1.3883     1.4632   266.5600     1.1217     0.5125
  835   16.680   3090.59     1.0976     0.0165     0.7456     0.1668     1.4119     1.5317   266.8800     1.1450     0.5081
  836   16.700   3091.63     1.3706     0.0157     0.6263     0.1670     1.6535     1.2268   267.2000     1.3863     0.3656
  837   16.720   3092.66     1.3187     0.0138     0.5514     0.1672     1.5428     0.9858   267.5200     1.2753     0.2880
  838   16.740   3093.70     1.1866     0.0129     0.6248     0.1674     1.4453     1.0856   267.8400     1.1774     0.3808
  839   16.760   3094.73     1.2242     0.0127     0.6366     0.1676     1.4916     1.0336   268.1600     1.2234     0.3833
  840   16.780   3095.76     1.2256     0.0146     0.6479     0.1678     1.4935     1.2050   268.4800     1.2251     0.3838
  841   16.800   3096.78     1.2616     0.0182     0.6589     0.1680     1.5404     1.4673   268.8000     1.2716     0.3900
  842   16.820   3097.81     1.3666     0.0184     0.6545     0.1682     1.6416     1.3498   269.1200     1.3725     0.3545
  843   16.840   3098.81     1.5645     0.0136     0.5821     0.1684     1.8293     0.9041   269.4400     1.5598     0.2962
  844   16.860   3099.85     1.5573     0.0121     0.4881     0.1686     1.7804     0.7614   269.7600     1.5106     0.2400
  845   16.880   3100.89     1.3834     0.0117     0.5049     0.1688     1.5856     0.8034   270.0800     1.3155     0.2377
  846   16.900   3101.97     1.1640     0.0115     0.5533     0.1690     1.3867     0.9696   270.4000     1.1163     0.3243
  847   16.920   3102.97     1.0399     0.0109     0.6296     0.1692     1.2943     1.0065   270.7200     1.0236     0.4264
  848   16.940   3103.98     1.0261     0.0096     0.6682     0.1694     1.3022     0.9389   271.0400     1.0312     0.4732
  849   16.960   3105.02     1.0747     0.0135     0.6878     0.1696     1.3603     1.2785   271.3600     1.0889     0.4688
  850   16.980   3106.06     1.1647     0.0190     0.6950     0.1698     1.4562     1.6663   271.6800     1.1845     0.4429
  851   17.000   3107.07     1.2489     0.0287     0.7108     0.1700     1.5407     1.9088   272.0000     1.2687     0.4138
  852   17.020   3108.11     1.7941     0.0393     0.7376     0.1702     2.1058     1.7990   272.3200     1.8334     0.3200
  853   17.040   3109.17     3.6551     0.0500     0.5235     0.1704     3.9413     1.6882   272.6400     3.6687     0.1435
  854   17.060   3112.74     6.1123     0.0615     0.2839     0.1706     6.2954     1.0660   272.9600     6.0224     0.0441
  855   17.080   3113.89     7.9855     0.0800     0.0252     0.1708     8.0075     1.0445   273.2800     7.7342    -0.0153
  856   17.100   3115.16     8.8564     0.0794    -0.0455     0.1710     8.8403     0.9588   273.6000     8.5667    -0.0244
  857   17.120   3118.17     9.5759     0.0728    -0.0661     0.1712     9.5511     0.8289   273.9200     9.2772    -0.0248
  858   17.140   3121.18    10.2955     0.0715    -0.0868     0.1714    10.2620     0.8131   274.2400     9.9878    -0.0251
  859   17.160   3123.02    10.7923     0.0666    -0.1180     0.1716    10.7497     0.6242   274.5600    10.4752    -0.0261
  860   17.180   3124.10    10.9638     0.0632    -0.2041     0.1718    10.8900     0.5798   274.8800    10.6151    -0.0327
  861   17.200   3127.27    11.1030     0.0620    -0.1643     0.1720    11.0233     0.5558   275.2000    10.7481    -0.0336
  862   17.220   3131.23    11.0109     0.0603    -0.0903     0.1722    10.9622     0.5436   275.5200    10.6867    -0.0269
  863   17.240   3134.55    10.0250     0.0546    -0.0889     0.1724     9.9921     0.5630   275.8400     9.7163    -0.0258
  864   17.260   3135.69    10.8188     0.0525    -0.0936     0.1726    10.7845     0.4845   276.1600    10.5083    -0.0242
  865   17.280   3136.78    10.7430     0.0513    -0.1058     0.1728    10.7006     0.4766   276.4800    10.4241    -0.0263
  866   17.300   3137.86    10.5860     0.0543    -0.1226     0.1730    10.5336     0.5110   276.8000    10.2568    -0.0290
  867   17.320   3138.95    10.4979     0.0550    -0.1068     0.1732    10.4510     0.5218   277.1200    10.1738    -0.0280
  868   17.340   3139.99    10.3390     0.0505    -0.0889     0.1734    10.2981     0.4867   277.4400    10.0206    -0.0270
  869   17.360   3141.07    10.1027     0.0474    -0.0766     0.1736    10.0683     0.4657   277.7600     9.7906    -0.0261
  870   17.380   3142.11     9.8017     0.0441    -0.0677     0.1738     9.7711     0.4459   278.0800     9.4931    -0.0260
  871   17.400   3143.18     9.4343     0.0367    -0.0412     0.1740     9.4119     0.3852   278.4000     9.1335    -0.0249
  872   17.420   3144.28     9.1090     0.0263    -0.0312     0.1742     9.0992     0.2862   278.7200     8.8205    -0.0224
  873   17.440   3145.36     8.7768     0.0232    -0.0621     0.1744     8.7557     0.2616   279.0400     8.4766    -0.0265
  874   17.460   3146.42     8.2778     0.0254    -0.0867     0.1746     8.2438     0.3015   279.3600     7.9644    -0.0321
  875   17.480   3147.45     7.7725     0.0269    -0.1289     0.1748     7.7245     0.3337   279.6800     7.4448    -0.0389
  876   17.500   3148.45     7.3311     0.0210    -0.1043     0.1750     7.2828     0.2604   280.0000     7.0028    -0.0414
  877   17.520   3149.55     7.0733     0.0151    -0.0485     0.1752     7.0435     0.1871   280.3200     6.7631    -0.0364
  878   17.540   3150.59     7.2856     0.0091    -0.0088     0.1754     7.2813     0.1138   280.6400     7.0006    -0.0266
  879   17.560   3151.69     8.0263     0.0032    -0.0951     0.1756     8.0021     0.0405   280.9600     7.7212    -0.0302
  880   17.580   3152.75     8.8433     0.0033    -0.1560     0.1758     8.7779     0.0400   281.2800     8.4967    -0.0390
  881   17.600   3156.87     8.9925     0.0042    -0.1260     0.1760     8.9353     0.0482   281.6000     8.6537    -0.0362
  882   17.620   3161.44     9.0778     0.0145    -0.0960     0.1762     9.0331     0.1631   281.9200     8.7512    -0.0325
  883   17.640   3166.02     9.1630     0.0447    -0.0660     0.1764     9.1309     0.5013   282.2400     8.8487    -0.0287
  884   17.660   3170.60     9.2483     0.0650    -0.0360     0.1766     9.2288     0.7286   282.5600     8.9462    -0.0250
  885   17.680   3174.33     9.3450     0.0679     0.0180     0.1768     9.3441     0.7309   282.8800     9.0613    -0.0198
  886   17.700   3177.23     9.4532     0.0688     0.0763     0.1770     9.4768     0.7402   283.2000     9.1936    -0.0132
  887   17.720   3179.64     9.6853     0.0701     0.0392     0.1772     9.7147     0.7335   283.5200     9.4312    -0.0113
  888   17.740   3180.72     9.3532     0.0876    -0.1704     0.1774     9.3097     0.9189   283.8400     9.0259    -0.0313
  889   17.760   3181.83     8.5672     0.1053    -0.2506     0.1776     8.4652     1.2110   284.1600     8.1810    -0.0514
  890   17.780   3182.87     7.1757     0.1060    -0.2585     0.1778     7.0700     1.4271   284.4800     6.7855    -0.0633
  891   17.800   3183.93     6.9369     0.0868    -0.1939     0.1780     6.8406     1.1852   284.8000     6.5558    -0.0621
  892   17.820   3184.99     7.2920     0.0662    -0.1553     0.1782     7.2271     0.8657   285.1200     6.9420    -0.0480
  893   17.840   3186.07     8.3675     0.0502    -0.2257     0.1784     8.2760     0.6016   285.4400     7.9906    -0.0496
  894   17.860   3187.19     9.6186     0.0482    -0.2566     0.1786     9.5164     0.5134   285.7600     9.2306    -0.0457
  895   17.880   3188.22    10.6793     0.0417    -0.3058     0.1788    10.5573     0.4090   286.0800    10.2712    -0.0457
  896   17.900   3191.89    11.4807     0.0314    -0.2784     0.1790    11.3576     0.2797   286.4000    11.0712    -0.0429
  897   17.920   3198.92    12.0410     0.0395    -0.2354     0.1792    11.9359     0.3516   286.7200    11.6492    -0.0373
  898   17.940   3205.95    12.6014     0.0753    -0.1966     0.1794    12.5143     0.6389   287.0400    12.2273    -0.0318
  899   17.960   3208.26    13.3048     0.1260    -0.2042     0.1796    13.2288     0.9539   287.3600    12.9414    -0.0279
  900   17.980   3209.34    13.6537     0.1536    -0.2030     0.1798    13.5664     1.1269   287.6800    13.2787    -0.0292
  901   18.000   3210.42    13.9245     0.1660    -0.1811     0.1800    13.8448     1.1952   288.0000    13.5568    -0.0273
  902   18.020   3211.52    14.4133     0.2679    -0.1399     0.1802    14.3464     1.8632   288.3200    14.0580    -0.0242
  903   18.040   3212.59    15.2430     0.2581    -0.3249     0.1804    15.1320     1.7126   288.6400    14.8434    -0.0299
  904   18.060   3214.08    16.9718     0.2400    -0.3032     0.1806    16.8340     1.5022   288.9600    16.5450    -0.0308
  905   18.080   3219.60    16.1136     0.2220    -0.1848     0.1808    16.0189     1.2918   289.2800    15.7296    -0.0255
  906   18.100   3224.95    14.6372     0.1793    -0.0592     0.1810    14.5929     1.2001   289.6000    14.3033    -0.0200
  907   18.120   3226.03    12.5362     0.1560    -0.1919     0.1812    12.4836     1.2293   289.9200    12.1937    -0.0253
  908   18.140   3227.29    12.6051     0.1137    -0.2362     0.1814    12.5102     0.9173   290.2400    12.2199    -0.0333
  909   18.160   3229.32    13.5355     0.0641    -0.2655     0.1816    13.4283     0.5167   290.5600    13.1377    -0.0333
  910   18.180   3231.35    14.4660     0.0340    -0.2949     0.1818    14.3464     0.2744   290.8800    14.0555    -0.0332
  911   18.200   3232.92    15.1946     0.0314    -0.3125     0.1820    15.0665     0.2078   291.2000    14.7753    -0.0330
  912   18.220   3234.01    15.4067     0.0400    -0.3282     0.1822    15.2702     0.2594   291.5200    14.9787    -0.0339
  913   18.240   3235.12    15.1761     0.0523    -0.3237     0.1824    15.0391     0.3433   291.8400    14.7472    -0.0345
  914   18.260   3236.18    14.8431     0.0580    -0.3077     0.1826    14.7118     0.3890   292.1600    14.4197    -0.0343
  915   18.280   3237.26    14.3826     0.0675    -0.3011     0.1828    14.2547     0.4673   292.4800    13.9622    -0.0349
  916   18.300   3238.35    14.0258     0.0721    -0.2948     0.1830    13.9010     0.5131   292.8000    13.6082    -0.0353
  917   18.320   3239.43    13.8828     0.0728    -0.2836     0.1832    13.7627     0.5252   293.1200    13.4696    -0.0348
  918   18.340   3240.48    14.1056     0.0668    -0.2592     0.1834    13.9924     0.4747   293.4400    13.6990    -0.0331
  919   18.360   3241.56    14.4060     0.0744    -0.2538     0.1836    14.2993     0.5176   293.7600    14.0055    -0.0312
  920   18.380   3242.63    14.6900     0.0754    -0.2707     0.1838    14.5789     0.5145   294.0800    14.2848    -0.0314
  921   18.400   3243.75    15.1068     0.0615    -0.2948     0.1840    14.9867     0.4106   294.4000    14.6923    -0.0320
  922   18.420   3244.82    15.6518     0.0474    -0.3004     0.1842    15.5252     0.3066   294.7200    15.2305    -0.0319
  923   18.440   3245.91    16.4691     0.0335    -0.3020     0.1844    16.3427     0.2035   295.0400    16.0476    -0.0303
  924   18.460   3247.03    17.4402     0.0340    -0.3128     0.1846    17.3105     0.1968   295.3600    17.0151    -0.0290
  925   18.480   3248.11    18.4187     0.0345    -0.3164     0.1848    18.2864     0.1900   295.6800    17.9908    -0.0278
  926   18.500   3249.63    18.9955     0.0361    -0.3022     0.1850    18.8648     0.1906   296.0000    18.5688    -0.0267
  927   18.520   3252.24    19.1891     0.0400    -0.2765     0.1852    19.0692     0.2112   296.3200    18.7729    -0.0251
  928   18.540   3254.85    19.3827     0.0459    -0.2508     0.1854    19.2736     0.2426   296.6400    18.9770    -0.0235
  929   18.560   3271.02    19.3554     0.0478    -0.1328     0.1856    19.2820     0.2458   296.9600    18.9851    -0.0189
  930   18.580   3295.50    19.1927     0.0542    -0.0115     0.1858    19.1703     0.2788   297.2800    18.8730    -0.0126
  931   18.600   3307.42    19.0756     0.0651     0.0339     0.1860    19.0792     0.3412   297.6000    18.7816    -0.0094
  932   18.620   3308.53    18.9632     0.0715     0.0693     0.1862    18.9854     0.3780   297.9200    18.6875    -0.0071
  933   18.640   3309.66    19.3175     0.0738     0.0061     0.1864    19.3254     0.3851   298.2400    19.0271    -0.0088
  934   18.660   3310.75    19.9943     0.0671     0.0145     0.1866    19.9998     0.3406   298.5600    19.7012    -0.0088
  935   18.680   3311.86    20.8861     0.0551     0.0441     0.1868    20.9029     0.2688   298.8800    20.6040    -0.0071
  936   18.700   3312.92    21.7572     0.0529    -0.0675     0.1870    21.7483     0.2469   299.2000    21.4491    -0.0097
  937   18.720   3313.91    21.9815     0.0547    -0.1029     0.1872    21.9303     0.2494   299.5200    21.6307    -0.0143
  938   18.740   3314.92    21.5905     0.0552    -0.0916     0.1874    21.5498     0.2536   299.8400    21.2500    -0.0134
  939   18.760   3315.93    20.6454     0.0640    -0.1187     0.1876    20.5981     0.3052   300.1600    20.2980    -0.0148
  940   18.780   3317.04    18.9614     0.0842    -0.1425     0.1878    18.9061     0.4335   300.4800    18.6056    -0.0172
  941   18.800   3318.02    17.4246     0.0918    -0.1323     0.1880    17.3700     0.5167   300.8000    17.0692    -0.0186
  942   18.820   3319.12    16.1691     0.1040    -0.1126     0.1882    16.1156     0.6357   301.1200    15.8145    -0.0200
  943   18.840   3320.17    15.1236     0.1093    -0.0914     0.1884    15.0831     0.7133   301.4400    14.7816    -0.0193
  944   18.860   3321.17    14.2648     0.1108    -0.0438     0.1886    14.2384     0.7706   301.7600    13.9366    -0.0180
  945   18.880   3322.30    13.9082     0.0928    -0.0172     0.1888    13.8996     0.6665   302.0800    13.5975    -0.0154
  946   18.900   3323.39    13.8898     0.0718    -0.0119     0.1890    13.8851     0.5174   302.4000    13.5827    -0.0148
  947   18.920   3324.48    14.1021     0.0533    -0.1164     0.1892    14.0752     0.3797   302.7200    13.7725    -0.0184
  948   18.940   3325.56    14.2256     0.0437    -0.2436     0.1894    14.1381     0.3067   303.0400    13.8351    -0.0288
  949   18.960   3326.63    14.1436     0.0439    -0.2670     0.1896    14.0318     0.3090   303.3600    13.7284    -0.0332
  950   18.980   3327.68    14.1826     0.0434    -0.2460     0.1898    14.0772     0.3031   303.6800    13.7735    -0.0320
  951   19.000   3328.73    14.4246     0.0428    -0.2464     0.1900    14.3203     0.2972   304.0000    14.0163    -0.0313
  952   19.020   3329.82    14.8687     0.0400    -0.2443     0.1902    14.7681     0.2714   304.3200    14.4638    -0.0297
  953   19.040   3330.88    15.2453     0.0361    -0.2483     0.1904    15.1419     0.2387   304.6400    14.8373    -0.0294
  954   19.060   3333.03    15.6212     0.0400    -0.2028     0.1906    15.5211     0.2577   304.9600    15.2162    -0.0282
  955   19.080   3343.77    15.6103     0.0560    -0.1002     0.1908    15.5533     0.3584   305.2800    15.2480    -0.0214
  956   19.100   3354.52    15.5994     0.0697     0.0023     0.1910    15.5855     0.4462   305.6000    15.2799    -0.0147
  957   19.120   3363.52    15.5112     0.0779     0.0489     0.1912    15.5324     0.4995   305.9200    15.2265    -0.0092
  958   19.140   3364.62    15.0741     0.0904     0.0399     0.1914    15.0906     0.5953   306.2400    14.7843    -0.0103
  959   19.160   3365.68    14.7583     0.0968     0.0666     0.1916    14.7835     0.6547   306.5600    14.4770    -0.0091
  960   19.180   3366.71    14.6665     0.0933    -0.0181     0.1918    14.6775     0.6355   306.8800    14.3707    -0.0115
  961   19.200   3367.79    14.5764     0.0878    -0.1434     0.1920    14.5306     0.6019   307.2000    14.2234    -0.0212
  962   19.220   3368.86    14.4164     0.0813    -0.1851     0.1922    14.3453     0.5632   307.5200    14.0378    -0.0257
  963   19.240   3369.98    14.2645     0.0824    -0.2456     0.1924    14.1665     0.5767   307.8400    13.8587    -0.0307
  964   19.260   3371.06    14.2960     0.0901    -0.2629     0.1926    14.1867     0.6312   308.1600    13.8785    -0.0326
  965   19.280   3372.14    14.5162     0.0986    -0.2743     0.1928    14.4049     0.6800   308.4800    14.0964    -0.0325
  966   19.300   3373.26    14.9604     0.0997    -0.2741     0.1930    14.8428     0.6693   308.8000    14.5340    -0.0326
  967   19.320   3374.33    15.7045     0.0910    -0.2730     0.1932    15.5919     0.5833   309.1200    15.2828    -0.0302
  968   19.340   3375.41    16.7320     0.0749    -0.2915     0.1934    16.6120     0.4543   309.4400    16.3025    -0.0294
  969   19.360   3376.51    17.6766     0.0584    -0.3029     0.1936    17.5505     0.3354   309.7600    17.2408    -0.0286
  970   19.380   3377.61    18.5331     0.0379    -0.3033     0.1938    18.4036     0.2077   310.0800    18.0935    -0.0278
  971   19.400   3378.70    19.2894     0.0357    -0.2817     0.1940    19.1693     0.1875   310.4000    18.8589    -0.0254
  972   19.420   3379.78    19.1201     0.0475    -0.2922     0.1942    19.0019     0.2482   310.7200    18.6911    -0.0255
  973   19.440   3380.79    17.7947     0.0713    -0.3063     0.1944    17.6667     0.3992   311.0400    17.3557    -0.0288
  974   19.460   3381.80    15.4010     0.1054    -0.3133     0.1946    15.2714     0.6376   311.3600    14.9600    -0.0337
  975   19.480   3382.83    10.9003     0.1198    -0.3180     0.1948    10.7660     0.9341   311.6800    10.4543    -0.0494
  976   19.500   3383.86     7.4961     0.1109    -0.3156     0.1950     7.3632     1.2144   312.0000     7.0512    -0.0726
  977   19.520   3384.90     5.7787     0.0995    -0.3051     0.1952     5.6480     1.4333   312.3200     5.3356    -0.0949
  978   19.540   3385.93     4.6940     0.0881    -0.2477     0.1954     4.5770     1.6522   312.6400     4.2644    -0.1111
  979   19.560   3387.00     3.6942     0.0745    -0.0094     0.1956     3.6487     1.8498   312.9600     3.3358    -0.0905
  980   19.580   3388.03     2.7634     0.0604     0.1898     0.1958     2.8065     2.1426   313.2800     2.4932    -0.0363
  981   19.600   3389.29     2.2423     0.0428     0.4780     0.1960     2.4041     1.8892   313.6000     2.0905     0.0913
  982   19.620   3391.97     2.1051     0.0323     0.7467     0.1962     2.3797     1.4258   313.9200     2.0658     0.2250
  983   19.640   3394.65     1.9679     0.0273     1.0153     0.1964     2.3554     1.2078   314.2400     2.0411     0.3587
  984   19.660   3397.04     1.8574     0.0285     1.1751     0.1966     2.3427     1.2900   314.5600     2.0281     0.4727
  985   19.680   3398.07     1.8937     0.0319     1.1790     0.1968     2.3897     1.5579   314.8800     2.0748     0.4744
  986   19.700   3399.12     1.9263     0.0354     1.1990     0.1970     2.4288     1.8258   315.2000     2.1136     0.4729
  987   19.720   3400.18     1.9922     0.0394     1.2062     0.1972     2.5000     2.0088   315.5200     2.1845     0.4632
  988   19.740   3401.24     2.0644     0.0459     1.1761     0.1974     2.5657     2.2592   315.8400     2.2499     0.4429
  989   19.760   3402.25     2.1034     0.0525     1.1347     0.1976     2.5845     2.5097   316.1600     2.2684     0.4179
  990   19.780   3405.40     2.1208     0.0555     1.1072     0.1978     2.5899     2.6295   316.4800     2.2734     0.4042
  991   19.800   3408.88     2.1321     0.0542     1.0798     0.1980     2.5896     2.5678   316.8000     2.2728     0.3921
  992   19.820   3411.34     2.1379     0.0535     1.0316     0.1982     2.5759     2.5043   317.1200     2.2588     0.3739
  993   19.840   3414.83     2.0381     0.0501     1.0076     0.1984     2.4648     2.3431   317.4400     2.1474     0.3816
  994   19.860   3418.47     1.9321     0.0466     0.9835     0.1986     2.3486     2.1793   317.7600     2.0309     0.3914
  995   19.880   3421.57     1.8205     0.0433     1.0165     0.1988     2.2368     2.1953   318.0800     1.9188     0.4133
  996   19.900   3422.60     1.7284     0.0489     1.0409     0.1990     2.1593     2.8219   318.4000     1.8409     0.4493
  997   19.920   3423.66     1.6325     0.0745     1.0864     0.1992     2.0833     4.5219   318.7200     1.7646     0.4954
  998   19.940   3424.68     1.5971     0.0872     1.1397     0.1994     2.0653     5.4105   319.0400     1.7463     0.5242
  999   19.960   3425.70     1.5845     0.0863     1.1608     0.1996     2.0754     5.4514   319.3600     1.7560     0.5519
 1000   19.980   3426.73     1.6396     0.0902     1.1469     0.1998     2.1190     5.5974   319.6800     1.7993     0.5233
 1001   20.000   3427.77     1.6610     0.0916     1.0015     0.2000     2.1379     5.5618   320.0000     1.8179     0.5146
 1002   20.020   4446.59     2.2158     0.0890     0.4926     0.2002     2.4964     5.3476   320.3200     2.1761     0.2633
 1003   20.040   5568.32     2.8224     0.0801     0.1449     0.2004     2.8894     4.6088   320.6400     2.5688    -0.0098
 1004   20.060   5655.88     2.4310     0.0706     0.3222     0.2006     2.5327     2.6733   320.9600     2.2118     0.0189
 1005   20.080   5656.92     2.0782     0.0693     0.5430     0.2008     2.2758     3.1620   321.2800     1.9545     0.1380
 1006   20.100   5657.95     1.9535     0.0578     0.6954     0.2010     2.2242     2.9101   321.6000     1.9026     0.2330
 1007   20.120   5658.96     1.9285     0.0469     0.7757     0.2012     2.2453     2.4257   321.9200     1.9234     0.2875
 1008   20.140   5660.02     1.9455     0.0381     0.7895     0.2014     2.2701     1.9580   322.2400     1.9479     0.2935
 1009   20.160   5661.05     1.8587     0.0347     0.7236     0.2016     2.1774     1.8377   322.5600     1.8548     0.3003
 1010   20.180   5662.10     1.7674     0.0342     0.8131     0.2018     2.0926     1.8796   322.8800     1.7697     0.3237
 1011   20.200   5663.11     1.6508     0.0346     0.9395     0.2020     2.0303     2.0517   323.2000     1.7071     0.4110
 1012   20.220   5664.17     1.6384     0.0296     0.9714     0.2022     2.0418     1.8044   323.5200     1.7183     0.4413
 1013   20.240   5665.24     1.6175     0.0264     1.0035     0.2024     2.0337     1.6244   323.8400     1.7098     0.4612
 1014   20.260   5666.24     1.6330     0.0269     1.0335     0.2026     2.0618     1.6616   324.1600     1.7376     0.4710
 1015   20.280   5667.27     1.6445     0.0270     1.0605     0.2028     2.0844     1.6453   324.4800     1.7599     0.4799
 1016   20.300   5668.29     1.6474     0.0268     1.0992     0.2030     2.1057     1.6294   324.8000     1.7809     0.4987
 1017   20.320   5669.36     1.6354     0.0268     1.0729     0.2032     2.0791     1.6369   325.1200     1.7540     0.4864
 1018   20.340   5670.36     1.5900     0.0257     1.0795     0.2034     2.0404     1.6182   325.4400     1.7150     0.5068
 1019   20.360   5671.42     1.5728     0.0264     1.0784     0.2036     2.0304     1.6763   325.7600     1.7047     0.5197
 1020   20.380   5672.43     1.5817     0.0251     1.0800     0.2038     2.0364     1.5905   326.0800     1.7103     0.5138
 1021   20.400   5673.47     1.5733     0.0243     1.0575     0.2040     2.0215     1.5415   326.4000     1.6951     0.5091
 1022   20.420   5674.49     1.5538     0.0236     1.0556     0.2042     1.9976     1.5107   326.7200     1.6708     0.5102
 1023   20.440   5675.53     1.5373     0.0225     1.0553     0.2044     1.9784     1.4546   327.0400     1.6514     0.5122
 1024   20.460   5676.54     1.5102     0.0201     1.0783     0.2046     1.9585     1.3210   327.3600     1.6311     0.5289
 1025   20.480   5677.61     1.5099     0.0199     1.0891     0.2048     1.9668     1.3203   327.6800     1.6391     0.5387
 1026   20.500   5678.65     1.5212     0.0191     1.0919     0.2050     1.9816     1.2641   328.0000     1.6536     0.5390
 1027   20.520   5679.69     1.5416     0.0185     1.0857     0.2052     1.9976     1.2034   328.3200     1.6693     0.5275
 1028   20.540   5680.68     1.5150     0.0165     1.0899     0.2054     1.9738     1.0813   328.6400     1.6451     0.5392
 1029   20.560   5681.72     1.5296     0.0157     1.0625     0.2056     1.9810     1.0302   328.9600     1.6521     0.5262
 1030   20.580   5682.72     1.5095     0.0154     1.0540     0.2058     1.9534     1.0108   329.2800     1.6241     0.5241
 1031   20.600   5683.78     1.4894     0.0151     1.0352     0.2060     1.9248     1.0078   329.6000     1.5952     0.5208
 1032   20.620   5684.85     1.4377     0.0152     1.0388     0.2062     1.8733     1.0392   329.9200     1.5433     0.5383
 1033   20.640   5685.88     1.4284     0.0151     1.0290     0.2064     1.8651     1.0604   330.2400     1.5348     0.5429
 1034   20.660   5686.87     1.4723     0.0151     0.9779     0.2066     1.8906     1.0434   330.5600     1.5600     0.5060
 1035   20.680   5687.89     1.4805     0.0173     0.9913     0.2068     1.8983     1.1647   330.8800     1.5674     0.5027
 1036   20.700   5688.98     1.4978     0.0180     0.9788     0.2070     1.9148     1.2026   331.2000     1.5836     0.4963
 1037   20.720   5690.00     1.5432     0.0174     0.9844     0.2072     1.9466     1.1425   331.5200     1.6150     0.4663
 1038   20.740   5691.04     1.5942     0.0149     0.9374     0.2074     1.9973     0.9553   331.8400     1.6655     0.4519
 1039   20.760   5692.04     1.6350     0.0152     0.8679     0.2076     2.0075     0.9323   332.1600     1.6754     0.4055
 1040   20.780   5693.09     1.6399     0.0181     0.8541     0.2078     1.9992     1.1077   332.4800     1.6667     0.3886
 1041   20.800   5694.13     1.6477     0.0193     0.8803     0.2080     2.0121     1.1729   332.8000     1.6793     0.3929
 1042   20.820   5695.18     1.6208     0.0166     0.9038     0.2082     2.0022     1.0191   333.1200     1.6690     0.4192
 1043   20.840   5696.20     1.6378     0.0182     0.8493     0.2084     2.0039     1.1174   333.4400     1.6705     0.3970
 1044   20.860   5697.20     1.5714     0.0201     0.8516     0.2086     1.9235     1.2478   333.7600     1.5897     0.3963
 1045   20.880   5698.24     1.5165     0.0195     0.8946     0.2088     1.8833     1.2781   334.0800     1.5492     0.4289
 1046   20.900   5699.27     1.5480     0.0158     0.9631     0.2090     1.9464     1.0377   334.4000     1.6120     0.4587
 1047   20.920   5700.33     1.7181     0.0150     0.9051     0.2092     2.1156     0.8867   334.7200     1.7809     0.4141
 1048   20.940   5701.32     1.8331     0.0170     0.8256     0.2094     2.1846     0.9434   335.0400     1.8496     0.3394
 1049   20.960   5702.40     1.9336     0.0196     0.7905     0.2096     2.2672     1.0435   335.3600     1.9318     0.3027
 1050   20.980   5703.41     2.0510     0.0239     0.7421     0.2098     2.3590     1.2000   335.6800     2.0233     0.2587
 1051   21.000   5704.40     2.1867     0.0295     0.6381     0.2100     2.4662     1.4037   336.0000     2.1302     0.2139
 1052   21.020   5705.42     2.2964     0.0287     0.6047     0.2102     2.5541     1.2734   336.3200     2.2178     0.1819
 1053   21.040   5706.47     2.4554     0.0295     0.6108     0.2104     2.7108     1.2440   336.6400     2.3742     0.1675
 1054   21.060   5707.55     2.7353     0.0303     0.5730     0.2106     2.9817     1.1658   336.9600     2.6447     0.1423
 1055   21.080   5708.56     3.0661     0.0283     0.4782     0.2108     3.2841     0.9713   337.2800     2.9468     0.1048
 1056   21.100   5709.59     3.1523     0.0237     0.4719     0.2110     3.3464     0.7528   337.6000     3.0088     0.0835
 1057   21.120   5710.60     3.0480     0.0228     0.5052     0.2112     3.2528     0.7387   337.9200     2.9148     0.0949
 1058   21.140   5711.66     2.9450     0.0254     0.5024     0.2114     3.1582     0.8540   338.2400     2.8199     0.1050
 1059   21.160   5712.68     2.9002     0.0258     0.4806     0.2116     3.1042     0.8854   338.5600     2.7657     0.0992
 1060   21.180   5713.73     2.9090     0.0258     0.5005     0.2118     3.1151     0.8873   338.8800     2.7762     0.1004
 1061   21.200   5714.74     2.9978     0.0239     0.5141     0.2120     3.2113     0.8101   339.2000     2.8721     0.1031
 1062   21.220   5715.77     3.2147     0.0222     0.4832     0.2122     3.4276     0.7147   339.5200     3.0880     0.0955
 1063   21.240   5716.85     3.5146     0.0222     0.4190     0.2124     3.6950     0.6534   339.8400     3.3552     0.0648
 1064   21.260   5717.90     3.6992     0.0255     0.3724     0.2126     3.8594     0.7018   340.1600     3.5193     0.0480
 1065   21.280   5718.90     3.7379     0.0253     0.3635     0.2128     3.8921     0.6763   340.4800     3.5516     0.0435
 1066   21.300   5719.94     3.5587     0.0294     0.3994     0.2130     3.7192     0.8037   340.8000     3.3784     0.0500
 1067   21.320   5720.94     3.2036     0.0326     0.4069     0.2132     3.3751     0.9811   341.1200     3.0340     0.0644
 1068   21.340   5721.98     3.1276     0.0311     0.4253     0.2134     3.2974     0.9963   341.4400     2.9560     0.0646
 1069   21.360   5723.06     3.0062     0.0304     0.4338     0.2136     3.1876     0.9972   341.7600     2.8458     0.0767
 1070   21.380   5724.08     2.9488     0.0225     0.4391     0.2138     3.1349     0.7580   342.0800     2.7928     0.0821
 1071   21.400   5725.10     2.8380     0.0232     0.4702     0.2140     3.0295     0.8010   342.4000     2.6871     0.0901
 1072   21.420   5726.14     2.6497     0.0239     0.5045     0.2142     2.8556     0.8772   342.7200     2.5129     0.1099
 1073   21.440   5727.14     2.4583     0.0232     0.5317     0.2144     2.6785     0.9177   343.0400     2.3355     0.1328
 1074   21.460   5728.16     2.3250     0.0248     0.5780     0.2146     2.5601     1.0470   343.3600     2.2168     0.1557
 1075   21.480   5729.23     2.1838     0.0245     0.6376     0.2148     2.4425     1.0914   343.6800     2.0988     0.1912
 1076   21.500   5730.26     2.0975     0.0217     0.6790     0.2150     2.3786     1.0194   344.0000     2.0346     0.2233
 1077   21.520   5731.29     2.0659     0.0182     0.7036     0.2152     2.3620     0.8692   344.3200     2.0177     0.2428
 1078   21.540   5732.35     2.1001     0.0167     0.6901     0.2154     2.3889     0.8016   344.6400     2.0443     0.2310
 1079   21.560   5733.38     2.0527     0.0150     0.7255     0.2156     2.3529     0.7219   344.9600     2.0079     0.2486
 1080   21.580   5734.39     1.8789     0.0150     0.7765     0.2158     2.1957     0.7663   345.2800     1.8504     0.2909
 1081   21.600   5735.40     1.7777     0.0154     0.8099     0.2160     2.1129     0.8517   345.6000     1.7673     0.3294
 1082   21.620   5736.46     1.7284     0.0134     0.8682     0.2162     2.0816     0.7687   345.9200     1.7357     0.3600
 1083   21.640   5737.50     1.6967     0.0143     0.8847     0.2164     2.0681     0.8418   346.2400     1.7219     0.3879
 1084   21.660   5738.53     1.7174     0.0158     0.8818     0.2166     2.0893     0.9226   346.5600     1.7428     0.3839
 1085   21.680   5739.59     1.7039     0.0168     0.8944     0.2168     2.0794     0.9840   346.8800     1.7325     0.3908
 1086   21.700   5740.65     1.7379     0.0181     0.8855     0.2170     2.1103     1.0556   347.2000     1.7631     0.3799
 1087   21.720   5741.66     1.8261     0.0167     0.8401     0.2172     2.1869     0.9381   347.5200     1.8394     0.3491
 1088   21.740   5742.70     1.8341     0.0170     0.8243     0.2174     2.1822     0.9189   347.8400     1.8344     0.3333
 1089   21.760   5743.68     1.7799     0.0165     0.8376     0.2176     2.1271     0.9129   348.1600     1.7790     0.3424
 1090   21.780   5744.71     1.7004     0.0182     0.8768     0.2178     2.0654     1.0426   348.4800     1.7169     0.3794
 1091   21.800   5745.79     1.6430     0.0191     0.9281     0.2180     2.0204     1.1399   348.8000     1.6716     0.4072
 1092   21.820   5746.80     1.6603     0.0181     0.9542     0.2182     2.0661     1.0902   349.1200     1.7170     0.4358
 1093   21.840   5747.86     1.8150     0.0158     0.9047     0.2184     2.2011     0.8979   349.4400     1.8517     0.3786
 1094   21.860   5748.88     1.8822     0.0139     0.8599     0.2186     2.2487     0.7464   349.7600     1.8989     0.3444
 1095   21.880   5749.88     1.8658     0.0142     0.8551     0.2188     2.2152     0.7541   350.0800     1.8651     0.3287
 1096   21.900   5750.89     1.7011     0.0143     0.9363     0.2190     2.0809     0.8088   350.4000     1.7305     0.3961
 1097   21.920   5751.93     1.6273     0.0147     0.9991     0.2192     2.0380     0.8903   350.7200     1.6873     0.4497
 1098   21.940   5752.93     1.5891     0.0149     1.0239     0.2194     2.0184     0.9287   351.0400     1.6674     0.4815
 1099   21.960   5754.02     1.5544     0.0150     1.0381     0.2196     1.9835     0.9596   351.3600     1.6321     0.4914
 1100   21.980   5755.04     1.5593     0.0156     1.0654     0.2198     2.0022     1.0011   351.6800     1.6506     0.5058
 1101   22.000   5756.07     1.5911     0.0164     1.0449     0.2200     2.0329     1.0320   352.0000     1.6809     0.4949
 1102   22.020   5757.11     1.6225     0.0171     1.0288     0.2202     2.0539     1.0629   352.3200     1.7016     0.4743
 1103   22.040   5758.12     1.6036     0.0172     1.0321     0.2204     2.0372     1.0728   352.6400     1.6845     0.4820
 1104   22.060   5759.16     1.5723     0.0177     1.0605     0.2206     2.0150     1.1218   352.9600     1.6620     0.5015
 1105   22.080   5760.17     1.5484     0.0178     1.0921     0.2208     2.0005     1.1494   353.2800     1.6473     0.5194
 1106   22.100   5766.06     1.5635     0.0174     1.1009     0.2210     2.0246     1.1251   353.6000     1.6710     0.5248
 1107   22.120   5773.57     1.5898     0.0191     1.1096     0.2212     2.0545     1.2347   353.9200     1.7006     0.5207
 1108   22.140   5779.64     1.6140     0.0192     1.1046     0.2214     2.0799     1.2418   354.2400     1.7257     0.5146
 1109   22.160   5780.68     1.6175     0.0192     1.0976     0.2216     2.0794     1.2225   354.5600     1.7248     0.5092
 1110   22.180   5781.74     1.5982     0.0191     1.0885     0.2218     2.0564     1.2032   354.8800     1.7016     0.5109
 1111   22.200   5782.74     1.5945     0.0187     1.1008     0.2220     2.0574     1.1685   355.2000     1.7022     0.5171
 1112   22.220   5783.82     1.5587     0.0188     1.1177     0.2222     2.0238     1.1990   355.5200     1.6683     0.5306
 1113   22.240   5784.86     1.5288     0.0188     1.1380     0.2224     2.0078     1.2266   355.8400     1.6520     0.5558
 1114   22.260   5797.52     1.5535     0.0193     1.1239     0.2226     2.0276     1.2611   356.1600     1.6714     0.5425
 1115   22.280   5810.63     1.5796     0.0179     1.1099     0.2228     2.0478     1.1696   356.4800     1.6913     0.5278
 1116   22.300   5823.75     1.6056     0.0166     1.0992     0.2230     2.0679     1.0884   356.8000     1.7111     0.5130
 1117   22.320   5826.76     1.6295     0.0158     1.1097     0.2232     2.0938     0.9656   357.1200     1.7366     0.5080
 1118   22.340   5827.83     1.6031     0.0156     1.1236     0.2234     2.0726     0.9688   357.4400     1.7151     0.5215
 1119   22.360   5828.84     1.6469     0.0145     1.1135     0.2236     2.1129     0.8947   357.7600     1.7551     0.5047
 1120   22.380   5829.87     1.6871     0.0133     1.1053     0.2238     2.1590     0.7912   358.0800     1.8009     0.4995
 1121   22.400   5830.91     1.6856     0.0134     1.1040     0.2240     2.1496     0.7926   358.4000     1.7912     0.4918
 1122   22.420   5831.91     1.6600     0.0137     1.0901     0.2242     2.1185     0.8217   358.7200     1.7598     0.4930
 1123   22.440   5832.94     1.6193     0.0137     1.0976     0.2244     2.0791     0.8359   359.0400     1.7200     0.5060
 1124   22.460   5833.97     1.5687     0.0149     1.1489     0.2246     2.0497     0.9382   359.3600     1.6903     0.5446
 1125   22.480   5835.00     1.5754     0.0160     1.1363     0.2248     2.0545     1.0150   359.6800     1.6948     0.5405
 1126   22.500   5836.02     1.5623     0.0153     1.1367     0.2250     2.0399     0.9768   360.0000     1.6799     0.5429
 1127   22.520   5837.08     1.5526     0.0162     1.1458     0.2252     2.0303     1.0341   360.3200     1.6700     0.5463
 1128   22.540   5838.14     1.5392     0.0149     1.1415     0.2254     2.0198     0.9650   360.6400     1.6592     0.5538
 1129   22.560   5839.15     1.5334     0.0146     1.1500     0.2256     2.0145     0.9460   360.9600     1.6536     0.5563
 1130   22.580   5840.20     1.5358     0.0148     1.1530     0.2258     2.0201     0.9669   361.2800     1.6588     0.5590
 1131   22.600   5841.18     1.5522     0.0161     1.1387     0.2260     2.0335     1.0414   361.6000     1.6719     0.5503
 1132   22.620   5842.22     1.5866     0.0156     1.1397     0.2262     2.0627     0.9897   361.9200     1.7008     0.5335
 1133   22.640   5843.26     1.5939     0.0158     1.1446     0.2264     2.0745     0.9955   362.2400     1.7123     0.5360
 1134   22.660   5844.27     1.5560     0.0156     1.1292     0.2266     2.0342     0.9867   362.5600     1.6716     0.5456
 1135   22.680   5845.36     1.5487     0.0151     1.1117     0.2268     2.0208     0.9741   362.8800     1.6579     0.5412
 1136   22.700   5846.41     1.5291     0.0150     1.1543     0.2270     2.0075     0.9752   363.2000     1.6443     0.5546
 1137   22.720   5847.42     1.5214     0.0152     1.1831     0.2272     2.0170     1.0003   363.5200     1.6535     0.5763
 1138   22.740   5848.47     1.5191     0.0140     1.2292     0.2274     2.0361     0.9213   363.8400     1.6723     0.6001
 1139   22.760   5849.48     1.5530     0.0146     1.2202     0.2276     2.0683     0.9452   364.1600     1.7042     0.5865
 1140   22.780   5850.51     1.5422     0.0137     1.1986     0.2278     2.0482     0.8859   364.4800     1.6837     0.5802
 1141   22.800   5851.54     1.5447     0.0138     1.1986     0.2280     2.0453     0.8920   364.8000     1.6805     0.5737
 1142   22.820   5852.60     1.5164     0.0138     1.1822     0.2282     2.0123     0.9075   365.1200     1.6471     0.5783
 1143   22.840   5853.64     1.4956     0.0151     1.1961     0.2284     1.9966     1.0091   365.4400     1.6312     0.5913
 1144   22.860   5854.69     1.5229     0.0171     1.2107     0.2286     2.0307     1.1377   365.7600     1.6649     0.5889
 1145   22.880   5855.71     1.6231     0.0172     1.1992     0.2288     2.1298     1.0971   366.0800     1.7638     0.5546
 1146   22.900   5856.71     1.7285     0.0169     1.1539     0.2290     2.2220     1.0022   366.4000     1.8556     0.5099
 1147   22.920   5857.73     1.8370     0.0162     1.0834     0.2292     2.2989     0.9039   366.7200     1.9322     0.4507
 1148   22.940   5858.75     1.7850     0.0173     1.0772     0.2294     2.2360     0.9517   367.0400     1.8690     0.4519
 1149   22.960   5859.83     1.6980     0.0176     1.1394     0.2296     2.1702     1.0316   367.3600     1.8029     0.4963
 1150   22.980   5860.87     1.6698     0.0168     1.1768     0.2298     2.1604     1.0030   367.6800     1.7927     0.5233
 1151   23.000   5861.88     1.6612     0.0143     1.1699     0.2300     2.1528     0.8655   368.0000     1.7848     0.5269
 1152   23.020   5862.91     1.6671     0.0148     1.1521     0.2302     2.1528     0.8858   368.3200     1.7845     0.5190
 1153   23.040   5863.92     1.6442     0.0160     1.1663     0.2304     2.1315     0.9619   368.6400     1.7628     0.5274
 1154   23.060   5864.92     1.6369     0.0156     1.1869     0.2306     2.1310     0.9549   368.9600     1.7621     0.5367
 1155   23.080   5865.98     1.6693     0.0158     1.1654     0.2308     2.1608     0.9512   369.2800     1.7915     0.5243
 1156   23.100   5867.02     1.6865     0.0147     1.1518     0.2310     2.1731     0.8779   369.6000     1.8035     0.5143
 1157   23.120   5868.05     1.6885     0.0146     1.1315     0.2312     2.1634     0.8606   369.9200     1.7935     0.5016
 1158   23.140   5869.08     1.6321     0.0141     1.1711     0.2314     2.1110     0.8491   370.2400     1.7407     0.5221
 1159   23.160   5870.10     1.6231     0.0131     1.1834     0.2316     2.1179     0.8073   370.5600     1.7473     0.5417
 1160   23.180   5871.12     1.6175     0.0140     1.2059     0.2318     2.1178     0.8623   370.8800     1.7469     0.5491
 1161   23.200   5872.17     1.6135     0.0125     1.2369     0.2320     2.1337     0.7772   371.2000     1.7625     0.5712
 1162   23.220   5873.28     1.6466     0.0117     1.2236     0.2322     2.1621     0.7146   371.5200     1.7906     0.5559
 1163   23.240   5874.27     1.7025     0.0104     1.1924     0.2324     2.2117     0.6198   371.8400     1.8398     0.5327
 1164   23.260   5875.31     1.7174     0.0093     1.1683     0.2326     2.2024     0.5403   372.1600     1.8302     0.5039
 1165   23.280   5876.25     1.6516     0.0098     1.1894     0.2328     2.1499     0.5826   372.4800     1.7774     0.5365
 1166   23.300   5877.31     1.6103     0.0104     1.1877     0.2330     2.1110     0.6417   372.8000     1.7382     0.5518
 1167   23.320   5878.37     1.5682     0.0109     1.1574     0.2332     2.0595     0.6894   373.1200     1.6864     0.5555
 1168   23.340   5879.43     1.5584     0.0113     1.1525     0.2334     2.0431     0.7253   373.4400     1.6697     0.5515
 1169   23.360   5880.40     1.5875     0.0118     1.1518     0.2336     2.0699     0.7435   373.7600     1.6962     0.5395
 1170   23.380   5881.46     1.6174     0.0125     1.1534     0.2338     2.1016     0.7734   374.0800     1.7275     0.5320
 1171   23.400   5882.46     1.6353     0.0133     1.1459     0.2340     2.1153     0.8197   374.4000     1.7409     0.5221
 1172   23.420   5883.46     1.6406     0.0144     1.1161     0.2342     2.1146     0.8772   374.7200     1.7399     0.5141
 1173   23.440   5884.48     1.6775     0.0146     1.1460     0.2344     2.1555     0.8798   375.0400     1.7805     0.5075
 1174   23.460   5885.50     1.7087     0.0138     1.1640     0.2346     2.1940     0.8113   375.3600     1.8186     0.5064
 1175   23.480   5886.56     1.7188     0.0142     1.1585     0.2348     2.2000     0.8302   375.6800     1.8243     0.4992
 1176   23.500   5887.63     1.7069     0.0146     1.1725     0.2350     2.1970     0.8549   376.0000     1.8210     0.5117
 1177   23.520   5888.67     1.7082     0.0151     1.1864     0.2352     2.2046     0.8872   376.3200     1.8283     0.5178
 1178   23.540   5889.67     1.7215     0.0156     1.1781     0.2354     2.2192     0.9111   376.6400     1.8426     0.5153
 1179   23.560   5890.70     1.7327     0.0155     1.1617     0.2356     2.2219     0.8971   376.9600     1.8449     0.5036
 1180   23.580   5891.71     1.6731     0.0157     1.2077     0.2358     2.1750     0.9250   377.2800     1.7978     0.5336
 1181   23.600   5892.77     1.6454     0.0159     1.2335     0.2360     2.1611     0.9634   377.6000     1.7835     0.5561
 1182   23.620   5893.83     1.6646     0.0160     1.2388     0.2362     2.1865     0.9642   377.9200     1.8086     0.5564
 1183   23.640   5894.86     1.6874     0.0148     1.2226     0.2364     2.2016     0.8774   378.2400     1.8233     0.5418
 1184   23.660   5895.89     1.6794     0.0159     1.2185     0.2366     2.1882     0.9430   378.5600     1.8097     0.5387
 1185   23.680   5896.90     1.6560     0.0151     1.2301     0.2368     2.1676     0.9111   378.8800     1.7887     0.5487
 1186   23.700   5897.91     1.6594     0.0151     1.2287     0.2370     2.1789     0.9120   379.2000     1.7997     0.5556
 1187   23.720   5898.97     1.6547     0.0151     1.2753     0.2372     2.1827     0.9116   379.5200     1.8032     0.5656
 1188   23.740   5900.02     1.6630     0.0153     1.2689     0.2374     2.1985     0.9238   379.8400     1.8186     0.5704
 1189   23.760   5901.06     1.6547     0.0163     1.2888     0.2376     2.1936     0.9811   380.1600     1.8135     0.5765
 1190   23.780   5902.07     1.6669     0.0175     1.2789     0.2378     2.2052     1.0512   380.4800     1.8247     0.5720
 1191   23.800   5903.10     1.6643     0.0180     1.2690     0.2380     2.1973     1.0844   380.8000     1.8165     0.5676
 1192   23.820   5904.14     1.6781     0.0181     1.2718     0.2382     2.2132     1.0848   381.1200     1.8320     0.5653
 1193   23.840   5905.18     1.6933     0.0180     1.2625     0.2384     2.2236     1.0636   381.4400     1.8421     0.5559
 1194   23.860   5906.20     1.6981     0.0184     1.2520     0.2386     2.2286     1.0887   381.7600     1.8468     0.5547
 1195   23.880   5907.25     1.6932     0.0185     1.2385     0.2388     2.2171     1.0886   382.0800     1.8351     0.5497
 1196   23.900   5908.26     1.6815     0.0189     1.2582     0.2390     2.2067     1.1163   382.4000     1.8243     0.5545
 1197   23.920   5909.25     1.6986     0.0189     1.2575     0.2392     2.2267     1.1173   382.7200     1.8440     0.5523
 1198   23.940   5910.30     1.6829     0.0173     1.2557     0.2394     2.2091     1.0207   383.0400     1.8260     0.5549
 1199   23.960   5911.32     1.6455     0.0158     1.2744     0.2396     2.1808     0.9522   383.3600     1.7975     0.5758
 1200   23.980   5912.41     1.6460     0.0154     1.2586     0.2398     2.1831     0.9345   383.6800     1.7994     0.5774
 1201   24.000   5913.39     1.6431     0.0143     1.2487     0.2400     2.1659     0.8685   384.0000     1.7819     0.5638
 1202   24.020   5914.44     1.6364     0.0137     1.2520     0.2402     2.1579     0.8378   384.3200     1.7736     0.5647
 1203   24.040   5915.46     1.6210     0.0124     1.2625     0.2404     2.1515     0.7646   384.6400     1.7668     0.5788
 1204   24.060   5916.50     1.6338     0.0124     1.2475     0.2406     2.1640     0.7590   384.9600     1.7790     0.5743
 1205   24.080   5917.53     1.6280     0.0122     1.2313     0.2408     2.1483     0.7483   385.2800     1.7630     0.5661
 1206   24.100   5918.59     1.6377     0.0122     1.2068     0.2410     2.1457     0.7471   385.6000     1.7601     0.5502
 1207   24.120   5919.60     1.5927     0.0130     1.2166     0.2412     2.1062     0.8096   385.9200     1.7202     0.5705
 1208   24.140   5920.63     1.5768     0.0143     1.2086     0.2414     2.0877     0.9066   386.2400     1.7015     0.5731
 1209   24.160   5921.69     1.6215     0.0147     1.1943     0.2416     2.1245     0.9154   386.5600     1.7379     0.5501
 1210   24.180   5922.71     1.6538     0.0138     1.2008     0.2418     2.1589     0.8492   386.8800     1.7720     0.5422
 1211   24.200   5923.81     1.7194     0.0131     1.1756     0.2420     2.2176     0.7735   387.2000     1.8304     0.5158
 1212   24.220   5924.82     1.7530     0.0137     1.1348     0.2422     2.2374     0.7794   387.5200     1.8499     0.4926
 1213   24.240   5925.85     1.8041     0.0143     1.0706     0.2424     2.2615     0.8012   387.8400     1.8737     0.4520
 1214   24.260   5926.88     1.7474     0.0145     1.1127     0.2426     2.2032     0.8285   388.1600     1.8151     0.4642
 1215   24.280   5927.89     1.6799     0.0142     1.1397     0.2428     2.1634     0.8415   388.4800     1.7749     0.5119
 1216   24.300   5928.98     1.6981     0.0145     1.1592     0.2430     2.1778     0.8519   388.8000     1.7890     0.5027
 1217   24.320   5934.97     1.7066     0.0140     1.1348     0.2432     2.1880     0.8289   389.1200     1.7988     0.5022
 1218   24.340   5953.54     1.7582     0.0121     1.1021     0.2434     2.2258     0.7132   389.4400     1.8364     0.4744
 1219   24.360   5971.42     1.8059     0.0117     1.0799     0.2436     2.2603     0.6470   389.7600     1.8705     0.4481
 1220   24.380   5972.47     1.7494     0.0121     1.1232     0.2438     2.2025     0.6794   390.0800     1.8124     0.4607
 1221   24.400   5973.49     1.6919     0.0127     1.1521     0.2440     2.1769     0.7372   390.4000     1.7865     0.5098
 1222   24.420   5974.50     1.6452     0.0125     1.2118     0.2442     2.1440     0.7522   390.7200     1.7533     0.5381
 1223   24.440   5975.53     1.6939     0.0121     1.1897     0.2444     2.1923     0.7288   391.0400     1.8012     0.5231
 1224   24.460   5976.58     1.7100     0.0133     1.1880     0.2446     2.2106     0.7796   391.3600     1.8192     0.5206
 1225   24.480   5977.62     1.6920     0.0140     1.2028     0.2448     2.1972     0.8246   391.6800     1.8056     0.5306
 1226   24.500   5978.66     1.7119     0.0139     1.2188     0.2450     2.2220     0.8170   392.0000     1.8300     0.5298
 1227   24.520   5979.67     1.7158     0.0147     1.2047     0.2452     2.2249     0.8539   392.3200     1.8326     0.5276
 1228   24.540   5980.69     1.7138     0.0149     1.1803     0.2454     2.2126     0.8644   392.6400     1.8199     0.5177
 1229   24.560   5981.70     1.7280     0.0149     1.1525     0.2456     2.2149     0.8638   392.9600     1.8219     0.5015
 1230   24.580   5982.77     1.7841     0.0129     1.1207     0.2458     2.2649     0.7363   393.2800     1.8716     0.4804
 1231   24.600   5983.80     1.7952     0.0112     1.0731     0.2460     2.2513     0.6183   393.6000     1.8577     0.4522
 1232   24.620   5984.84     1.7455     0.0116     1.0765     0.2462     2.1968     0.6505   393.9200     1.8029     0.4595
 1233   24.640   5985.86     1.6809     0.0126     1.0700     0.2464     2.1307     0.7330   394.2400     1.7365     0.4748
 1234   24.660   5986.90     1.6097     0.0122     1.1312     0.2466     2.0769     0.7439   394.5600     1.6823     0.5146
 1235   24.680   5987.96     1.6275     0.0122     1.1199     0.2468     2.0987     0.7522   394.8800     1.7038     0.5136
 1236   24.700   5989.00     1.6068     0.0120     1.0921     0.2470     2.0659     0.7464   395.2000     1.6707     0.5064
 1237   24.720   5990.05     1.5818     0.0136     1.1231     0.2472     2.0505     0.8529   395.5200     1.6550     0.5250
 1238   24.740   5991.05     1.5598     0.0153     1.1249     0.2474     2.0303     0.9757   395.8400     1.6345     0.5340
 1239   24.760   5992.09     1.5422     0.0156     1.1463     0.2476     2.0206     1.0100   396.1600     1.6244     0.5488
 1240   24.780   5993.13     1.5593     0.0131     1.1478     0.2478     2.0359     0.8454   396.4800     1.6394     0.5411
 1241   24.800   5994.17     1.5755     0.0143     1.1439     0.2480     2.0576     0.9116   396.8000     1.6608     0.5418
 1242   24.820   5995.23     1.6095     0.0160     1.1265     0.2482     2.0850     1.0106   397.1200     1.6879     0.5238
 1243   24.840   5996.24     1.6733     0.0160     1.1497     0.2484     2.1533     0.9601   397.4400     1.7558     0.5094
 1244   24.860   5997.29     1.7663     0.0167     1.1383     0.2486     2.2508     0.9483   397.7600     1.8530     0.4885
 1245   24.880   5998.27     1.8680     0.0164     1.0158     0.2488     2.3184     0.9009   398.0800     1.9203     0.4290
 1246   24.900   5999.36     1.8984     0.0139     0.9984     0.2490     2.3183     0.7303   398.4000     1.9199     0.3911
 1247   24.920   6000.35     1.8855     0.0129     0.9920     0.2492     2.3065     0.6761   398.7200     1.9077     0.3947
 1248   24.940   6001.35     1.7873     0.0134     1.0313     0.2494     2.2141     0.7253   399.0400     1.8150     0.4224
 1249   24.960   6002.42     1.6691     0.0139     1.0933     0.2496     2.1192     0.8044   399.3600     1.7198     0.4780
 1250   24.980   6003.46     1.6261     0.0128     1.1235     0.2498     2.0879     0.7801   399.6800     1.6882     0.5034
 1251   25.000   6004.47     1.5931     0.0131     1.1184     0.2500     2.0601     0.8187   400.0000     1.6601     0.5192
 1252   25.020   6005.46     1.5525     0.0131     1.1129     0.2502     2.0211     0.8411   400.3200     1.6208     0.5341
 1253   25.040   6006.53     1.5108     0.0123     1.1372     0.2504     1.9892     0.8001   400.6400     1.5885     0.5593
 1254   25.060   6007.55     1.4723     0.0125     1.1722     0.2506     1.9613     0.8322   400.9600     1.5603     0.5857
 1255   25.080   6008.60     1.4549     0.0125     1.1645     0.2508     1.9431     0.8608   401.2800     1.5419     0.5912
 1256   25.100   6009.63     1.4731     0.0111     1.1744     0.2510     1.9667     0.7574   401.6000     1.5651     0.5905
 1257   25.120   6010.68     1.4982     0.0112     1.1736     0.2512     1.9889     0.7499   401.9200     1.5870     0.5778
 1258   25.140   6011.68     1.4977     0.0112     1.1495     0.2514     1.9878     0.7530   402.2400     1.5855     0.5774
 1259   25.160   6012.73     1.5077     0.0104     1.1451     0.2516     1.9897     0.6923   402.5600     1.5872     0.5645
 1260   25.180   6013.81     1.4942     0.0101     1.1476     0.2518     1.9758     0.6732   402.8800     1.5729     0.5689
 1261   25.200   6014.81     1.4971     0.0103     1.1247     0.2520     1.9769     0.6873   403.2000     1.5737     0.5658
 1262   25.220   6015.87     1.5028     0.0096     1.1141     0.2522     1.9659     0.6383   403.5200     1.5624     0.5442
 1263   25.240   6016.94     1.5259     0.0092     1.1170     0.2524     1.9997     0.6047   403.8400     1.5959     0.5487
 1264   25.260   6017.97     1.5677     0.0091     1.0936     0.2526     2.0338     0.5859   404.1600     1.6297     0.5260
 1265   25.280   6018.97     1.6190     0.0083     1.0672     0.2528     2.0690     0.5185   404.4800     1.6645     0.4918
 1266   25.300   6020.03     1.6353     0.0091     1.0378     0.2530     2.0705     0.5554   404.8000     1.6657     0.4702
 1267   25.320   6021.05     1.5748     0.0096     1.0385     0.2532     2.0082     0.5988   405.1200     1.6031     0.4860
 1268   25.340   6022.13     1.4797     0.0099     1.0291     0.2534     1.9123     0.6597   405.4400     1.5068     0.5155
 1269   25.360   6023.15     1.4141     0.0102     1.0749     0.2536     1.8564     0.7109   405.7600     1.4507     0.5512
 1270   25.380   6024.16     1.3644     0.0120     1.1129     0.2538     1.8267     0.8741   406.0800     1.4206     0.5962
 1271   25.400   6025.24     1.3598     0.0126     1.1374     0.2540     1.8364     0.9301   406.4000     1.4300     0.6159
 1272   25.420   6026.26     1.3552     0.0133     1.1394     0.2542     1.8313     0.9842   406.7200     1.4246     0.6173
 1273   25.440   6027.30     1.3497     0.0130     1.1522     0.2544     1.8330     0.9613   407.0400     1.4259     0.6286
 1274   25.460   6028.30     1.3477     0.0131     1.1623     0.2546     1.8325     0.9754   407.3600     1.4251     0.6314
 1275   25.480   6029.37     1.3243     0.0133     1.1864     0.2548     1.8226     0.9932   407.6800     1.4150     0.6586
 1276   25.500   6030.37     1.3315     0.0124     1.1737     0.2550     1.8262     0.9379   408.0000     1.4182     0.6507
 1277   25.520   6031.42     1.3085     0.0126     1.1926     0.2552     1.8084     0.9587   408.3200     1.4001     0.6679
 1278   25.540   6032.46     1.3489     0.0132     1.1687     0.2554     1.8415     0.9951   408.6400     1.4329     0.6404
 1279   25.560   6033.49     1.3799     0.0143     1.1620     0.2556     1.8698     1.0395   408.9600     1.4608     0.6234
 1280   25.580   6034.54     1.3894     0.0148     1.1987     0.2558     1.8872     1.0661   409.2800     1.4779     0.6289
 1281   25.600   6035.56     1.4219     0.0140     1.1862     0.2560     1.9251     0.9959   409.6000     1.5155     0.6218
 1282   25.620   6036.61     1.4362     0.0131     1.1931     0.2562     1.9379     0.9101   409.9200     1.5280     0.6141
 1283   25.640   6037.63     1.4335     0.0128     1.1879     0.2564     1.9319     0.8921   410.2400     1.5216     0.6113
 1284   25.660   6038.72     1.4292     0.0131     1.1987     0.2566     1.9334     0.9195   410.5600     1.5228     0.6197
 1285   25.680   6039.78     1.4747     0.0126     1.1880     0.2568     1.9746     0.8631   410.8800     1.5637     0.5970
 1286   25.700   6040.79     1.5046     0.0109     1.1679     0.2570     2.0002     0.7299   411.2000     1.5890     0.5809
 1287   25.720   6041.85     1.5268     0.0101     1.1364     0.2572     2.0047     0.6595   411.5200     1.5932     0.5527
 1288   25.740   6042.88     1.4754     0.0105     1.1493     0.2574     1.9594     0.6928   411.8400     1.5475     0.5783
 1289   25.760   6043.91     1.4405     0.0108     1.1466     0.2576     1.9257     0.7430   412.1600     1.5135     0.5931
 1290   25.780   6044.94     1.4248     0.0109     1.1426     0.2578     1.9028     0.7621   412.4800     1.4904     0.5908
 1291   25.800   6045.97     1.3911     0.0115     1.1406     0.2580     1.8715     0.8155   412.8000     1.4587     0.6073
 1292   25.820   6047.02     1.3652     0.0112     1.1318     0.2582     1.8413     0.8189   413.1200     1.4282     0.6129
 1293   25.840   6048.09     1.4057     0.0102     1.0995     0.2584     1.8755     0.7347   413.4400     1.4621     0.5884
 1294   25.860   6049.12     1.4162     0.0113     1.1245     0.2586     1.8820     0.7972   413.7600     1.4683     0.5792
 1295   25.880   6050.17     1.4507     0.0107     1.1132     0.2588     1.9232     0.7443   414.0800     1.5091     0.5740
 1296   25.900   6051.20     1.4558     0.0118     1.1206     0.2590     1.9249     0.8027   414.4000     1.5105     0.5680
 1297   25.920   6052.24     1.4438     0.0107     1.1315     0.2592     1.9154     0.7360   414.7200     1.5007     0.5756
 1298   25.940   6053.26     1.4438     0.0101     1.1446     0.2594     1.9239     0.6994   415.0400     1.5088     0.5857
 1299   25.960   6054.30     1.4238     0.0089     1.1559     0.2596     1.9123     0.6217   415.3600     1.4969     0.6035
 1300   25.980   6055.33     1.4659     0.0087     1.1217     0.2598     1.9398     0.6038   415.6800     1.5242     0.5699
 1301   26.000   6056.42     1.4041     0.0082     1.1172     0.2600     1.8701     0.5794   416.0000     1.4541     0.5843
 1302   26.020   6057.46     1.3883     0.0086     1.1255     0.2602     1.8631     0.6198   416.3200     1.4468     0.6016
 1303   26.040   6058.51     1.4800     0.0079     1.1147     0.2604     1.9507     0.5408   416.6400     1.5341     0.5609
 1304   26.060   6059.54     1.4734     0.0081     1.0452     0.2606     1.9219     0.5464   416.9600     1.5050     0.5364
 1305   26.080   6060.56     1.4268     0.0092     1.0516     0.2608     1.8636     0.6349   417.2800     1.4463     0.5388
 1306   26.100   6061.62     1.4476     0.0101     1.0595     0.2610     1.8931     0.6982   417.6000     1.4755     0.5420
 1307   26.120   6062.66     1.4733     0.0110     1.0302     0.2612     1.9110     0.7616   417.9200     1.4931     0.5231
 1308   26.140   6063.71     1.4286     0.0119     1.0219     0.2614     1.8561     0.8322   418.2400     1.4379     0.5261
 1309   26.160   6064.77     1.3639     0.0125     1.0578     0.2616     1.8024     0.9140   418.5600     1.3839     0.5655
 1310   26.180   6065.81     1.3155     0.0126     1.0918     0.2618     1.7719     0.9572   418.8800     1.3530     0.6095
 1311   26.200   6080.99     1.3239     0.0127     1.0893     0.2620     1.7818     0.9678   419.2000     1.3626     0.6079
 1312   26.220   6098.26     1.3364     0.0108     1.0868     0.2622     1.7932     0.8253   419.5200     1.3737     0.6010
 1313   26.240   6115.53     1.3489     0.0105     1.0889     0.2624     1.8047     0.7993   419.8400     1.3848     0.5942
 1314   26.260   6118.30     1.3534     0.0110     1.1032     0.2626     1.8160     0.8144   420.1600     1.3958     0.6010
 1315   26.280   6119.36     1.3994     0.0108     1.0960     0.2628     1.8570     0.7907   420.4800     1.4366     0.5756
 1316   26.300   6120.37     1.4326     0.0120     1.1049     0.2630     1.8973     0.8447   420.8000     1.4765     0.5713
 1317   26.320   6121.48     1.5297     0.0124     1.0673     0.2632     1.9816     0.8346   421.1200     1.5604     0.5208
 1318   26.340   6122.53     1.6387     0.0110     1.0479     0.2634     2.0834     0.6941   421.4400     1.6619     0.4786
 1319   26.360   6123.55     1.7061     0.0109     1.0100     0.2636     2.1420     0.6430   421.7600     1.7202     0.4500
 1320   26.380   6124.59     1.7119     0.0133     0.9830     0.2638     2.1293     0.7782   422.0800     1.7072     0.4276
 1321   26.400   6125.60     1.8067     0.0141     0.9621     0.2640     2.2075     0.7868   422.4000     1.7851     0.3866
 1322   26.420   6126.64     1.8363     0.0139     0.9640     0.2642     2.2441     0.7693   422.7200     1.8214     0.3881
 1323   26.440   6127.67     1.9080     0.0151     0.9745     0.2644     2.3148     0.8064   423.0400     1.8917     0.3722
 1324   26.460   6128.74     2.0776     0.0139     0.9747     0.2646     2.4910     0.7003   423.3600     2.0677     0.3483
 1325   26.480   6129.77     2.3195     0.0126     0.9357     0.2648     2.7169     0.5686   423.6800     2.2932     0.2973
 1326   26.500   6130.82     2.6025     0.0154     0.9138     0.2650     2.9895     0.6199   424.0000     2.5655     0.2562
 1327   26.520   6131.89     3.1276     0.0160     0.8764     0.2652     3.5032     0.5447   424.3200     3.0789     0.2044
 1328   26.540   6132.90     3.5992     0.0145     0.7834     0.2654     3.9401     0.4184   424.6400     3.5155     0.1554
 1329   26.560   6133.94     3.7596     0.0157     0.7484     0.2656     4.0780     0.4211   424.9600     3.6531     0.1349
 1330   26.580   6134.97     3.8303     0.0196     0.7272     0.2658     4.1398     0.5130   425.2800     3.7146     0.1268
 1331   26.600   6136.06     3.7866     0.0216     0.7671     0.2660     4.1008     0.5718   425.6000     3.6752     0.1312
 1332   26.620   6137.10     4.0283     0.0215     0.7398     0.2662     4.3460     0.5426   425.9200     3.9201     0.1252
 1333   26.640   6138.17     4.4277     0.0229     0.7172     0.2664     4.7338     0.5325   426.2400     4.3076     0.1075
 1334   26.660   6139.21     5.2265     0.0296     0.6222     0.2666     5.5082     0.5850   426.5600     5.0816     0.0800
 1335   26.680   6140.32     6.3697     0.0345     0.4550     0.2668     6.5799     0.5562   426.8800     6.1530     0.0382
 1336   26.700   6141.35     7.3095     0.0367     0.3948     0.2670     7.4773     0.5130   427.2000     7.0501     0.0188
 1337   26.720   6142.41     8.1546     0.0415     0.3792     0.2672     8.3138     0.5159   427.5200     7.8863     0.0142
 1338   26.740   6143.50     8.9395     0.0495     0.3514     0.2674     9.0897     0.5570   427.8400     8.6619     0.0104
 1339   26.760   6144.64     9.7209     0.0673     0.3433     0.2676     9.8643     0.6976   428.1600     9.4362     0.0078
 1340   26.780   6145.69    10.3170     0.0860     0.2750     0.2678    10.4367     0.8383   428.4800    10.0082     0.0017
 1341   26.800   6146.76    10.7662     0.0927     0.3096     0.2680    10.8921     0.8669   428.8000    10.4633     0.0030
 1342   26.820   6147.84    11.6636     0.0918     0.2827     0.2682    11.7847     0.7934   429.1200    11.3556     0.0018
 1343   26.840   6148.96    12.8852     0.0927     0.3120     0.2684    13.0127     0.7287   429.4400    12.5833     0.0028
 1344   26.860   6150.10    14.5913     0.0947     0.2179     0.2686    14.6987     0.6675   429.7600    14.2690    -0.0009
 1345   26.880   6151.17    17.0881     0.0865    -0.0509     0.2688    17.1051     0.5459   430.0800    16.6750    -0.0136
 1346   26.900   6152.23    20.0527     0.0789    -0.2218     0.2690    19.9713     0.4150   430.4000    19.5409    -0.0236
 1347   26.920   6153.32    22.9933     0.0798    -0.1786     0.2692    22.9095     0.3680   430.7200    22.4788    -0.0209
 1348   26.940   6154.44    26.0120     0.0825    -0.1982     0.2694    25.9144     0.3399   431.0400    25.4833    -0.0197
 1349   26.960   6155.48    28.5482     0.0857    -0.1399     0.2696    28.4871     0.3142   431.3600    28.0557    -0.0148
 1350   26.980   6158.76    28.6674     0.0952    -0.1172     0.2698    28.6394     0.3220   431.6800    28.2078    -0.0119
 1351   27.000   6159.88    32.4578     0.1048    -0.1588     0.2700    32.3935     0.3302   432.0000    31.9615    -0.0132
 1352   27.020   6161.08    34.0351     0.1166    -0.1248     0.2702    33.9799     0.3496   432.3200    33.5476    -0.0120
 1353   27.040   6163.60    35.7892     0.1149    -0.1056     0.2704    35.7420     0.3386   432.6400    35.3094    -0.0109
 1354   27.060   6166.12    37.5433     0.1019    -0.0869     0.2706    37.5041     0.3003   432.9600    37.0712    -0.0098
 1355   27.080   6168.76    39.1796     0.0799    -0.0897     0.2708    39.1423     0.2095   433.2800    38.7090    -0.0093
 1356   27.100   6171.46    40.7588     0.0788    -0.0924     0.2710    40.7204     0.2068   433.6000    40.2868    -0.0090
 1357   27.120   6173.12    42.3964     0.0793     0.0343     0.2712    42.4083     0.1887   433.9200    41.9743    -0.0058
 1358   27.140   6174.18    43.9737     0.0887    -0.0045     0.2714    43.9693     0.2052   434.2400    43.5350    -0.0065
 1359   27.160   6175.25    44.5716     0.0984    -0.0193     0.2716    44.5750     0.2225   434.5600    44.1405    -0.0060
 1360   27.180   6176.32    44.0312     0.1120    -0.1361     0.2718    43.9938     0.2528   434.8800    43.5589    -0.0083
 1361   27.200   6177.46    42.7472     0.1344    -0.1628     0.2720    42.6723     0.3119   435.2000    42.2371    -0.0107
 1362   27.220   6178.48    42.3768     0.1526    -0.1443     0.2722    42.3093     0.3602   435.5200    41.8738    -0.0103
 1363   27.240   6182.36    42.5868     0.1687    -0.0531     0.2724    42.5507     0.3969   435.8400    42.1149    -0.0085
 1364   27.260   6188.32    42.7279     0.1817     0.0417     0.2726    42.7317     0.4275   436.1600    42.2956    -0.0062
 1365   27.280   6193.56    42.9170     0.1885     0.1097     0.2728    42.9573     0.4417   436.4800    42.5208    -0.0042
 1366   27.300   6194.65    42.9075     0.1913     0.1515     0.2730    42.9623     0.4448   436.8000    42.5255    -0.0034
 1367   27.320   6195.74    42.3930     0.2016     0.2204     0.2732    42.4767     0.4726   437.1200    42.0396    -0.0018
 1368   27.340   6196.77    41.6163     0.2149     0.2564     0.2734    41.7201     0.5124   437.4400    41.2826    -0.0006
 1369   27.360   6197.77    40.9177     0.2172     0.2757     0.2736    41.0317     0.5272   437.7600    40.5939    -0.0001
 1370   27.380   6198.77    40.3574     0.2120     0.2626     0.2738    40.4726     0.5226   438.0800    40.0346     0.0000
 1371   27.400   6199.84    40.0257     0.2100     0.2580     0.2740    40.1388     0.5248   438.4000    39.7004    -0.0001
 1372   27.420   6200.88    40.7762     0.2105     0.2373     0.2742    40.8788     0.5204   438.7200    40.4400    -0.0007
 1373   27.440   6202.01    42.0458     0.2077     0.2633     0.2744    42.1498     0.4992   439.0400    41.7108    -0.0006
 1374   27.460   6203.02    42.7182     0.2014     0.2273     0.2746    42.8196     0.4740   439.3600    42.3802    -0.0008
 1375   27.480   6204.06    42.8620     0.1882     0.2093     0.2748    42.9497     0.4392   439.6800    42.5100    -0.0015
 1376   27.500   6205.12    42.7762     0.1736     0.2305     0.2750    42.8755     0.4045   440.0000    42.4355    -0.0009
 1377   27.520   6206.17    41.8386     0.1643     0.2357     0.2752    41.9458     0.3921   440.3200    41.5055    -0.0005
 1378   27.540   6207.21    40.6114     0.1542     0.2161     0.2754    40.6959     0.3755   440.6400    40.2552    -0.0018
 1379   27.560   6208.21    38.9515     0.1317     0.2030     0.2756    39.0400     0.3327   440.9600    38.5990    -0.0017
 1380   27.580   6209.24    37.4579     0.1154     0.1673     0.2758    37.5309     0.3032   441.2800    37.0896    -0.0028
 1381   27.600   6210.22    36.1178     0.1038     0.1910     0.2760    36.1970     0.2835   441.6000    35.7554    -0.0024
 1382   27.620   6211.21    34.7702     0.0950     0.1755     0.2762    34.8448     0.2711   441.9200    34.4029    -0.0029
 1383   27.640   6212.29    34.4460     0.0914     0.1970     0.2764    34.5301     0.2651   442.2400    34.0878    -0.0022
 1384   27.660   6213.38    34.8961     0.0879     0.1618     0.2766    34.9690     0.2515   442.5600    34.5264    -0.0030
 1385   27.680   6214.42    35.7356     0.0865     0.1689     0.2768    35.8035     0.2419   442.8800    35.3606    -0.0033
 1386   27.700   6215.49    37.0539     0.0851     0.1625     0.2770    37.1219     0.2323   443.2000    36.6787    -0.0031
 1387   27.720   6216.54    38.3948     0.0833     0.1644     0.2772    38.4568     0.2202   443.5200    38.0133    -0.0034
 1388   27.740   6217.63    40.1670     0.0850     0.1668     0.2774    40.2367     0.2154   443.8400    39.7929    -0.0028
 1389   27.760   6218.88    41.4938     0.0902     0.1685     0.2776    41.5654     0.2198   444.1600    41.1212    -0.0026
 1390   27.780   6220.74    42.2574     0.0994     0.1630     0.2778    42.3267     0.2408   444.4800    41.8822    -0.0027
 1391   27.800   6222.59    43.0211     0.1010     0.1575     0.2780    43.0881     0.2445   444.8000    42.6433    -0.0028
 1392   27.820   6224.22    43.6354     0.1117     0.1820     0.2782    43.7055     0.2562   445.1200    43.2604    -0.0026
 1393   27.840   6225.29    44.1142     0.1174     0.2025     0.2784    44.1921     0.2665   445.4400    43.7466    -0.0021
 1394   27.860   6226.34    44.7880                0.1894     0.2786    44.8707              445.7600    44.4249    -0.0018
 1395   27.880   6227.40    45.3219                0.2360     0.2788    45.4091              446.0800    44.9630    -0.0016
 1396   27.900   6228.50    46.1393                0.1964     0.2790    46.2274              446.4000    45.7810    -0.0015
 1397   27.920   6229.63    47.1158                0.2161     0.2792    47.2044              446.7200    46.7577    -0.0015
 1398   27.940   6230.73    49.1458                0.2000     0.2794    49.2291              447.0400    48.7821    -0.0017
 1399   27.959   6232.44    52.7997                           0.2796    52.9168              447.3377    52.4695     0.0000
 
 
