

 Program UNIPLOT                         version 05.36.02
 _______________
 (c) Fugro Netherlands Marine, Nootdorp, The Netherlands


 ASCII representation of data plotted on a graph.

 This ASCII file presents data interpolated to values per fixed depth interval.
 The data are corrected for the depth-offset differences between the various 
 transducers in the penetrometer.

 The records at the start of penetration may include no values or anomalous
 values where a depth offset implies incomplete penetration of a particular
 sensor into the ground.

 The records at the end of penetration may include no values for data channels
 where the transducer did not reach this depth.

 The reference level for test values is (1) the ground surface for onshore tests and (2) the seafloor for nearshore and offshore tests.

 UNICAS data file          : CPT-2001.000                            
 Output using command file : PlotASCII.cmd

 ASCII file created at : date          :16-Jul-2022
                         time          :12:24:33
 Project number                        :20024805                                                                                            
 Date of testing                       :15-Jul-2022                                                                                         
 Location                              :Hong Kong Offshore Wind Farm Project                                                                
 Test name                             :CPT-2001
 Penetrometer                          :F7.5CKE2HAW2/B/3285
 Serial no                             :1701-3285

 Table description:
 Column ID                             :Parameter name
 ___________________________________________________________________________________
 Rec                                   :Record ID, Record ID [-]
 Depth                                 :Depth, Depth [m]
 Time                                  :Time, Time [s]
 Cone                                  :Cone Resistance, Cone Resistance [MPa]
 Friction                              :Sleeve Friction, Sleeve Friction [MPa]
 Pore 2                                :Porewater Pressure, Porewater Pressure at Shoulder [MPa]
 HydroPress                            :Hydrostatic Pressure, Hydrostatic Pressure [MPa]
 qt                                    :Total Cone Resistance, Total Cone Resistance [MPa]
 Fric_ratio                            :Friction Ratio, Friction Ratio [%]
 SigmaVert                             :Vertical stress, Vertical stress [kPa] as specified in ground model
 Qnet                                  :Net Cone Resistance, Net Cone Resistance [MPa], unit weight as specified in ground model
 Bq                                    :Porewater Pressure Ratio, Porewater Pressure Ratio [-], unit weight as specified in ground model


 Data table:
  Rec    Depth      Time       Cone   Friction     Pore 2 HydroPress         qt Fric_ratio  SigmaVert       Qnet         Bq
   No        m         s        MPa        MPa        MPa        MPa        MPa          %        kPa        MPa          -
    1    0.000   1754.41     0.0000                           0.0000     0.0000                0.0000     0.0000           
    2    0.020   1755.36     0.0084                0.0005     0.0002     0.0086                0.3200     0.0083     0.0251
    3    0.040   1756.36     0.0072                0.0010     0.0004     0.0076                0.6400     0.0069     0.0700
    4    0.060   1757.29     0.0096                0.0007     0.0006     0.0100                0.9600     0.0090     0.0434
    5    0.080   1758.25     0.0099               -0.0005     0.0008     0.0099                1.2800     0.0086    -0.0975
    6    0.100   1759.23     0.0098               -0.0025     0.0010     0.0089                1.6000     0.0073    -0.4946
    7    0.120   1760.20     0.0103     0.0008    -0.0027     0.0012     0.0093     8.1715     1.9200     0.0074    -0.5072
    8    0.140   1762.87     0.0109     0.0013    -0.0017     0.0014     0.0101    11.8500     2.2400     0.0078    -0.4483
    9    0.160   1765.93     0.0111     0.0011    -0.0008     0.0016     0.0107    10.4312     2.5600     0.0081    -0.3501
   10    0.180   1768.99     0.0113     0.0008     0.0001     0.0018     0.0112     7.0954     2.8800     0.0083    -0.2518
   11    0.200   1772.04     0.0115     0.0009     0.0011     0.0020     0.0118     8.2083     3.2000     0.0086    -0.1536
   12    0.220   1774.64     0.0113     0.0011     0.0018     0.0022     0.0120     9.7975     3.5200     0.0085    -0.0734
   13    0.240   1775.62     0.0087     0.0010     0.0024     0.0024     0.0096    11.1540     3.8400     0.0058    -0.0236
   14    0.260   1776.65     0.0098     0.0010     0.0029     0.0026     0.0111     9.3747     4.1600     0.0069     0.0546
   15    0.280   1777.67     0.0106     0.0010     0.0018     0.0028     0.0115    10.5612     4.4800     0.0070    -0.0798
   16    0.300   1778.64     0.0128     0.0009     0.0024     0.0030     0.0137     6.6760     4.8000     0.0089    -0.0939
   17    0.320   1779.61     0.0110     0.0009     0.0031     0.0032     0.0121     6.9043     5.1200     0.0070    -0.0925
   18    0.340   1780.58     0.0100     0.0009     0.0043     0.0034     0.0116    10.0226     5.4400     0.0062     0.0780
   19    0.360   1781.58     0.0096     0.0010     0.0030     0.0036     0.0110    10.3323     5.7600     0.0052    -0.0383
   20    0.380   1782.57     0.0114     0.0009     0.0025     0.0038     0.0126     7.9960     6.0800     0.0065    -0.1508
   21    0.400   1783.51     0.0137     0.0009     0.0043     0.0040     0.0154     6.7535     6.4000     0.0090     0.0136
   22    0.420   1784.43     0.0130     0.0009     0.0044     0.0042     0.0152     6.6785     6.7200     0.0085     0.1082
   23    0.440   1785.41     0.0146     0.0007     0.0049     0.0044     0.0165     4.5713     7.0400     0.0095     0.0122
   24    0.460   1786.38     0.0181     0.0010     0.0041     0.0046     0.0199     6.1251     7.3600     0.0126    -0.0098
   25    0.480   1787.35     0.0203     0.0014     0.0028     0.0048     0.0218     8.3445     7.6800     0.0142    -0.0800
   26    0.500   1788.32     0.0187     0.0011     0.0017     0.0050     0.0195     6.2677     8.0000     0.0115    -0.2811
   27    0.520   1789.29     0.0219     0.0013     0.0039     0.0052     0.0230     6.0757     8.3200     0.0147    -0.1718
   28    0.540   1790.26     0.0233     0.0013     0.0031     0.0054     0.0248     6.5579     8.6400     0.0162    -0.0964
   29    0.560   1791.19     0.0238     0.0012     0.0053     0.0056     0.0255     5.1711     8.9600     0.0166    -0.0825
   30    0.580   1792.14     0.0210     0.0013     0.0078     0.0058     0.0242     5.7201     9.2800     0.0149     0.1287
   31    0.600   1793.11     0.0200     0.0013     0.0048     0.0060     0.0219     6.2691     9.6000     0.0123    -0.1287
   32    0.620   1794.09     0.0214     0.0017     0.0038     0.0062     0.0230     7.9357     9.9200     0.0131    -0.1716
   33    0.640   1795.10     0.0223     0.0016     0.0029     0.0064     0.0236     7.2507    10.2400     0.0133    -0.2598
   34    0.660   1796.61     0.0236     0.0016     0.0054     0.0066     0.0257     6.9514    10.5600     0.0151    -0.1073
   35    0.680   1800.41     0.0235     0.0016     0.0065     0.0068     0.0261     6.9865    10.8800     0.0152    -0.0448
   36    0.700   1804.22     0.0234     0.0017     0.0077     0.0070     0.0265     7.3462    11.2000     0.0153     0.0178
   37    0.720   1807.19     0.0227     0.0017     0.0076     0.0072     0.0260     7.4474    11.5200     0.0145     0.0399
   38    0.740   1808.14     0.0229     0.0015     0.0081     0.0074     0.0262     6.6511    11.8400     0.0144     0.0340
   39    0.760   1809.50     0.0228     0.0013     0.0099     0.0076     0.0268     5.9455    12.1600     0.0146     0.1282
   40    0.780   1827.80     0.0253     0.0015     0.0101     0.0078     0.0295     7.5515    12.4800     0.0170     0.1323
   41    0.800   1848.90     0.0276     0.0016     0.0108     0.0080     0.0318     7.9117    12.8000     0.0190     0.1136
   42    0.820   1851.75     0.0293     0.0016     0.0132     0.0082     0.0345     6.0456    13.1200     0.0214     0.1931
   43    0.840   1852.67     0.0309     0.0015     0.0155     0.0084     0.0371     4.6431    13.4400     0.0237     0.2723
   44    0.860   1853.64     0.0380     0.0020     0.0135     0.0086     0.0443     5.4694    13.7600     0.0305     0.2060
   45    0.880   1854.61     0.0388     0.0018     0.0125     0.0088     0.0443     4.7768    14.0800     0.0303     0.1447
   46    0.900   1855.56     0.0410     0.0020     0.0090     0.0090     0.0456     4.8247    14.4000     0.0312     0.0643
   47    0.920   1856.52     0.0419     0.0025     0.0067     0.0092     0.0449     6.0729    14.7200     0.0302    -0.0609
   48    0.940   1857.49     0.0429     0.0025     0.0071     0.0094     0.0456     5.8072    15.0400     0.0306    -0.0952
   49    0.960   1858.45     0.0419     0.0025     0.0088     0.0096     0.0455     5.7050    15.3600     0.0301    -0.0358
   50    0.980   1859.42     0.0425     0.0026     0.0071     0.0098     0.0457     6.1428    15.6800     0.0301    -0.0715
   51    1.000   1860.34     0.0464     0.0023     0.0076     0.0100     0.0493     5.0853    16.0000     0.0333    -0.0920
   52    1.020   1861.34     0.0409     0.0026     0.0114     0.0102     0.0451     5.9404    16.3200     0.0288    -0.0081
   53    1.040   1862.31     0.0439     0.0027     0.0137     0.0104     0.0496     6.5158    16.6400     0.0329     0.0919
   54    1.060   1863.25     0.0408     0.0030     0.0143     0.0106     0.0467     7.8374    16.9600     0.0298     0.1176
   55    1.080   1864.22     0.0411     0.0028     0.0150     0.0108     0.0472     6.6209    17.2800     0.0299     0.1283
   56    1.100   1865.19     0.0434     0.0025     0.0150     0.0110     0.0498     5.8644    17.6000     0.0322     0.1302
   57    1.120   1866.17     0.0405     0.0026     0.0142     0.0112     0.0466     5.9748    17.9200     0.0287     0.1145
   58    1.140   1867.13     0.0435     0.0026     0.0156     0.0114     0.0498     6.0852    18.2400     0.0316     0.1123
   59    1.160   1868.10     0.0403     0.0027     0.0173     0.0116     0.0474     6.3887    18.5600     0.0289     0.1854
   60    1.180   1869.11     0.0438     0.0027     0.0167     0.0118     0.0510     6.5635    18.8800     0.0321     0.1640
   61    1.200   1870.04     0.0417     0.0028     0.0146     0.0120     0.0484     6.5196    19.2000     0.0292     0.1371
   62    1.220   1872.29     0.0438     0.0029     0.0156     0.0122     0.0502     6.4757    19.5200     0.0307     0.1004
   63    1.240   1875.14     0.0426     0.0028     0.0165     0.0124     0.0494     6.2745    19.8400     0.0296     0.1290
   64    1.260   1878.00     0.0415     0.0028     0.0174     0.0126     0.0486     6.3602    20.1600     0.0285     0.1575
   65    1.280   1881.76     0.0429     0.0027     0.0176     0.0128     0.0503     6.4863    20.4800     0.0298     0.1612
   66    1.300   1889.49     0.0424     0.0029     0.0174     0.0130     0.0497     6.7237    20.8000     0.0289     0.1543
   67    1.320   1897.23     0.0419     0.0027     0.0173     0.0132     0.0492     6.3651    21.1200     0.0281     0.1475
   68    1.340   1902.72     0.0413     0.0027     0.0161     0.0134     0.0483     6.4751    21.4400     0.0269     0.1201
   69    1.360   1903.69     0.0406     0.0026     0.0163     0.0136     0.0472     6.2375    21.7600     0.0255     0.0903
   70    1.380   1908.54     0.0419     0.0023     0.0200     0.0138     0.0497     6.4369    22.0800     0.0276     0.1668
   71    1.400   1920.97     0.0421     0.0023     0.0244     0.0140     0.0518     6.3972    22.4000     0.0294     0.2958
   72    1.420   1930.66     0.0430     0.0024     0.0269     0.0142     0.0542     5.5774    22.7200     0.0314     0.3912
   73    1.440   1931.67     0.0415     0.0021     0.0275     0.0144     0.0530     5.0252    23.0400     0.0299     0.4335
   74    1.460   1932.66     0.0420     0.0023     0.0285     0.0146     0.0539     5.3106    23.3600     0.0305     0.4454
   75    1.480   1933.63     0.0463     0.0023     0.0276     0.0148     0.0583     5.1501    23.6800     0.0346     0.3938
   76    1.500   1934.60     0.0484     0.0023     0.0287     0.0150     0.0602     4.8226    24.0000     0.0362     0.3576
   77    1.520   1935.57     0.0501     0.0023     0.0314     0.0152     0.0630     4.6232    24.3200     0.0387     0.4012
   78    1.540   1936.50     0.0518     0.0024     0.0275     0.0154     0.0642     4.7172    24.6400     0.0396     0.3600
   79    1.560   1937.49     0.0522     0.0023     0.0252     0.0156     0.0630     4.2985    24.9600     0.0380     0.2619
   80    1.580   1938.42     0.0516     0.0023     0.0270     0.0158     0.0629     4.4974    25.2800     0.0376     0.2936
   81    1.600   1939.42     0.0530     0.0026     0.0264     0.0160     0.0637     5.0023    25.6000     0.0381     0.2517
   82    1.620   1940.35     0.0511     0.0024     0.0279     0.0162     0.0626     4.6083    25.9200     0.0366     0.3015
   83    1.640   1941.36     0.0527     0.0028     0.0294     0.0164     0.0649     5.2198    26.2400     0.0386     0.3279
   84    1.660   1942.32     0.0549     0.0023     0.0317     0.0166     0.0679     4.3749    26.5600     0.0413     0.3442
   85    1.680   1943.30     0.0570     0.0025     0.0324     0.0168     0.0706     4.4645    26.8800     0.0437     0.3578
   86    1.700   1944.29     0.0652     0.0026     0.0332     0.0170     0.0787     4.0310    27.2000     0.0515     0.2975
   87    1.720   1945.24     0.0697     0.0029     0.0338     0.0172     0.0840     4.4387    27.5200     0.0565     0.3017
   88    1.740   1946.23     0.0737     0.0031     0.0339     0.0174     0.0882     4.1534    27.8400     0.0604     0.2837
   89    1.760   1947.18     0.0791     0.0033     0.0272     0.0176     0.0913     4.2477    28.1600     0.0631     0.1823
   90    1.780   1948.16     0.0747     0.0033     0.0233     0.0178     0.0852     4.3973    28.4800     0.0567     0.1272
   91    1.800   1949.09     0.0705     0.0032     0.0245     0.0180     0.0802     4.4581    28.8000     0.0514     0.0968
   92    1.820   1950.08     0.0665     0.0029     0.0278     0.0182     0.0773     4.3700    29.1200     0.0482     0.1608
   93    1.840   1951.11     0.0637     0.0030     0.0326     0.0184     0.0769     4.5917    29.4400     0.0474     0.2739
   94    1.860   1952.06     0.0594     0.0029     0.0365     0.0186     0.0741     4.8318    29.7600     0.0443     0.3697
   95    1.880   1953.01     0.0597     0.0030     0.0394     0.0188     0.0759     5.0035    30.0800     0.0458     0.4317
   96    1.900   1953.94     0.0594     0.0028     0.0414     0.0190     0.0765     4.7144    30.4000     0.0461     0.4705
   97    1.920   1954.89     0.0605     0.0029     0.0429     0.0192     0.0783     4.8388    30.7200     0.0476     0.4900
   98    1.940   1955.89     0.0619     0.0027     0.0432     0.0194     0.0801     4.4109    31.0400     0.0491     0.4864
   99    1.960   1956.84     0.0612     0.0029     0.0442     0.0196     0.0795     4.8139    31.3600     0.0481     0.4990
  100    1.980   1957.83     0.0575     0.0030     0.0455     0.0198     0.0765     5.2863    31.6800     0.0448     0.5675
  101    2.000   1958.78     0.0565     0.0029     0.0469     0.0200     0.0760     4.9807    32.0000     0.0440     0.5994
  102    2.020   1959.74     0.0610     0.0029     0.0489     0.0202     0.0812     4.8854    32.3200     0.0489     0.5717
  103    2.040   1960.69     0.0717     0.0033     0.0518     0.0204     0.0930     5.0448    32.6400     0.0604     0.5055
  104    2.060   1961.65     0.0833     0.0032     0.0542     0.0206     0.1060     3.9705    32.9600     0.0731     0.4587
  105    2.080   1962.62     0.0913     0.0035     0.0504     0.0208     0.1128     3.9679    33.2800     0.0796     0.3843
  106    2.100   1963.59     0.0985     0.0043     0.0470     0.0210     0.1185     4.5449    33.6000     0.0849     0.3163
  107    2.120   1964.58     0.1117     0.0045     0.0500     0.0212     0.1325     4.1277    33.9200     0.0986     0.2874
  108    2.140   1965.54     0.1092     0.0046     0.0476     0.0214     0.1302     4.1315    34.2400     0.0959     0.2977
  109    2.160   1966.50     0.1053     0.0046     0.0384     0.0216     0.1220     4.3417    34.5600     0.0874     0.2055
  110    2.180   1967.47     0.0955     0.0046     0.0352     0.0218     0.1103     4.7728    34.8800     0.0754     0.1774
  111    2.200   1968.43     0.0935     0.0047     0.0394     0.0220     0.1088     4.9851    35.2000     0.0736     0.1973
  112    2.220   1969.41     0.0958     0.0047     0.0463     0.0222     0.1139     5.0391    35.5200     0.0784     0.2656
  113    2.240   1970.37     0.1016     0.0045     0.0523     0.0224     0.1226     4.5418    35.8400     0.0867     0.3182
  114    2.260   1971.38     0.0978     0.0044     0.0557     0.0226     0.1210     4.4394    36.1600     0.0848     0.3832
  115    2.280   1972.31     0.0983     0.0043     0.0568     0.0228     0.1221     4.3892    36.4800     0.0856     0.3948
  116    2.300   1973.32     0.1008     0.0040     0.0564     0.0230     0.1248     3.9187    36.8000     0.0880     0.3861
  117    2.320   1974.24     0.1020     0.0041     0.0560     0.0232     0.1255     4.0536    37.1200     0.0884     0.3722
  118    2.340   1975.20     0.1028     0.0039     0.0547     0.0234     0.1257     3.8665    37.4400     0.0883     0.3544
  119    2.360   1976.19     0.1051     0.0043     0.0534     0.0236     0.1280     4.0747    37.7600     0.0902     0.3420
  120    2.380   1977.14     0.1034     0.0044     0.0527     0.0238     0.1258     4.2194    38.0800     0.0878     0.3378
  121    2.400   1978.10     0.1045     0.0045     0.0494     0.0240     0.1257     4.3570    38.4000     0.0873     0.3050
  122    2.420   1979.10     0.1062     0.0045     0.0503     0.0242     0.1274     4.2389    38.7200     0.0887     0.2972
  123    2.440   1980.04     0.1107     0.0048     0.0526     0.0244     0.1323     4.4543    39.0400     0.0933     0.2895
  124    2.460   1981.05     0.1119     0.0049     0.0546     0.0246     0.1349     4.3333    39.3600     0.0956     0.3169
  125    2.480   1981.96     0.1100     0.0048     0.0530     0.0248     0.1326     4.3286    39.6800     0.0929     0.3119
  126    2.500   1982.92     0.1097     0.0046     0.0534     0.0250     0.1318     4.2388    40.0000     0.0918     0.3010
  127    2.520   1983.90     0.1113     0.0051     0.0550     0.0252     0.1342     4.5245    40.3200     0.0939     0.3124
  128    2.540   1984.86     0.1110     0.0050     0.0551     0.0254     0.1340     4.4947    40.6400     0.0933     0.3126
  129    2.560   1985.83     0.1105     0.0051     0.0559     0.0256     0.1339     4.7033    40.9600     0.0929     0.3247
  130    2.580   1986.81     0.1081     0.0051     0.0558     0.0258     0.1315     4.6769    41.2800     0.0902     0.3322
  131    2.600   1987.81     0.1106     0.0050     0.0553     0.0260     0.1340     4.5409    41.6000     0.0924     0.3212
  132    2.620   1988.76     0.1093     0.0050     0.0508     0.0262     0.1312     4.4806    41.9200     0.0893     0.2910
  133    2.640   1989.70     0.1096     0.0051     0.0512     0.0264     0.1311     4.6732    42.2400     0.0889     0.2783
  134    2.660   1990.67     0.1088     0.0048     0.0513     0.0266     0.1303     4.4332    42.5600     0.0877     0.2813
  135    2.680   1991.68     0.1083     0.0046     0.0514     0.0268     0.1299     4.2748    42.8800     0.0870     0.2822
  136    2.700   1992.71     0.1109     0.0047     0.0528     0.0270     0.1328     4.2438    43.2000     0.0896     0.2801
  137    2.720   1993.66     0.1089     0.0049     0.0550     0.0272     0.1316     4.4800    43.5200     0.0881     0.3067
  138    2.740   1994.63     0.1091     0.0048     0.0584     0.0274     0.1329     4.4419    43.8400     0.0891     0.3276
  139    2.760   1995.61     0.1150     0.0047     0.0639     0.0276     0.1412     4.1081    44.1600     0.0970     0.3584
  140    2.780   1996.59     0.1194     0.0049     0.0660     0.0278     0.1470     4.1841    44.4800     0.1025     0.3701
  141    2.800   1997.58     0.1135     0.0047     0.0677     0.0280     0.1415     4.0786    44.8000     0.0967     0.4005
  142    2.820   1998.51     0.1132     0.0048     0.0705     0.0282     0.1423     4.2298    45.1200     0.0972     0.4249
  143    2.840   1999.48     0.1098     0.0049     0.0730     0.0284     0.1403     4.4276    45.4400     0.0949     0.4680
  144    2.860   2000.42     0.1062     0.0047     0.0730     0.0286     0.1368     4.3717    45.7600     0.0911     0.4879
  145    2.880   2001.42     0.1028     0.0046     0.0737     0.0288     0.1336     4.3917    46.0800     0.0875     0.5103
  146    2.900   2002.39     0.1019     0.0042     0.0759     0.0290     0.1331     4.0886    46.4000     0.0867     0.5238
  147    2.920   2003.40     0.1006     0.0042     0.0790     0.0292     0.1335     4.1911    46.7200     0.0868     0.5670
  148    2.940   2004.32     0.1002     0.0042     0.0800     0.0294     0.1336     4.1637    47.0400     0.0866     0.5807
  149    2.960   2005.29     0.0988     0.0041     0.0795     0.0296     0.1323     4.1185    47.3600     0.0850     0.5916
  150    2.980   2006.24     0.1007     0.0041     0.0778     0.0298     0.1339     4.1079    47.6800     0.0862     0.5712
  151    3.000   2007.25     0.1067     0.0041     0.0760     0.0300     0.1386     3.9411    48.0000     0.0906     0.5063
  152    3.020   2008.21     0.1031     0.0041     0.0754     0.0302     0.1349     4.0089    48.3200     0.0866     0.5255
  153    3.040   2009.17     0.1066     0.0043     0.0717     0.0304     0.1378     4.1343    48.6400     0.0891     0.4919
  154    3.060   2010.15     0.1040     0.0046     0.0650     0.0306     0.1322     4.3165    48.9600     0.0832     0.4383
  155    3.080   2011.07     0.1040     0.0044     0.0609     0.0308     0.1298     4.2430    49.2800     0.0805     0.3810
  156    3.100   2012.09     0.1024     0.0046     0.0597     0.0310     0.1276     4.4831    49.6000     0.0780     0.3702
  157    3.120   2013.09     0.1082     0.0053     0.0626     0.0312     0.1338     5.0415    49.9200     0.0839     0.3544
  158    3.140   2014.05     0.1147     0.0055     0.0621     0.0314     0.1409     5.1587    50.2400     0.0907     0.3425
  159    3.160   2015.04     0.1213     0.0057     0.0619     0.0316     0.1471     5.2476    50.5600     0.0965     0.3097
  160    3.180   2016.02     0.1173     0.0059     0.0617     0.0318     0.1435     5.3366    50.8800     0.0926     0.3296
  161    3.200   2016.97     0.1156     0.0060     0.0629     0.0320     0.1417     5.4256    51.2000     0.0905     0.3317
  162    3.220   2017.94     0.1126     0.0062     0.0703     0.0322     0.1411     5.5146    51.5200     0.0896     0.3968
  163    3.240   2021.82     0.1128     0.0063     0.0719     0.0324     0.1430     5.6335    51.8400     0.0912     0.4346
  164    3.260   2029.93     0.1154     0.0059     0.0716     0.0326     0.1455     5.2545    52.1600     0.0933     0.4203
  165    3.280   2038.04     0.1180     0.0059     0.0713     0.0328     0.1480     5.2938    52.4800     0.0955     0.4061
  166    3.300   2046.15     0.1206     0.0060     0.0710     0.0330     0.1504     5.3331    52.8000     0.0976     0.3918
  167    3.320   2054.26     0.1232     0.0060     0.0707     0.0332     0.1529     5.3724    53.1200     0.0998     0.3775
  168    3.340   2058.34     0.1174     0.0061     0.0706     0.0334     0.1470     5.2680    53.4400     0.0936     0.3964
  169    3.360   2059.66     0.1213     0.0060     0.0716     0.0336     0.1511     4.9131    53.7600     0.0973     0.3852
  170    3.380   2062.58     0.1177     0.0056     0.0734     0.0338     0.1482     4.6136    54.0800     0.0941     0.4173
  171    3.400   2065.51     0.1140     0.0058     0.0751     0.0340     0.1453     4.7950    54.4000     0.0909     0.4495
  172    3.420   2068.43     0.1104     0.0057     0.0768     0.0342     0.1425     4.6788    54.7200     0.0877     0.4817
  173    3.440   2070.81     0.1094     0.0058     0.0817     0.0344     0.1427     5.3653    55.0400     0.0877     0.5125
  174    3.460   2071.78     0.1171     0.0054     0.0895     0.0346     0.1534     4.6817    55.3600     0.0981     0.5303
  175    3.480   2072.76     0.1313     0.0053     0.0918     0.0348     0.1699     4.1455    55.6800     0.1143     0.5019
  176    3.500   2073.70     0.1401     0.0051     0.0905     0.0350     0.1787     3.7844    56.0000     0.1227     0.4642
  177    3.520   2074.67     0.1413     0.0054     0.0795     0.0352     0.1762     3.7925    56.3200     0.1199     0.3995
  178    3.540   2075.64     0.1350     0.0051     0.0754     0.0354     0.1670     3.6753    56.6400     0.1104     0.3709
  179    3.560   2076.64     0.1280     0.0050     0.0733     0.0356     0.1590     3.8718    56.9600     0.1021     0.3756
  180    3.580   2077.56     0.1228     0.0048     0.0725     0.0358     0.1533     3.8348    57.2800     0.0960     0.3836
  181    3.600   2078.52     0.1200     0.0051     0.0681     0.0360     0.1499     4.1860    57.6000     0.0923     0.3801
  182    3.620   2079.49     0.1085     0.0052     0.0631     0.0362     0.1355     4.4992    57.9200     0.0776     0.3634
  183    3.640   2080.44     0.1038     0.0053     0.0602     0.0364     0.1295     5.0247    58.2400     0.0713     0.3504
  184    3.660   2081.39     0.1004     0.0054     0.0551     0.0366     0.1241     5.2506    58.5600     0.0655     0.2990
  185    3.680   2082.37     0.1016     0.0057     0.0551     0.0368     0.1247     5.6590    58.8800     0.0658     0.2751
  186    3.700   2083.33     0.1088     0.0057     0.0617     0.0370     0.1339     5.4632    59.2000     0.0747     0.3046
  187    3.720   2084.34     0.1112     0.0058     0.0648     0.0372     0.1381     5.2606    59.5200     0.0786     0.3415
  188    3.740   2085.30     0.1132     0.0059     0.0614     0.0374     0.1400     5.2545    59.8400     0.0801     0.3293
  189    3.760   2086.29     0.1120     0.0057     0.0586     0.0376     0.1369     4.9883    60.1600     0.0767     0.2826
  190    3.780   2087.25     0.1072     0.0056     0.0597     0.0378     0.1322     5.1620    60.4800     0.0717     0.3032
  191    3.800   2088.20     0.1060     0.0060     0.0589     0.0380     0.1310     5.6747    60.8000     0.0702     0.3039
  192    3.820   2089.18     0.1091     0.0063     0.0564     0.0382     0.1327     5.9616    61.1200     0.0716     0.2521
  193    3.840   2090.16     0.1184     0.0068     0.0566     0.0384     0.1422     5.8255    61.4400     0.0807     0.2256
  194    3.860   2091.14     0.1257     0.0064     0.0577     0.0386     0.1498     5.1676    61.7600     0.0880     0.2122
  195    3.880   2092.12     0.1347     0.0060     0.0629     0.0388     0.1601     4.5747    62.0800     0.0980     0.2211
  196    3.900   2093.09     0.1416     0.0058     0.0708     0.0390     0.1701     4.2742    62.4000     0.1077     0.2672
  197    3.920   2094.05     0.1521     0.0057     0.0733     0.0392     0.1830     3.8705    62.7200     0.1203     0.2850
  198    3.940   2095.06     0.1615     0.0058     0.0700     0.0394     0.1913     3.6849    63.0400     0.1283     0.2456
  199    3.960   2096.02     0.1709     0.0058     0.0687     0.0396     0.1999     3.4648    63.3600     0.1366     0.2165
  200    3.980   2096.94     0.1794     0.0055     0.0583     0.0398     0.2050     3.0168    63.6800     0.1414     0.1498
  201    4.000   2097.88     0.1554     0.0054     0.0616     0.0400     0.1805     3.3530    64.0000     0.1165     0.1696
  202    4.020   2098.90     0.1357     0.0048     0.0648     0.0402     0.1627     3.3609    64.3200     0.0984     0.2454
  203    4.040   2099.83     0.1170     0.0050     0.0699     0.0404     0.1452     4.1520    64.6400     0.0806     0.3333
  204    4.060   2100.81     0.1018     0.0054     0.0745     0.0406     0.1325     5.1763    64.9600     0.0676     0.4820
  205    4.080   2101.80     0.1024     0.0049     0.0775     0.0408     0.1347     4.7706    65.2800     0.0694     0.5216
  206    4.100   2102.79     0.1068     0.0050     0.0793     0.0410     0.1397     4.7558    65.6000     0.0741     0.5047
  207    4.120   2103.75     0.1113     0.0049     0.0793     0.0412     0.1446     4.4423    65.9200     0.0786     0.4846
  208    4.140   2104.72     0.1157     0.0050     0.0833     0.0414     0.1499     4.2971    66.2400     0.0837     0.4789
  209    4.160   2105.70     0.1054     0.0048     0.0892     0.0416     0.1420     4.4097    66.5600     0.0755     0.6067
  210    4.180   2106.69     0.1040     0.0045     0.0928     0.0418     0.1426     4.3259    66.8800     0.0758     0.6639
  211    4.200   2107.67     0.0995     0.0046     0.0937     0.0420     0.1386     4.6177    67.2000     0.0714     0.7169
  212    4.220   2108.66     0.0956     0.0045     0.0976     0.0422     0.1361     4.8025    67.5200     0.0685     0.7907
  213    4.240   2109.62     0.0978     0.0041     0.1022     0.0424     0.1402     4.2620    67.8400     0.0723     0.8090
  214    4.260   2110.58     0.0988     0.0045     0.1027     0.0426     0.1420     4.6457    68.1600     0.0739     0.8167
  215    4.280   2111.54     0.1034     0.0044     0.1025     0.0428     0.1461     4.2258    68.4800     0.0776     0.7590
  216    4.300   2112.54     0.1070     0.0044     0.1036     0.0430     0.1501     4.1413    68.8000     0.0813     0.7338
  217    4.320   2113.52     0.1137     0.0044     0.1050     0.0432     0.1576     3.9450    69.1200     0.0885     0.6937
  218    4.340   2114.49     0.1172     0.0046     0.1014     0.0434     0.1603     3.9616    69.4400     0.0909     0.6528
  219    4.360   2115.46     0.1162     0.0051     0.1002     0.0436     0.1586     4.2664    69.7600     0.0888     0.6467
  220    4.380   2116.43     0.1238     0.0050     0.0979     0.0438     0.1650     4.1379    70.0800     0.0949     0.5714
  221    4.400   2117.41     0.1258     0.0051     0.0958     0.0440     0.1663     4.1017    70.4000     0.0959     0.5452
  222    4.420   2118.35     0.1255     0.0050     0.0979     0.0442     0.1661     3.9625    70.7200     0.0954     0.5510
  223    4.440   2119.35     0.1328     0.0056     0.0976     0.0444     0.1741     4.2107    71.0400     0.1030     0.5223
  224    4.460   2120.27     0.1308     0.0060     0.0962     0.0446     0.1713     4.5486    71.3600     0.0999     0.5191
  225    4.480   2121.27     0.1304     0.0065     0.0959     0.0448     0.1707     4.9828    71.6800     0.0990     0.5170
  226    4.500   2122.25     0.1297     0.0065     0.0875     0.0450     0.1688     4.9545    72.0000     0.0968     0.4945
  227    4.520   2123.19     0.1297     0.0059     0.0826     0.0452     0.1649     4.5546    72.3200     0.0926     0.4160
  228    4.540   2124.17     0.1254     0.0059     0.0867     0.0454     0.1612     4.7351    72.6400     0.0885     0.4489
  229    4.560   2125.15     0.1185     0.0061     0.0918     0.0456     0.1564     4.9526    72.9600     0.0834     0.5360
  230    4.580   2126.10     0.1130     0.0064     0.0963     0.0458     0.1528     5.6796    73.2800     0.0795     0.6161
  231    4.600   2127.08     0.1112     0.0057     0.0994     0.0460     0.1526     5.1435    73.6000     0.0790     0.6662
  232    4.620   2128.06     0.1120     0.0058     0.1014     0.0462     0.1543     5.1690    73.9200     0.0804     0.6776
  233    4.640   2129.03     0.1093     0.0052     0.1047     0.0464     0.1528     4.7476    74.2400     0.0786     0.7275
  234    4.660   2130.03     0.1109     0.0049     0.1078     0.0466     0.1557     4.4582    74.5600     0.0812     0.7403
  235    4.680   2131.03     0.1104     0.0051     0.1110     0.0468     0.1567     4.6508    74.8800     0.0818     0.7742
  236    4.700   2131.99     0.1167     0.0050     0.1123     0.0470     0.1639     4.3556    75.2000     0.0887     0.7378
  237    4.720   2132.94     0.1196     0.0050     0.1089     0.0472     0.1662     4.1877    75.5200     0.0907     0.7044
  238    4.740   2133.94     0.1239     0.0052     0.1018     0.0474     0.1685     4.2277    75.8400     0.0926     0.6338
  239    4.760   2134.93     0.1208     0.0049     0.1000     0.0476     0.1619     3.9873    76.1600     0.0857     0.5838
  240    4.780   2135.90     0.1208     0.0049     0.1038     0.0478     0.1636     3.9715    76.4800     0.0872     0.6231
  241    4.800   2136.90     0.1225     0.0052     0.1077     0.0480     0.1672     4.1966    76.8000     0.0904     0.6474
  242    4.820   2137.84     0.1216     0.0051     0.1103     0.0482     0.1677     4.2058    77.1200     0.0906     0.6802
  243    4.840   2138.84     0.1216     0.0049     0.1090     0.0484     0.1672     4.0671    77.4400     0.0898     0.6720
  244    4.860   2139.77     0.1197     0.0051     0.1090     0.0486     0.1656     4.2734    77.7600     0.0878     0.6917
  245    4.880   2140.75     0.1206     0.0052     0.1097     0.0488     0.1661     4.3479    78.0800     0.0880     0.6762
  246    4.900   2141.73     0.1287     0.0054     0.1124     0.0490     0.1755     4.1912    78.4000     0.0971     0.6438
  247    4.920   2142.68     0.1381     0.0056     0.1133     0.0492     0.1859     4.1067    78.7200     0.1072     0.6045
  248    4.940   2143.67     0.1487     0.0059     0.1024     0.0494     0.1936     4.0668    79.0400     0.1146     0.5028
  249    4.960   2144.62     0.1468     0.0061     0.0926     0.0496     0.1867     4.0768    79.3600     0.1073     0.4231
  250    4.980   2145.60     0.1445     0.0065     0.0908     0.0498     0.1826     4.4563    79.6800     0.1029     0.3970
  251    5.000   2146.54     0.1423     0.0062     0.0917     0.0500     0.1801     4.3198    80.0000     0.1001     0.4012
  252    5.020   2147.55     0.1341     0.0063     0.0972     0.0502     0.1738     4.4800    80.3200     0.0935     0.4741
  253    5.040   2148.49     0.1327     0.0060     0.1017     0.0504     0.1747     4.5194    80.6400     0.0941     0.5282
  254    5.060   2149.47     0.1315     0.0059     0.1060     0.0506     0.1755     4.4409    80.9600     0.0946     0.5738
  255    5.080   2150.43     0.1277     0.0057     0.1093     0.0508     0.1731     4.4431    81.2800     0.0919     0.6240
  256    5.100   2151.40     0.1296     0.0055     0.1143     0.0510     0.1769     4.2573    81.6000     0.0953     0.6466
  257    5.120   2152.40     0.1289     0.0054     0.1169     0.0512     0.1778     4.1172    81.9200     0.0959     0.6796
  258    5.140   2153.32     0.1321     0.0056     0.1182     0.0514     0.1815     4.1687    82.2400     0.0993     0.6667
  259    5.160   2154.32     0.1371     0.0059     0.1202     0.0516     0.1875     4.3185    82.5600     0.1049     0.6510
  260    5.180   2155.33     0.1373     0.0061     0.1210     0.0518     0.1879     4.4508    82.8800     0.1050     0.6547
  261    5.200   2156.29     0.1369     0.0064     0.1208     0.0520     0.1876     4.6950    83.2000     0.1044     0.6585
  262    5.220   2157.86     0.1405     0.0065     0.1184     0.0522     0.1907     5.3673    83.5200     0.1072     0.6275
  263    5.240   2172.04     0.1414     0.0066     0.1156     0.0524     0.1904     5.4864    83.8400     0.1066     0.6024
  264    5.260   2188.08     0.1424     0.0067     0.1137     0.0526     0.1902     5.2308    84.1600     0.1060     0.5773
  265    5.280   2190.97     0.1405     0.0067     0.1135     0.0528     0.1882     4.9752    84.4800     0.1038     0.5876
  266    5.300   2191.96     0.1385     0.0068     0.1168     0.0530     0.1870     4.8902    84.8000     0.1022     0.6096
  267    5.320   2192.94     0.1391     0.0066     0.1226     0.0532     0.1897     4.7726    85.1200     0.1045     0.6419
  268    5.340   2197.06     0.1418     0.0066     0.1235     0.0534     0.1939     4.7570    85.4400     0.1085     0.6557
  269    5.360   2207.54     0.1502     0.0064     0.1216     0.0536     0.2016     4.5965    85.7600     0.1158     0.6015
  270    5.380   2218.01     0.1587     0.0067     0.1198     0.0538     0.2092     4.7999    86.0800     0.1232     0.5474
  271    5.400   2227.11     0.1668     0.0070     0.1179     0.0540     0.2166     4.4890    86.4000     0.1302     0.4959
  272    5.420   2228.06     0.1737     0.0071     0.1149     0.0542     0.2224     4.1776    86.7200     0.1357     0.4564
  273    5.440   2229.03     0.1763     0.0072     0.1122     0.0544     0.2238     4.0818    87.0400     0.1368     0.4288
  274    5.460   2229.97     0.1764     0.0072     0.1100     0.0546     0.2232     4.1195    87.3600     0.1358     0.4176
  275    5.480   2230.97     0.1740     0.0070     0.1070     0.0548     0.2183     3.9762    87.6800     0.1306     0.3877
  276    5.500   2231.90     0.1729     0.0071     0.1149     0.0550     0.2202     4.0667    88.0000     0.1322     0.4358
  277    5.520   2232.89     0.1696     0.0069     0.1205     0.0552     0.2197     4.0913    88.3200     0.1314     0.4873
  278    5.540   2233.80     0.1723     0.0068     0.1219     0.0554     0.2233     3.9347    88.6400     0.1347     0.4912
  279    5.560   2234.81     0.1697     0.0069     0.1256     0.0556     0.2219     4.0340    88.9600     0.1330     0.5170
  280    5.580   2235.70     0.1710     0.0070     0.1270     0.0558     0.2244     4.1004    89.2800     0.1351     0.5269
  281    5.600   2236.56     0.1714     0.0065     0.1274     0.0560     0.2250     3.7754    89.6000     0.1354     0.5284
  282    5.620   2237.47     0.1725     0.0066     0.1260     0.0562     0.2252     3.8365    89.9200     0.1353     0.5119
  283    5.640   2238.48     0.1760     0.0066     0.1202     0.0564     0.2270     3.8037    90.2400     0.1368     0.4751
  284    5.660   2239.47     0.1810     0.0064     0.1248     0.0566     0.2327     3.5256    90.5600     0.1422     0.4676
  285    5.680   2240.43     0.1786     0.0065     0.1285     0.0568     0.2321     3.6392    90.8800     0.1413     0.5007
  286    5.700   2241.39     0.1808     0.0068     0.1274     0.0570     0.2346     3.7334    91.2000     0.1434     0.4946
  287    5.720   2242.39     0.1779     0.0067     0.1276     0.0572     0.2310     3.7137    91.5200     0.1395     0.4971
  288    5.740   2243.29     0.1801     0.0068     0.1290     0.0574     0.2348     3.7913    91.8400     0.1429     0.5096
  289    5.760   2244.35     0.1827     0.0067     0.1252     0.0576     0.2362     3.6628    92.1600     0.1440     0.4840
  290    5.780   2245.32     0.1779     0.0072     0.1251     0.0578     0.2300     4.0060    92.4800     0.1375     0.4824
  291    5.800   2246.30     0.1727     0.0068     0.1251     0.0580     0.2256     3.8818    92.8000     0.1328     0.5118
  292    5.820   2247.26     0.1682     0.0069     0.1253     0.0582     0.2206     4.0830    93.1200     0.1275     0.5225
  293    5.840   2248.15     0.1632     0.0070     0.1264     0.0584     0.2162     4.2376    93.4400     0.1228     0.5524
  294    5.860   2248.96     0.1651     0.0069     0.1259     0.0586     0.2175     4.2027    93.7600     0.1237     0.5345
  295    5.880   2249.73     0.1636     0.0067     0.1307     0.0588     0.2177     4.0542    94.0800     0.1236     0.5662
  296    5.900   2250.62     0.1631     0.0067     0.1359     0.0590     0.2195     4.1348    94.4000     0.1251     0.6020
  297    5.920   2251.55     0.1694     0.0063     0.1386     0.0592     0.2272     3.6975    94.7200     0.1325     0.5927
  298    5.940   2252.54     0.1659     0.0065     0.1414     0.0594     0.2249     3.9378    95.0400     0.1299     0.6243
  299    5.960   2253.47     0.1723     0.0067     0.1417     0.0596     0.2320     3.9324    95.3600     0.1366     0.6041
  300    5.980   2254.45     0.1734     0.0069     0.1333     0.0598     0.2320     4.0035    95.6800     0.1363     0.5842
  301    6.000   2255.45     0.1730     0.0071     0.1248     0.0600     0.2263     4.0666    96.0000     0.1303     0.5127
  302    6.020   2256.45     0.1696     0.0069     0.1244     0.0602     0.2216     4.0393    96.3200     0.1253     0.5079
  303    6.040   2257.39     0.1677     0.0066     0.1260     0.0604     0.2200     3.8903    96.6400     0.1234     0.5192
  304    6.060   2258.35     0.1647     0.0067     0.1302     0.0606     0.2188     4.0670    96.9600     0.1219     0.5594
  305    6.080   2259.31     0.1640     0.0066     0.1350     0.0608     0.2201     3.9950    97.2800     0.1228     0.5922
  306    6.100   2260.29     0.1631     0.0065     0.1382     0.0610     0.2209     4.0324    97.6000     0.1233     0.6208
  307    6.120   2261.30     0.1641     0.0060     0.1389     0.0612     0.2223     3.6284    97.9200     0.1244     0.6214
  308    6.140   2262.27     0.1647     0.0060     0.1395     0.0614     0.2234     3.6703    98.2400     0.1252     0.6268
  309    6.160   2263.22     0.1640     0.0057     0.1353     0.0616     0.2214     3.4738    98.5600     0.1228     0.6105
  310    6.180   2264.22     0.1548     0.0054     0.1363     0.0618     0.2119     3.4800    98.8800     0.1130     0.6568
  311    6.200   2265.16     0.1578     0.0058     0.1389     0.0620     0.2156     3.6461    99.2000     0.1164     0.6506
  312    6.220   2266.14     0.1637     0.0061     0.1361     0.0622     0.2215     3.7773    99.5200     0.1220     0.6199
  313    6.240   2267.12     0.1676     0.0060     0.1339     0.0624     0.2237     3.6090    99.8400     0.1239     0.5757
  314    6.260   2268.09     0.1711     0.0061     0.1317     0.0626     0.2266     3.5601   100.1600     0.1264     0.5496
  315    6.280   2269.12     0.1764     0.0061     0.1258     0.0628     0.2302     3.5157   100.4800     0.1298     0.5044
  316    6.300   2270.09     0.1725     0.0061     0.1251     0.0630     0.2249     3.5186   100.8000     0.1241     0.4975
  317    6.320   2271.05     0.1662     0.0059     0.1283     0.0632     0.2197     3.5289   101.1200     0.1186     0.5408
  318    6.340   2272.04     0.1633     0.0061     0.1322     0.0634     0.2182     3.7289   101.4400     0.1168     0.5762
  319    6.360   2272.94     0.1600     0.0062     0.1364     0.0636     0.2166     3.8482   101.7600     0.1149     0.6193
  320    6.380   2273.95     0.1597     0.0063     0.1413     0.0638     0.2185     3.9521   102.0800     0.1165     0.6544
  321    6.400   2274.92     0.1612     0.0059     0.1429     0.0640     0.2210     3.6248   102.4000     0.1186     0.6612
  322    6.420   2275.92     0.1601     0.0059     0.1395     0.0642     0.2188     3.6615   102.7200     0.1161     0.6512
  323    6.440   2276.88     0.1603     0.0060     0.1412     0.0644     0.2193     3.7322   103.0400     0.1162     0.6548
  324    6.460   2277.80     0.1608     0.0059     0.1441     0.0646     0.2209     3.7273   103.3600     0.1176     0.6677
  325    6.480   2278.75     0.1640     0.0058     0.1450     0.0648     0.2252     3.5259   103.6800     0.1215     0.6653
  326    6.500   2279.71     0.1626     0.0058     0.1469     0.0650     0.2236     3.6033   104.0000     0.1196     0.6715
  327    6.520   2280.76     0.1665     0.0060     0.1482     0.0652     0.2289     3.6346   104.3200     0.1245     0.6687
  328    6.540   2281.73     0.1688     0.0059     0.1471     0.0654     0.2306     3.5015   104.6400     0.1260     0.6495
  329    6.560   2282.71     0.1650     0.0061     0.1464     0.0656     0.2267     3.7394   104.9600     0.1217     0.6671
  330    6.580   2283.68     0.1647     0.0061     0.1466     0.0658     0.2262     3.7171   105.2800     0.1209     0.6654
  331    6.600   2284.64     0.1686     0.0063     0.1417     0.0660     0.2291     3.7746   105.6000     0.1235     0.6314
  332    6.620   2285.59     0.1636     0.0058     0.1409     0.0662     0.2225     3.5358   105.9200     0.1166     0.6341
  333    6.640   2286.54     0.1616     0.0059     0.1455     0.0664     0.2220     3.6815   106.2400     0.1158     0.6701
  334    6.660   2287.52     0.1602     0.0058     0.1505     0.0666     0.2228     3.6183   106.5600     0.1162     0.7079
  335    6.680   2288.55     0.1602     0.0061     0.1537     0.0668     0.2246     3.8100   106.8800     0.1177     0.7342
  336    6.700   2289.51     0.1635     0.0067     0.1529     0.0670     0.2282     4.1646   107.2000     0.1210     0.7183
  337    6.720   2290.55     0.1648     0.0074     0.1465     0.0672     0.2271     4.5031   107.5200     0.1196     0.6802
  338    6.740   2291.52     0.1767     0.0075     0.1432     0.0674     0.2372     4.3353   107.8400     0.1293     0.5914
  339    6.760   2292.52     0.1780     0.0075     0.1444     0.0676     0.2387     4.2426   108.1600     0.1306     0.5894
  340    6.780   2294.46     0.1830     0.0075     0.1455     0.0678     0.2443     4.9064   108.4800     0.1358     0.5750
  341    6.800   2312.25     0.1849     0.0074     0.1444     0.0680     0.2457     4.9061   108.8000     0.1369     0.5611
  342    6.820   2330.03     0.1868     0.0075     0.1433     0.0682     0.2471     4.6102   109.1200     0.1380     0.5471
  343    6.840   2336.87     0.1855     0.0070     0.1479     0.0684     0.2470     3.7444   109.4400     0.1375     0.5666
  344    6.860   2337.47     0.1856     0.0064     0.1515     0.0686     0.2490     3.4501   109.7600     0.1392     0.5903
  345    6.880   2338.09     0.1895     0.0069     0.1551     0.0688     0.2540     3.6462   110.0800     0.1440     0.5896
  346    6.900   2338.74     0.1900     0.0067     0.1549     0.0690     0.2553     3.5273   110.4000     0.1449     0.5962
  347    6.920   2339.35     0.1899     0.0052     0.1524     0.0692     0.2544     2.7660   110.7200     0.1437     0.5874
  348    6.940   2339.97     0.1973     0.0064     0.1499     0.0694     0.2604     3.2835   111.0400     0.1494     0.5411
  349    6.960   2340.60     0.2036     0.0068     0.1489     0.0696     0.2663     3.3801   111.3600     0.1550     0.5143
  350    6.980   2341.23     0.2057     0.0076     0.1482     0.0698     0.2681     3.7200   111.6800     0.1564     0.5033
  351    7.000   2341.88     0.2085     0.0084     0.1479     0.0700     0.2702     4.0599   112.0000     0.1582     0.4869
  352    7.020   2343.80     0.1592     0.0090     0.1545     0.0702     0.2234     5.2777   112.3200     0.1111     0.7578
  353    7.040   2344.57     0.1928     0.0087     0.1549     0.0704     0.2580     5.0632   112.6400     0.1454     0.5879
  354    7.060   2345.18     0.2017     0.0082     0.1565     0.0706     0.2671     3.9656   112.9600     0.1541     0.5533
  355    7.080   2363.21     0.1935     0.0081     0.1537     0.0708     0.2585     4.1081   113.2800     0.1453     0.5782
  356    7.100   2391.42     0.1883     0.0081     0.1508     0.0710     0.2520     4.1330   113.6000     0.1384     0.5845
  357    7.120   2419.63     0.1830     0.0077     0.1512     0.0712     0.2455     4.0656   113.9200     0.1316     0.5908
  358    7.140   2420.85     0.1780     0.0072     0.1561     0.0714     0.2432     4.0417   114.2400     0.1289     0.6489
  359    7.160   2421.83     0.1802     0.0067     0.1602     0.0716     0.2465     3.7462   114.5600     0.1319     0.6541
  360    7.180   2422.84     0.1828     0.0066     0.1663     0.0718     0.2519     3.5835   114.8800     0.1371     0.6773
  361    7.200   2423.86     0.1816     0.0064     0.1722     0.0720     0.2530     3.4941   115.2000     0.1378     0.7119
  362    7.220   2424.82     0.1868     0.0064     0.1762     0.0722     0.2604     3.4419   115.5200     0.1449     0.7116
  363    7.240   2425.81     0.1915     0.0062     0.1762     0.0724     0.2660     3.2760   115.8400     0.1502     0.7000
  364    7.260   2426.78     0.1930     0.0066     0.1703     0.0726     0.2655     3.4370   116.1600     0.1493     0.6694
  365    7.280   2427.78     0.1966     0.0065     0.1693     0.0728     0.2674     3.3287   116.4800     0.1510     0.6345
  366    7.300   2428.77     0.2008     0.0071     0.1710     0.0730     0.2726     3.5519   116.8000     0.1558     0.6292
  367    7.320   2429.72     0.2004     0.0069     0.1678     0.0732     0.2714     3.4428   117.1200     0.1543     0.6211
  368    7.340   2430.70     0.1975     0.0064     0.1652     0.0734     0.2671     3.2574   117.4400     0.1497     0.6180
  369    7.360   2431.71     0.1938     0.0064     0.1683     0.0736     0.2639     3.3079   117.7600     0.1461     0.6383
  370    7.380   2432.70     0.1938     0.0064     0.1735     0.0738     0.2659     3.3443   118.0800     0.1479     0.6618
  371    7.400   2433.62     0.1965     0.0068     0.1804     0.0740     0.2713     3.4571   118.4000     0.1529     0.6804
  372    7.420   2434.64     0.1992     0.0064     0.1860     0.0742     0.2767     3.2494   118.7200     0.1580     0.6989
  373    7.440   2435.59     0.2099     0.0068     0.1837     0.0744     0.2881     3.2662   119.0400     0.1691     0.6618
  374    7.460   2436.58     0.2141     0.0067     0.1722     0.0746     0.2880     3.1466   119.3600     0.1686     0.6010
  375    7.480   2437.52     0.2174     0.0070     0.1649     0.0748     0.2879     3.1995   119.6800     0.1682     0.5530
  376    7.500   2438.55     0.2144     0.0073     0.1568     0.0750     0.2807     3.3828   120.0000     0.1607     0.5164
  377    7.520   2439.55     0.2054     0.0072     0.1573     0.0752     0.2712     3.5016   120.3200     0.1509     0.5411
  378    7.540   2440.48     0.1994     0.0077     0.1621     0.0754     0.2667     3.8146   120.6400     0.1460     0.5804
  379    7.560   2441.50     0.2000     0.0073     0.1610     0.0756     0.2675     3.6311   120.9600     0.1465     0.5809
  380    7.580   2442.47     0.1922     0.0071     0.1627     0.0758     0.2602     3.6513   121.2800     0.1389     0.6190
  381    7.600   2443.43     0.1876     0.0069     0.1654     0.0760     0.2567     3.6367   121.6000     0.1351     0.6551
  382    7.620   2444.42     0.1854     0.0066     0.1698     0.0762     0.2558     3.5628   121.9200     0.1339     0.6823
  383    7.640   2445.38     0.1862     0.0065     0.1744     0.0764     0.2588     3.4834   122.2400     0.1366     0.7073
  384    7.660   2446.39     0.1876     0.0060     0.1745     0.0766     0.2610     3.2273   122.5600     0.1385     0.7094
  385    7.680   2447.41     0.1862     0.0063     0.1735     0.0768     0.2596     3.3990   122.8800     0.1368     0.7174
  386    7.700   2448.38     0.2010     0.0067     0.1691     0.0770     0.2719     3.4054   123.2000     0.1487     0.6170
  387    7.720   2449.35     0.2016     0.0068     0.1710     0.0772     0.2734     3.3826   123.5200     0.1499     0.6267
  388    7.740   2450.35     0.2000     0.0073     0.1718     0.0774     0.2726     3.6028   123.8400     0.1487     0.6420
  389    7.760   2451.32     0.1990     0.0071     0.1571     0.0776     0.2665     3.5666   124.1600     0.1424     0.5829
  390    7.780   2452.32     0.1923     0.0071     0.1593     0.0778     0.2582     3.6439   124.4800     0.1337     0.5918
  391    7.800   2453.31     0.1926     0.0072     0.1686     0.0780     0.2619     3.7496   124.8000     0.1371     0.6343
  392    7.820   2454.29     0.1965     0.0073     0.1787     0.0782     0.2703     3.7829   125.1200     0.1452     0.6714
  393    7.840   2455.27     0.1978     0.0072     0.1854     0.0784     0.2746     3.6301   125.4400     0.1492     0.7011
  394    7.860   2456.23     0.2056     0.0073     0.1918     0.0786     0.2855     3.6529   125.7600     0.1597     0.6990
  395    7.880   2457.21     0.2173     0.0073     0.1928     0.0788     0.2984     3.4242   126.0800     0.1723     0.6632
  396    7.900   2458.17     0.2254     0.0077     0.1897     0.0790     0.3056     3.4232   126.4000     0.1792     0.6244
  397    7.920   2459.16     0.2252     0.0080     0.1891     0.0792     0.3047     3.5768   126.7200     0.1780     0.6183
  398    7.940   2460.15     0.2306     0.0078     0.1857     0.0794     0.3095     3.4343   127.0400     0.1825     0.5941
  399    7.960   2461.13     0.2375     0.0082     0.1803     0.0796     0.3143     3.4675   127.3600     0.1869     0.5516
  400    7.980   2462.11     0.2406     0.0084     0.1836     0.0798     0.3167     3.4695   127.6800     0.1890     0.5368
  401    8.000   2463.06     0.2371     0.0083     0.1899     0.0800     0.3159     3.4959   128.0000     0.1879     0.5727
  402    8.020   2464.03     0.2354     0.0082     0.1863     0.0802     0.3156     3.4859   128.3200     0.1873     0.5905
  403    8.040   2465.04     0.2344     0.0082     0.1838     0.0804     0.3119     3.4996   128.6400     0.1833     0.5691
  404    8.060   2466.01     0.2347     0.0081     0.1848     0.0806     0.3117     3.4454   128.9600     0.1827     0.5618
  405    8.080   2467.01     0.2328     0.0081     0.1824     0.0808     0.3093     3.4883   129.2800     0.1800     0.5625
  406    8.100   2468.01     0.2293     0.0083     0.1801     0.0810     0.3052     3.6449   129.6000     0.1756     0.5685
  407    8.120   2469.00     0.2297     0.0082     0.1870     0.0812     0.3071     3.5500   129.9200     0.1772     0.5827
  408    8.140   2470.01     0.2294     0.0081     0.1938     0.0814     0.3099     3.5182   130.2400     0.1797     0.6141
  409    8.160   2470.98     0.2309     0.0078     0.1933     0.0816     0.3126     3.3971   130.5600     0.1821     0.6201
  410    8.180   2471.99     0.2310     0.0077     0.1906     0.0818     0.3106     3.3535   130.8800     0.1797     0.5995
  411    8.200   2472.99     0.2298     0.0078     0.1918     0.0820     0.3102     3.3756   131.2000     0.1790     0.6117
  412    8.220   2473.97     0.2292     0.0078     0.1944     0.0822     0.3099     3.4159   131.5200     0.1784     0.6166
  413    8.240   2474.98     0.2335     0.0081     0.2015     0.0824     0.3171     3.4773   131.8400     0.1853     0.6297
  414    8.260   2475.95     0.2339     0.0083     0.2043     0.0826     0.3196     3.5643   132.1600     0.1875     0.6477
  415    8.280   2476.95     0.2390     0.0081     0.2071     0.0828     0.3257     3.3862   132.4800     0.1932     0.6394
  416    8.300   2477.95     0.2405     0.0080     0.2045     0.0830     0.3264     3.3380   132.8000     0.1936     0.6275
  417    8.320   2478.94     0.2414     0.0080     0.2076     0.0832     0.3282     3.3269   133.1200     0.1951     0.6329
  418    8.340   2479.93     0.2429     0.0081     0.2131     0.0834     0.3316     3.3737   133.4400     0.1981     0.6449
  419    8.360   2480.90     0.2481     0.0087     0.2167     0.0836     0.3389     3.5199   133.7600     0.2051     0.6466
  420    8.380   2481.87     0.2549     0.0092     0.2128     0.0838     0.3448     3.6521   134.0800     0.2107     0.6176
  421    8.400   2482.81     0.2611     0.0088     0.2012     0.0840     0.3466     3.3753   134.4000     0.2122     0.5636
  422    8.420   2483.80     0.2598     0.0088     0.1993     0.0842     0.3441     3.3574   134.7200     0.2094     0.5569
  423    8.440   2484.80     0.2587     0.0090     0.2021     0.0844     0.3426     3.4875   135.0400     0.2075     0.5559
  424    8.460   2485.78     0.2547     0.0084     0.2091     0.0846     0.3418     3.2740   135.3600     0.2065     0.5946
  425    8.480   2486.78     0.2520     0.0091     0.2133     0.0848     0.3411     3.6061   135.6800     0.2054     0.6196
  426    8.500   2487.78     0.2607     0.0087     0.2152     0.0850     0.3512     3.4146   136.0000     0.2152     0.6060
  427    8.520   2488.70     0.2638     0.0088     0.2096     0.0852     0.3534     3.2925   136.3200     0.2171     0.5898
  428    8.540   2489.68     0.2640     0.0086     0.2061     0.0854     0.3492     3.2448   136.6400     0.2126     0.5528
  429    8.560   2490.68     0.2684     0.0084     0.2084     0.0856     0.3554     3.1594   136.9600     0.2184     0.5556
  430    8.580   2491.68     0.2625     0.0083     0.2127     0.0858     0.3515     3.1475   137.2800     0.2142     0.5892
  431    8.600   2492.67     0.2578     0.0086     0.2122     0.0860     0.3469     3.3166   137.6000     0.2093     0.6030
  432    8.620   2493.63     0.2520     0.0087     0.2148     0.0862     0.3418     3.4035   137.9200     0.2039     0.6260
  433    8.640   2494.62     0.2488     0.0086     0.2207     0.0864     0.3405     3.4442   138.2400     0.2023     0.6518
  434    8.660   2495.64     0.2466     0.0085     0.2222     0.0866     0.3403     3.4752   138.5600     0.2018     0.6766
  435    8.680   2496.64     0.2542     0.0083     0.2214     0.0868     0.3473     3.2514   138.8800     0.2084     0.6465
  436    8.700   2497.61     0.2523     0.0088     0.2205     0.0870     0.3453     3.4861   139.2000     0.2061     0.6523
  437    8.720   2501.87     0.2566     0.0088     0.2199     0.0872     0.3494     3.4580   139.5200     0.2099     0.6373
  438    8.740   2517.30     0.2622     0.0082     0.2170     0.0874     0.3537     3.1981   139.8400     0.2139     0.6114
  439    8.760   2532.73     0.2677     0.0084     0.2141     0.0876     0.3581     3.2275   140.1600     0.2179     0.5855
  440    8.780   2538.97     0.2719     0.0090     0.2136     0.0878     0.3617     3.3189   140.4800     0.2213     0.5702
  441    8.800   2539.94     0.2991     0.0096     0.2231     0.0880     0.3901     3.3354   140.8000     0.2493     0.5172
  442    8.820   2540.95     0.3448     0.0090     0.2135     0.0882     0.4366     2.7824   141.1200     0.2955     0.4430
  443    8.840   2541.90     0.3515     0.0093     0.1985     0.0884     0.4343     2.6207   141.4400     0.2929     0.3718
  444    8.860   2542.88     0.3380     0.0092     0.2023     0.0886     0.4224     2.6558   141.7600     0.2806     0.4005
  445    8.880   2543.86     0.3228     0.0090     0.2121     0.0888     0.4094     2.6914   142.0800     0.2673     0.4416
  446    8.900   2544.86     0.2877     0.0089     0.2203     0.0890     0.3795     3.0360   142.4000     0.2371     0.5468
  447    8.920   2545.81     0.2862     0.0092     0.2231     0.0892     0.3796     3.2029   142.7200     0.2369     0.5628
  448    8.940   2546.77     0.2810     0.0083     0.2257     0.0894     0.3752     2.9481   143.0400     0.2321     0.5812
  449    8.960   2547.74     0.2822     0.0081     0.2235     0.0896     0.3765     2.8446   143.3600     0.2332     0.5795
  450    8.980   2548.74     0.2750     0.0081     0.2269     0.0898     0.3697     2.9538   143.6800     0.2260     0.6002
  451    9.000   2549.71     0.2705     0.0079     0.2307     0.0900     0.3675     2.9222   144.0000     0.2235     0.6308
  452    9.020   2550.70     0.2732     0.0081     0.2343     0.0902     0.3706     2.9671   144.3200     0.2263     0.6257
  453    9.040   2551.68     0.2725     0.0078     0.2405     0.0904     0.3737     2.8521   144.6400     0.2290     0.6569
  454    9.060   2552.62     0.2696     0.0079     0.2413     0.0906     0.3705     2.9385   144.9600     0.2256     0.6639
  455    9.080   2553.59     0.2637     0.0083     0.2417     0.0908     0.3654     3.1016   145.2800     0.2201     0.6874
  456    9.100   2554.59     0.2826     0.0084     0.2346     0.0910     0.3828     2.9616   145.6000     0.2372     0.6227
  457    9.120   2555.55     0.2615     0.0077     0.2433     0.0912     0.3622     2.7986   145.9200     0.2163     0.6881
  458    9.140   2556.60     0.2716     0.0073     0.2498     0.0914     0.3759     2.7458   146.2400     0.2296     0.6833
  459    9.160   2557.58     0.2822     0.0077     0.2528     0.0916     0.3878     2.7416   146.5600     0.2412     0.6627
  460    9.180   2558.56     0.2809     0.0076     0.2559     0.0918     0.3890     2.6924   146.8800     0.2421     0.6843
  461    9.200   2559.52     0.2815     0.0081     0.2540     0.0920     0.3884     2.8447   147.2000     0.2412     0.6738
  462    9.220   2580.05     0.2860     0.0078     0.2458     0.0922     0.3906     2.7746   147.5200     0.2430     0.6456
  463    9.240   2617.99     0.2932     0.0080     0.2382     0.0924     0.3939     2.8188   147.8400     0.2460     0.5985
  464    9.260   2627.23     0.2908     0.0082     0.2464     0.0926     0.3928     2.7911   148.1600     0.2446     0.6145
  465    9.280   2628.19     0.2918     0.0080     0.2542     0.0928     0.3975     2.7519   148.4800     0.2490     0.6382
  466    9.300   2629.18     0.2887     0.0077     0.2581     0.0930     0.3969     2.6503   148.8000     0.2481     0.6631
  467    9.320   2630.14     0.2898     0.0081     0.2587     0.0932     0.3986     2.8071   149.1200     0.2495     0.6645
  468    9.340   2631.13     0.2903     0.0084     0.2600     0.0934     0.3985     2.8610   149.4400     0.2491     0.6594
  469    9.360   2632.11     0.2987     0.0082     0.2567     0.0936     0.4062     2.7259   149.7600     0.2565     0.6338
  470    9.380   2633.11     0.2950     0.0081     0.2582     0.0938     0.4035     2.7261   150.0800     0.2534     0.6495
  471    9.400   2634.02     0.2908     0.0080     0.2578     0.0940     0.3998     2.7198   150.4000     0.2494     0.6634
  472    9.420   2635.01     0.2857     0.0076     0.2601     0.0942     0.3941     2.6311   150.7200     0.2433     0.6739
  473    9.440   2636.00     0.2793     0.0077     0.2682     0.0944     0.3909     2.7802   151.0400     0.2398     0.7139
  474    9.460   2637.01     0.2841     0.0076     0.2753     0.0946     0.3988     2.6874   151.3600     0.2474     0.7214
  475    9.480   2637.97     0.2879     0.0076     0.2744     0.0948     0.4039     2.6685   151.6800     0.2523     0.7194
  476    9.500   2638.95     0.2919     0.0077     0.2749     0.0950     0.4071     2.6511   152.0000     0.2551     0.7029
  477    9.520   2639.88     0.3001     0.0080     0.2712     0.0952     0.4151     2.7040   152.3200     0.2628     0.6802
  478    9.540   2640.84     0.3067     0.0079     0.2687     0.0954     0.4198     2.5696   152.6400     0.2671     0.6505
  479    9.560   2641.83     0.3050     0.0080     0.2660     0.0956     0.4165     2.6105   152.9600     0.2635     0.6449
  480    9.580   2642.82     0.3034     0.0085     0.2673     0.0958     0.4158     2.7977   153.2800     0.2625     0.6545
  481    9.600   2643.79     0.3115     0.0089     0.2645     0.0960     0.4232     2.8610   153.6000     0.2696     0.6304
  482    9.620   2644.81     0.3098     0.0088     0.2588     0.0962     0.4171     2.8423   153.9200     0.2632     0.6052
  483    9.640   2645.81     0.3091     0.0086     0.2650     0.0964     0.4205     2.7808   154.2400     0.2663     0.6344
  484    9.660   2646.77     0.3135     0.0079     0.2658     0.0966     0.4252     2.5396   154.5600     0.2707     0.6257
  485    9.680   2647.81     0.3096     0.0084     0.2627     0.0968     0.4207     2.7244   154.8800     0.2658     0.6308
  486    9.700   2648.75     0.3026     0.0087     0.2605     0.0970     0.4120     2.8297   155.2000     0.2568     0.6371
  487    9.720   2649.73     0.3203     0.0087     0.2617     0.0972     0.4311     2.7868   155.5200     0.2755     0.6046
  488    9.740   2650.69     0.3359     0.0087     0.2504     0.0974     0.4434     2.5926   155.8400     0.2876     0.5514
  489    9.760   2651.70     0.3310     0.0091     0.2464     0.0976     0.4338     2.7298   156.1600     0.2777     0.5305
  490    9.780   2652.69     0.3085     0.0090     0.2497     0.0978     0.4130     2.8223   156.4800     0.2565     0.5893
  491    9.800   2653.63     0.2945     0.0089     0.2641     0.0980     0.4033     3.0144   156.8000     0.2465     0.6534
  492    9.820   2654.62     0.2959     0.0092     0.2744     0.0982     0.4102     3.1073   157.1200     0.2531     0.6874
  493    9.840   2655.61     0.3008     0.0094     0.2853     0.0984     0.4188     3.1578   157.4400     0.2614     0.6984
  494    9.860   2656.57     0.3101     0.0088     0.2910     0.0986     0.4319     2.8194   157.7600     0.2742     0.6981
  495    9.880   2657.56     0.3101     0.0069     0.2936     0.0988     0.4330     2.2243   158.0800     0.2750     0.7054
  496    9.900   2658.54     0.3166     0.0055     0.2979     0.0990     0.4410     1.7496   158.4000     0.2826     0.6974
  497    9.920   2659.51     0.3131     0.0059     0.3038     0.0992     0.4397     1.8724   158.7200     0.2810     0.7195
  498    9.940   2660.49     0.4056     0.0086     0.3255     0.0994     0.5383     2.7165   159.0400     0.3792     0.6116
  499    9.960   2661.47     0.7835     0.0112     0.2958     0.0996     0.9161     1.9612   159.3600     0.7568     0.3077
  500    9.980   2662.48     1.6153     0.0168     0.1885     0.0998     1.7088     1.5197   159.6800     1.5491     0.0938
  501   10.000   2663.47     2.0174     0.0192     0.1210     0.1000     2.0730     0.9927   160.0000     1.9130     0.0177
  502   10.020   2664.44     2.0047     0.0205     0.1213     0.1002     2.0551     1.0197   160.3200     1.8948     0.0105
  503   10.040   2665.38     1.9657     0.0223     0.1290     0.1004     2.0182     1.1253   160.6400     1.8576     0.0133
  504   10.060   2666.36     1.9884     0.0245     0.1358     0.1006     2.0448     1.2412   160.9600     1.8839     0.0178
  505   10.080   2667.33     2.0408     0.0277     0.1247     0.1008     2.0952     1.3753   161.2800     1.9339     0.0149
  506   10.100   2668.36     2.0385     0.0304     0.1103     0.1010     2.0865     1.4884   161.6000     1.9249     0.0069
  507   10.120   2669.34     1.9045     0.0338     0.1132     0.1012     1.9504     1.7692   161.9200     1.7885     0.0047
  508   10.140   2670.33     1.6735     0.0351     0.1239     0.1014     1.7247     2.0379   162.2400     1.5624     0.0131
  509   10.160   2671.32     1.5142     0.0335     0.1272     0.1016     1.5673     2.1793   162.5600     1.4048     0.0177
  510   10.180   2672.32     1.3423     0.0292     0.1428     0.1018     1.3997     2.1066   162.8800     1.2368     0.0287
  511   10.200   2673.29     1.2152     0.0238     0.1578     0.1020     1.2801     1.9493   163.2000     1.1169     0.0472
  512   10.220   2674.28     1.1958     0.0220     0.1576     0.1022     1.2623     1.8589   163.5200     1.0988     0.0510
  513   10.240   2675.28     1.3398     0.0222     0.1431     0.1024     1.4041     1.7293   163.8400     1.2403     0.0415
  514   10.260   2676.27     1.5431     0.0238     0.1178     0.1026     1.5954     1.5625   164.1600     1.4313     0.0155
  515   10.280   2677.23     1.5150     0.0245     0.1123     0.1028     1.5624     1.6025   164.4800     1.3980     0.0073
  516   10.300   2678.23     1.4146     0.0229     0.1134     0.1030     1.4617     1.5735   164.8000     1.2969     0.0070
  517   10.320   2679.22     1.2164     0.0222     0.1267     0.1032     1.2676     1.6166   165.1200     1.1025     0.0174
  518   10.340   2680.20     1.0591     0.0208     0.1414     0.1034     1.1167     1.8580   165.4400     0.9513     0.0356
  519   10.360   2681.16     1.0867     0.0184     0.1609     0.1036     1.1512     1.7795   165.7600     0.9855     0.0503
  520   10.380   2682.20     1.2119     0.0184     0.1535     0.1038     1.2778     1.5687   166.0800     1.1117     0.0478
  521   10.400   2683.19     1.3791     0.0178     0.1372     0.1040     1.4394     1.3619   166.4000     1.2730     0.0314
  522   10.420   2684.12     1.4381     0.0182     0.1220     0.1042     1.4914     1.2699   166.7200     1.3247     0.0171
  523   10.440   2685.08     1.3658     0.0207     0.1285     0.1044     1.4186     1.5045   167.0400     1.2516     0.0171
  524   10.460   2686.06     1.1902     0.0236     0.1463     0.1046     1.2482     1.8379   167.3600     1.0808     0.0317
  525   10.480   2687.05     1.0422     0.0255     0.1590     0.1048     1.1069     2.3432   167.6800     0.9392     0.0526
  526   10.500   2688.08     0.9631     0.0241     0.1798     0.1050     1.0350     2.4662   168.0000     0.8670     0.0769
  527   10.520   2689.05     0.8996     0.0204     0.1948     0.1052     0.9795     2.2472   168.3200     0.8112     0.1051
  528   10.540   2690.00     0.9170     0.0193     0.2009     0.1054     1.0007     2.1237   168.6400     0.8320     0.1129
  529   10.560   2690.98     1.0428     0.0186     0.1979     0.1056     1.1276     1.8637   168.9600     0.9586     0.1007
  530   10.580   2691.99     1.1904     0.0177     0.1811     0.1058     1.2689     1.5295   169.2800     1.0996     0.0748
  531   10.600   2692.97     1.2876     0.0158     0.1682     0.1060     1.3600     1.2309   169.6000     1.1904     0.0558
  532   10.620   2693.94     1.2710     0.0139     0.1604     0.1062     1.3394     1.0857   169.9200     1.1695     0.0486
  533   10.640   2694.96     1.0902     0.0136     0.1557     0.1064     1.1558     1.2311   170.2400     0.9855     0.0507
  534   10.660   2695.98     0.9140     0.0138     0.1577     0.1066     0.9790     1.3028   170.5600     0.8084     0.0598
  535   10.680   2696.95     0.7820     0.0148     0.1798     0.1068     0.8535     1.8019   170.8800     0.6826     0.0943
  536   10.700   2697.96     0.6922     0.0156     0.2083     0.1070     0.7755     2.2600   171.2000     0.6043     0.1506
  537   10.720   2698.94     0.7760     0.0174     0.2282     0.1072     0.8696     2.4234   171.5200     0.6981     0.1661
  538   10.740   2699.92     0.8856     0.0185     0.2453     0.1074     0.9859     2.2553   171.8400     0.8140     0.1614
  539   10.760   2700.91     1.3620     0.0181     0.2821     0.1076     1.4761     1.9753   172.1600     1.3040     0.1309
  540   10.780   2701.94     2.5447     0.0194     0.2672     0.1078     2.6590     1.2419   172.4800     2.4866     0.0769
  541   10.800   2702.97     4.2427     0.0299     0.1106     0.1080     4.3159     0.7991   172.8000     4.1431     0.0226
  542   10.820   2704.00     5.8190     0.0387     0.0452     0.1082     5.8441     0.7880   173.1200     5.6709    -0.0081
  543   10.840   2705.01     6.9242     0.0475     0.0261     0.1084     6.9338     0.7769   173.4400     6.7603    -0.0127
  544   10.860   2706.02     8.4751     0.0544     0.0332     0.1086     8.4882     0.7129   173.7600     8.3145    -0.0094
  545   10.880   2707.05    10.2777     0.0676     0.0288     0.1088    10.2907     0.7285   174.0800    10.1166    -0.0077
  546   10.900   2708.15    12.8415     0.0771     0.0604     0.1090    12.8652     0.6761   174.4000    12.6908    -0.0041
  547   10.920   2710.05    13.1033     0.0859     0.0717     0.1092    13.1318     0.6695   174.7200    12.9570    -0.0032
  548   10.940   2711.96    13.3651     0.0874     0.0831     0.1094    13.3983     0.6817   175.0400    13.2233    -0.0023
  549   10.960   2713.79    13.5511     0.0870     0.0900     0.1096    13.5887     0.6443   175.3600    13.4134    -0.0015
  550   10.980   2714.79    12.3248     0.0856     0.0963     0.1098    12.3648     0.6769   175.6800    12.1891    -0.0012
  551   11.000   2715.78    11.0919     0.0811     0.0937     0.1100    11.1315     0.7263   176.0000    10.9555    -0.0015
  552   11.020   2716.79     9.6422     0.0740     0.0951     0.1102     9.6819     0.7401   176.3200     9.5056    -0.0016
  553   11.040   2717.76     8.1029     0.0687     0.0961     0.1104     8.1431     0.8017   176.6400     7.9665    -0.0019
  554   11.060   2718.73     7.0140     0.0634     0.0974     0.1106     7.0547     0.8633   176.9600     6.8778    -0.0020
  555   11.080   2719.74     5.3760     0.0635     0.1008     0.1108     5.4179     1.0554   177.2800     5.2406    -0.0021
  556   11.100   2720.75     4.0111     0.0668     0.1012     0.1110     4.0536     1.5910   177.6000     3.8760    -0.0025
  557   11.120   2723.73     2.8041     0.0717     0.1041     0.1112     2.8471     2.3332   177.9200     2.6692    -0.0032
  558   11.140   2753.00     2.3598     0.0678     0.1091     0.1114     2.4049     2.7920   178.2400     2.2267    -0.0011
  559   11.160   2782.27     1.9155     0.0660     0.1140     0.1116     1.9627     2.7209   178.5600     1.7841     0.0011
  560   11.180   2801.13     1.4458     0.0662     0.1192     0.1118     1.4952     4.2456   178.8800     1.3163     0.0046
  561   11.200   2802.12     1.1955     0.0563     0.1201     0.1120     1.2459     4.3222   179.2000     1.0667     0.0074
  562   11.220   2803.14     1.0031     0.0452     0.1225     0.1122     1.0537     4.3463   179.5200     0.8742     0.0094
  563   11.240   2805.30     0.6603     0.0362     0.1275     0.1124     0.7148     4.7589   179.8400     0.5350     0.0326
  564   11.260   2808.56     0.5810     0.0262     0.1339     0.1126     0.6348     4.7861   180.1600     0.4547     0.0332
  565   11.280   2809.55     0.7023     0.0187     0.1550     0.1128     0.7628     2.6346   180.4800     0.5823     0.0540
  566   11.300   2810.54     0.6688     0.0151     0.2325     0.1130     0.7556     2.2274   180.8000     0.5748     0.1628
  567   11.320   2811.51     0.6639     0.0135     0.2628     0.1132     0.7703     2.0243   181.1200     0.5892     0.2374
  568   11.340   2812.45     0.6715     0.0132     0.2793     0.1134     0.7869     1.9876   181.4400     0.6055     0.2666
  569   11.360   2813.46     0.6485     0.0130     0.2992     0.1136     0.7706     1.9890   181.7600     0.5889     0.3018
  570   11.380   2814.41     0.5870     0.0130     0.3210     0.1138     0.7193     2.1603   182.0800     0.5372     0.3750
  571   11.400   2815.38     0.5645     0.0135     0.3361     0.1140     0.7032     2.3513   182.4000     0.5208     0.4158
  572   11.420   2816.42     0.5160     0.0136     0.3403     0.1142     0.6591     2.5993   182.7200     0.4763     0.4755
  573   11.440   2817.38     0.5119     0.0130     0.3494     0.1144     0.6583     2.5390   183.0400     0.4753     0.4929
  574   11.460   2818.37     0.5360     0.0122     0.3367     0.1146     0.6778     2.2893   183.3600     0.4945     0.4510
  575   11.480   2819.27     0.5319     0.0126     0.3361     0.1148     0.6737     2.3503   183.6800     0.4900     0.4547
  576   11.500   2820.22     0.5035     0.0125     0.3306     0.1150     0.6433     2.4742   184.0000     0.4593     0.4745
  577   11.520   2821.30     0.4755     0.0123     0.3356     0.1152     0.6151     2.5741   184.3200     0.4308     0.5045
  578   11.540   2822.29     0.4635     0.0124     0.3420     0.1154     0.6066     2.6559   184.6400     0.4220     0.5338
  579   11.560   2823.25     0.4556     0.0125     0.3463     0.1156     0.6005     2.6975   184.9600     0.4155     0.5519
  580   11.580   2824.16     0.4401     0.0117     0.3450     0.1158     0.5853     2.6347   185.2800     0.4000     0.5750
  581   11.600   2825.12     0.4362     0.0115     0.3545     0.1160     0.5837     2.6438   185.6000     0.3981     0.5905
  582   11.620   2826.13     0.4369     0.0118     0.3579     0.1162     0.5867     2.7010   185.9200     0.4007     0.5999
  583   11.640   2827.13     0.4392     0.0127     0.3607     0.1164     0.5905     2.8923   186.2400     0.4043     0.6034
  584   11.660   2828.20     0.4661     0.0137     0.3565     0.1166     0.6167     3.0087   186.5600     0.4302     0.5633
  585   11.680   2829.16     0.5204     0.0129     0.3306     0.1168     0.6643     2.7137   186.8800     0.4774     0.4760
  586   11.700   2830.13     0.5495     0.0142     0.3208     0.1170     0.6849     2.5724   187.2000     0.4977     0.4127
  587   11.720   2831.11     0.5424     0.0149     0.3179     0.1172     0.6758     2.7209   187.5200     0.4883     0.4108
  588   11.740   2832.07     0.5311     0.0144     0.3204     0.1174     0.6653     2.6633   187.8400     0.4775     0.4235
  589   11.760   2833.05     0.5498     0.0141     0.3127     0.1176     0.6827     2.6821   188.1600     0.4946     0.4027
  590   11.780   2834.03     0.5905     0.0138     0.3005     0.1178     0.7186     2.4404   188.4800     0.5301     0.3531
  591   11.800   2835.06     0.5678     0.0132     0.2951     0.1180     0.6921     2.3087   188.8000     0.5033     0.3534
  592   11.820   2836.07     0.5420     0.0128     0.2973     0.1182     0.6658     2.3415   189.1200     0.4767     0.3707
  593   11.840   2837.04     0.5330     0.0131     0.3032     0.1184     0.6598     2.4223   189.4400     0.4704     0.3902
  594   11.860   2838.00     0.4941     0.0129     0.3022     0.1186     0.6213     2.4759   189.7600     0.4316     0.4280
  595   11.880   2838.96     0.4573     0.0120     0.3122     0.1188     0.5867     2.6026   190.0800     0.3966     0.4775
  596   11.900   2839.92     0.4561     0.0122     0.3231     0.1190     0.5914     2.6632   190.4000     0.4010     0.5066
  597   11.920   2840.87     0.4672     0.0119     0.3251     0.1192     0.6035     2.5496   190.7200     0.4128     0.4973
  598   11.940   2841.88     0.4735     0.0116     0.3239     0.1194     0.6098     2.4387   191.0400     0.4188     0.4903
  599   11.960   2842.90     0.4637     0.0118     0.3218     0.1196     0.5986     2.5287   191.3600     0.4072     0.4950
  600   11.980   2843.90     0.4577     0.0128     0.3242     0.1198     0.5935     2.7828   191.6800     0.4018     0.5062
  601   12.000   2844.83     0.4605     0.0132     0.3258     0.1200     0.5971     2.8982   192.0000     0.4051     0.5068
  602   12.020   2845.82     0.4786     0.0132     0.3265     0.1202     0.6157     2.8092   192.3200     0.4234     0.4873
  603   12.040   2846.85     0.5280     0.0129     0.3198     0.1204     0.6637     2.5603   192.6400     0.4711     0.4310
  604   12.060   2847.86     0.5534     0.0121     0.3111     0.1206     0.6852     2.2156   192.9600     0.4922     0.3928
  605   12.080   2848.81     0.5598     0.0122     0.3037     0.1208     0.6883     2.1690   193.2800     0.4951     0.3740
  606   12.100   2849.77     0.5414     0.0138     0.2955     0.1210     0.6667     2.4770   193.6000     0.4731     0.3750
  607   12.120   2850.75     0.5203     0.0140     0.3010     0.1212     0.6458     2.6551   193.9200     0.4519     0.3930
  608   12.140   2851.77     0.5615     0.0138     0.3067     0.1214     0.6897     2.6684   194.2400     0.4954     0.3718
  609   12.160   2852.82     0.6543     0.0141     0.2944     0.1216     0.7809     2.2199   194.5600     0.5863     0.3074
  610   12.180   2853.83     0.7162     0.0135     0.2761     0.1218     0.8354     1.9600   194.8800     0.6405     0.2531
  611   12.200   2854.82     0.7428     0.0129     0.2618     0.1220     0.8542     1.7435   195.2000     0.6590     0.2171
  612   12.220   2855.80     0.7307     0.0139     0.2643     0.1222     0.8412     1.8948   195.5200     0.6457     0.2183
  613   12.240   2856.75     0.7236     0.0145     0.2667     0.1224     0.8355     2.0091   195.8400     0.6397     0.2250
  614   12.260   2857.74     0.7259     0.0146     0.2581     0.1226     0.8355     1.9991   196.1600     0.6393     0.2165
  615   12.280   2858.74     0.7099     0.0153     0.2592     0.1228     0.8180     2.1370   196.4800     0.6215     0.2167
  616   12.300   2859.70     0.6833     0.0158     0.2637     0.1230     0.7940     2.2763   196.8000     0.5972     0.2357
  617   12.320   2860.71     0.7100     0.0153     0.2651     0.1232     0.8211     2.2326   197.1200     0.6240     0.2266
  618   12.340   2861.70     0.7207     0.0148     0.2579     0.1234     0.8305     2.1116   197.4400     0.6331     0.2182
  619   12.360   2862.65     0.6708     0.0134     0.2574     0.1236     0.7785     1.9729   197.7600     0.5808     0.2291
  620   12.380   2863.66     0.5959     0.0117     0.2644     0.1238     0.7049     1.7887   198.0800     0.5068     0.2686
  621   12.400   2864.64     0.5786     0.0126     0.2804     0.1240     0.6947     2.0739   198.4000     0.4963     0.3072
  622   12.420   2865.55     0.5481     0.0135     0.2908     0.1242     0.6690     2.3592   198.7200     0.4702     0.3482
  623   12.440   2866.46     0.5217     0.0139     0.3051     0.1244     0.6469     2.5950   199.0400     0.4478     0.3880
  624   12.460   2867.42     0.5943     0.0142     0.3093     0.1246     0.7255     2.6347   199.3600     0.5262     0.3620
  625   12.480   2868.42     0.7343     0.0149     0.2623     0.1248     0.8596     2.1175   199.6800     0.6600     0.2634
  626   12.500   2880.51     0.8055     0.0150     0.2204     0.1250     0.9041     2.0971   200.0000     0.7041     0.1708
  627   12.520   2893.46     0.9088     0.0150     0.1785     0.1252     0.9898     2.0926   200.3200     0.7895     0.1004
  628   12.540   2906.42     1.0121     0.0164     0.1555     0.1254     1.0755     2.0955   200.6400     0.8749     0.0299
  629   12.560   2907.80     0.8947     0.0165     0.1783     0.1256     0.9653     1.7149   200.9600     0.7644     0.0558
  630   12.580   2908.81     0.8752     0.0166     0.1942     0.1258     0.9554     1.8927   201.2800     0.7541     0.0864
  631   12.600   2909.84     0.9545     0.0163     0.2033     0.1260     1.0385     1.7602   201.6000     0.8369     0.0886
  632   12.620   2910.81     1.0687     0.0172     0.2103     0.1262     1.1561     1.6805   201.9200     0.9542     0.0858
  633   12.640   2911.78     1.1903     0.0178     0.2099     0.1264     1.2785     1.5179   202.2400     1.0762     0.0778
  634   12.660   2912.81     1.2280     0.0176     0.2088     0.1266     1.3163     1.4501   202.5600     1.1137     0.0751
  635   12.680   2913.80     1.2707     0.0192     0.2030     0.1268     1.3571     1.5403   202.8800     1.1542     0.0684
  636   12.700   2914.83     1.3521     0.0195     0.1971     0.1270     1.4360     1.4538   203.2000     1.2328     0.0591
  637   12.720   2915.81     1.4074     0.0188     0.1862     0.1272     1.4872     1.3636   203.5200     1.2837     0.0489
  638   12.740   2916.79     1.4599     0.0185     0.1782     0.1274     1.5361     1.2932   203.8400     1.3323     0.0406
  639   12.760   2917.77     1.5683     0.0192     0.1712     0.1276     1.6413     1.2655   204.1600     1.4371     0.0322
  640   12.780   2918.78     1.6523     0.0265     0.1488     0.1278     1.7179     1.6129   204.4800     1.5134     0.0188
  641   12.800   2919.74     1.5742     0.0253     0.1318     0.1280     1.6315     1.5817   204.8000     1.4267     0.0058
  642   12.820   2920.74     1.4279     0.0246     0.1265     0.1282     1.4811     1.6819   205.1200     1.2760    -0.0012
  643   12.840   2921.72     1.2401     0.0273     0.1383     0.1284     1.2961     2.1188   205.4400     1.0906     0.0046
  644   12.860   2922.69     1.1355     0.0323     0.1486     0.1286     1.1965     2.7213   205.7600     0.9907     0.0168
  645   12.880   2923.67     1.1075     0.0343     0.1685     0.1288     1.1753     3.1386   206.0800     0.9692     0.0335
  646   12.900   2924.64     1.1617     0.0290     0.1722     0.1290     1.2347     2.4936   206.4000     1.0283     0.0435
  647   12.920   2925.62     1.1513     0.0242     0.1705     0.1292     1.2225     2.1271   206.7200     1.0158     0.0398
  648   12.940   2926.59     1.0184     0.0194     0.1783     0.1294     1.0922     1.8387   207.0400     0.8852     0.0525
  649   12.960   2927.60     0.8502     0.0182     0.1896     0.1296     0.9283     2.0527   207.3600     0.7210     0.0789
  650   12.980   2928.60     0.8384     0.0197     0.2052     0.1298     0.9224     2.4761   207.6800     0.7147     0.0986
  651   13.000   2929.57     1.1674     0.0210     0.2215     0.1300     1.2602     2.1688   208.0000     1.0522     0.0873
  652   13.020   2930.52     1.4671     0.0230     0.2048     0.1302     1.5574     1.6844   208.3200     1.3491     0.0630
  653   13.040   2931.49     1.5298     0.0214     0.1805     0.1304     1.6081     1.3994   208.6400     1.3995     0.0400
  654   13.060   2932.48     1.4182     0.0219     0.1693     0.1306     1.4906     1.4982   208.9600     1.2816     0.0325
  655   13.080   2933.49     1.2666     0.0230     0.1722     0.1308     1.3383     1.7604   209.2800     1.1291     0.0357
  656   13.100   2934.50     1.1710     0.0240     0.1822     0.1310     1.2460     2.0224   209.6000     1.0364     0.0460
  657   13.120   2935.49     1.0796     0.0238     0.1927     0.1312     1.1592     2.0581   209.9200     0.9493     0.0616
  658   13.140   2936.47     1.0022     0.0209     0.2050     0.1314     1.0856     2.0361   210.2400     0.8753     0.0772
  659   13.160   2937.44     0.8629     0.0210     0.2124     0.1316     0.9513     2.4134   210.5600     0.7408     0.1067
  660   13.180   2938.44     0.7228     0.0210     0.2253     0.1318     0.8148     2.7906   210.8800     0.6039     0.1457
  661   13.200   2939.44     0.6362     0.0216     0.2475     0.1320     0.7374     3.3001   211.2000     0.5262     0.2077
  662   13.220   2940.44     0.6632     0.0223     0.2682     0.1322     0.7724     3.4708   211.5200     0.5609     0.2278
  663   13.240   2941.41     0.8003     0.0229     0.2730     0.1324     0.9161     3.3628   211.8400     0.7043     0.2051
  664   13.260   2959.64     0.9024     0.0230     0.2312     0.1326     1.0055     2.7338   212.1600     0.7934     0.1488
  665   13.280   2983.03     0.9772     0.0217     0.1894     0.1328     1.0629     2.5661   212.4800     0.8504     0.0903
  666   13.300   3005.69     1.0475     0.0214     0.1669     0.1330     1.1163     2.1453   212.8000     0.9035     0.0340
  667   13.320   3006.69     0.9808     0.0203     0.1749     0.1332     1.0532     2.0188   213.1200     0.8401     0.0469
  668   13.340   3007.67     0.9121     0.0182     0.1847     0.1334     0.9881     1.9531   213.4400     0.7746     0.0616
  669   13.360   3008.59     0.8017     0.0169     0.1966     0.1336     0.8825     1.9318   213.7600     0.6688     0.0894
  670   13.380   3009.56     0.6904     0.0156     0.2078     0.1338     0.7754     2.1208   214.0800     0.5614     0.1229
  671   13.400   3010.54     0.6636     0.0175     0.2280     0.1340     0.7574     2.6138   214.4000     0.5430     0.1643
  672   13.420   3011.60     0.6535     0.0180     0.2412     0.1342     0.7527     2.6766   214.7200     0.5380     0.1900
  673   13.440   3012.57     0.6633     0.0167     0.2590     0.1344     0.7694     2.5601   215.0400     0.5544     0.2130
  674   13.460   3013.53     0.7119     0.0158     0.2638     0.1346     0.8215     2.2706   215.3600     0.6062     0.2084
  675   13.480   3014.52     0.7130     0.0172     0.2719     0.1348     0.8252     2.4073   215.6800     0.6096     0.2171
  676   13.500   3015.48     0.6444     0.0176     0.2769     0.1350     0.7602     2.6302   216.0000     0.5442     0.2586
  677   13.520   3016.39     0.6252     0.0178     0.2843     0.1352     0.7431     2.8375   216.3200     0.5268     0.2762
  678   13.540   3017.36     0.6347     0.0157     0.2906     0.1354     0.7561     2.4733   216.6400     0.5394     0.2847
  679   13.560   3018.29     0.6613     0.0133     0.2945     0.1356     0.7843     2.0257   216.9600     0.5673     0.2771
  680   13.580   3019.34     0.6793     0.0119     0.2970     0.1358     0.8039     1.7324   217.2800     0.5866     0.2746
  681   13.600   3020.37     0.7773     0.0114     0.2968     0.1360     0.9026     1.6368   217.6000     0.6850     0.2374
  682   13.620   3021.37     0.8655     0.0115     0.2871     0.1362     0.9878     1.4726   217.9200     0.7699     0.2020
  683   13.640   3022.37     0.9151     0.0126     0.2781     0.1364     1.0321     1.4161   218.2400     0.8139     0.1747
  684   13.660   3023.34     0.9074     0.0129     0.2844     0.1366     1.0254     1.3935   218.5600     0.8068     0.1791
  685   13.680   3024.32     0.8459     0.0137     0.2963     0.1368     0.9686     1.5727   218.8800     0.7497     0.2078
  686   13.700   3025.28     0.7803     0.0146     0.3078     0.1370     0.9080     1.8203   219.2000     0.6888     0.2429
  687   13.720   3026.27     0.7194     0.0153     0.3253     0.1372     0.8532     2.0482   219.5200     0.6337     0.2874
  688   13.740   3027.30     0.6957     0.0143     0.3424     0.1374     0.8385     2.0511   219.8400     0.6186     0.3273
  689   13.760   3028.28     0.7387     0.0138     0.3321     0.1376     0.8815     1.8773   220.1600     0.6613     0.3059
  690   13.780   3029.31     0.7500     0.0142     0.3142     0.1378     0.8841     1.9126   220.4800     0.6636     0.2734
  691   13.800   3030.26     0.7149     0.0141     0.3089     0.1380     0.8449     1.9231   220.8000     0.6241     0.2752
  692   13.820   3031.20     0.6875     0.0140     0.3102     0.1382     0.8173     2.0191   221.1200     0.5962     0.2868
  693   13.840   3032.19     0.6909     0.0142     0.3187     0.1384     0.8234     2.0642   221.4400     0.6020     0.2942
  694   13.860   3033.18     0.6771     0.0150     0.3213     0.1386     0.8117     2.1939   221.7600     0.5899     0.3082
  695   13.880   3034.16     0.6693     0.0154     0.3231     0.1388     0.8048     2.2927   222.0800     0.5827     0.3152
  696   13.900   3035.15     0.6788     0.0147     0.3257     0.1390     0.8152     2.1965   222.4000     0.5928     0.3135
  697   13.920   3036.10     0.7659     0.0139     0.3230     0.1392     0.9023     1.8751   222.7200     0.6795     0.2740
  698   13.940   3037.06     0.8062     0.0144     0.3124     0.1394     0.9390     1.7917   223.0400     0.7159     0.2468
  699   13.960   3038.04     0.7918     0.0152     0.3040     0.1396     0.9204     1.8869   223.3600     0.6971     0.2396
  700   13.980   3039.01     0.7211     0.0151     0.3070     0.1398     0.8487     2.0386   223.6800     0.6251     0.2626
  701   14.000   3039.99     0.6931     0.0151     0.3185     0.1400     0.8260     2.1435   224.0000     0.6020     0.2934
  702   14.020   3040.98     0.6941     0.0148     0.3229     0.1402     0.8285     2.0978   224.3200     0.6042     0.2979
  703   14.040   3042.00     0.6465     0.0134     0.3367     0.1404     0.7852     1.9637   224.6400     0.5606     0.3403
  704   14.060   3042.95     0.5748     0.0121     0.3466     0.1406     0.7190     2.0823   224.9600     0.4940     0.4105
  705   14.080   3043.93     0.5336     0.0126     0.3624     0.1408     0.6833     2.3161   225.2800     0.4580     0.4714
  706   14.100   3044.91     0.5111     0.0123     0.3752     0.1410     0.6670     2.3880   225.6000     0.4414     0.5215
  707   14.120   3045.92     0.5064     0.0120     0.3871     0.1412     0.6672     2.3681   225.9200     0.4413     0.5475
  708   14.140   3046.92     0.5037     0.0120     0.4011     0.1414     0.6709     2.3853   226.2400     0.4447     0.5773
  709   14.160   3047.90     0.5151     0.0124     0.4070     0.1416     0.6851     2.4158   226.5600     0.4586     0.5742
  710   14.180   3048.86     0.5315     0.0123     0.4069     0.1418     0.7029     2.3530   226.8800     0.4760     0.5595
  711   14.200   3049.92     0.5442     0.0122     0.4065     0.1420     0.7148     2.2347   227.2000     0.4876     0.5415
  712   14.220   3050.88     0.5434     0.0123     0.4066     0.1422     0.7148     2.2613   227.5200     0.4873     0.5457
  713   14.240   3051.90     0.5539     0.0128     0.4064     0.1424     0.7246     2.3269   227.8400     0.4968     0.5317
  714   14.260   3052.85     0.5585     0.0130     0.4052     0.1426     0.7286     2.3307   228.1600     0.5004     0.5240
  715   14.280   3053.80     0.5626     0.0134     0.4058     0.1428     0.7332     2.4009   228.4800     0.5047     0.5220
  716   14.300   3054.83     0.5578     0.0134     0.4072     0.1430     0.7288     2.3801   228.8000     0.5000     0.5285
  717   14.320   3055.84     0.5406     0.0130     0.4021     0.1432     0.7108     2.3599   229.1200     0.4817     0.5441
  718   14.340   3056.76     0.5170     0.0137     0.4068     0.1434     0.6870     2.5976   229.4400     0.4576     0.5716
  719   14.360   3057.75     0.4978     0.0140     0.4205     0.1436     0.6726     2.8069   229.7600     0.4428     0.6157
  720   14.380   3058.76     0.5163     0.0138     0.4295     0.1438     0.6955     2.6726   230.0800     0.4655     0.6080
  721   14.400   3059.73     0.5281     0.0133     0.4323     0.1440     0.7097     2.5444   230.4000     0.4793     0.6015
  722   14.420   3060.74     0.5185     0.0132     0.4330     0.1442     0.6996     2.5352   230.7200     0.4688     0.6118
  723   14.440   3061.73     0.5017     0.0134     0.4399     0.1444     0.6855     2.6262   231.0400     0.4545     0.6453
  724   14.460   3062.67     0.4878     0.0134     0.4464     0.1446     0.6743     2.7282   231.3600     0.4429     0.6758
  725   14.480   3063.63     0.4759     0.0131     0.4536     0.1448     0.6654     2.7535   231.6800     0.4337     0.7065
  726   14.500   3064.60     0.4651     0.0130     0.4580     0.1450     0.6568     2.7999   232.0000     0.4248     0.7332
  727   14.520   3065.58     0.4687     0.0132     0.4635     0.1452     0.6623     2.8202   232.3200     0.4300     0.7347
  728   14.540   3066.60     0.4711     0.0134     0.4658     0.1454     0.6666     2.8429   232.6400     0.4339     0.7372
  729   14.560   3067.60     0.4685     0.0138     0.4683     0.1456     0.6652     2.9416   232.9600     0.4323     0.7469
  730   14.580   3068.54     0.4761     0.0140     0.4689     0.1458     0.6732     2.9551   233.2800     0.4399     0.7354
  731   14.600   3069.57     0.4813     0.0143     0.4737     0.1460     0.6797     2.9777   233.6000     0.4461     0.7318
  732   14.620   3070.53     0.4813     0.0145     0.4778     0.1462     0.6816     3.0213   233.9200     0.4477     0.7390
  733   14.640   3071.56     0.4864     0.0146     0.4727     0.1464     0.6856     3.0075   234.2400     0.4514     0.7266
  734   14.660   3072.58     0.4778     0.0144     0.4779     0.1466     0.6776     3.0089   234.5600     0.4430     0.7430
  735   14.680   3073.60     0.4770     0.0148     0.4809     0.1468     0.6784     3.0989   234.8800     0.4436     0.7506
  736   14.700   3074.61     0.4871     0.0148     0.4792     0.1470     0.6887     3.0508   235.2000     0.4535     0.7344
  737   14.720   3075.57     0.4951     0.0148     0.4793     0.1472     0.6961     2.9814   235.5200     0.4606     0.7197
  738   14.740   3076.57     0.4979     0.0147     0.4796     0.1474     0.6992     2.9516   235.8400     0.4634     0.7162
  739   14.760   3077.62     0.4962     0.0145     0.4840     0.1476     0.6981     2.9205   236.1600     0.4620     0.7212
  740   14.780   3078.60     0.4849     0.0145     0.4896     0.1478     0.6894     2.9927   236.4800     0.4529     0.7489
  741   14.800   3079.59     0.4911     0.0148     0.4930     0.1480     0.6978     3.0141   236.8000     0.4610     0.7464
  742   14.820   3080.56     0.4926     0.0148     0.4953     0.1482     0.7001     3.0099   237.1200     0.4630     0.7472
  743   14.840   3081.52     0.4888     0.0146     0.4986     0.1484     0.6977     2.9867   237.4400     0.4603     0.7581
  744   14.860   3082.50     0.4901     0.0150     0.5003     0.1486     0.7003     3.0532   237.7600     0.4625     0.7607
  745   14.880   3083.53     0.4911     0.0152     0.5009     0.1488     0.7012     3.0971   238.0800     0.4631     0.7588
  746   14.900   3084.48     0.4943     0.0151     0.5015     0.1490     0.7049     3.0620   238.4000     0.4665     0.7553
  747   14.920   3085.47     0.4946     0.0152     0.5028     0.1492     0.7056     3.0724   238.7200     0.4669     0.7568
  748   14.940   3086.44     0.5062     0.0154     0.5018     0.1494     0.7174     3.0788   239.0400     0.4783     0.7387
  749   14.960   3087.43     0.5081     0.0156     0.4975     0.1496     0.7177     3.0859   239.3600     0.4783     0.7302
  750   14.980   3088.45     0.5095     0.0154     0.4946     0.1498     0.7176     3.0352   239.6800     0.4779     0.7233
  751   15.000   3089.41     0.5126     0.0159     0.4946     0.1500     0.7198     3.1107   240.0000     0.4798     0.7156
  752   15.020   3090.35     0.5102     0.0156     0.4982     0.1502     0.7191     3.0438   240.3200     0.4788     0.7251
  753   15.040   3101.45     0.5112     0.0158     0.4989     0.1504     0.7206     3.0971   240.6400     0.4800     0.7256
  754   15.060   3124.60     0.5190     0.0160     0.4998     0.1506     0.7287     3.1504   240.9600     0.4878     0.7155
  755   15.080   3144.10     0.5293     0.0165     0.5026     0.1508     0.7398     3.1670   241.2800     0.4985     0.7026
  756   15.100   3145.13     0.5411     0.0165     0.5078     0.1510     0.7538     3.0749   241.6000     0.5122     0.6940
  757   15.120   3146.10     0.5485     0.0166     0.5035     0.1512     0.7606     3.0414   241.9200     0.5187     0.6821
  758   15.140   3148.42     0.5475     0.0167     0.5076     0.1514     0.7601     3.0383   242.2400     0.5179     0.6851
  759   15.160   3151.39     0.5442     0.0167     0.5116     0.1516     0.7585     3.0455   242.5600     0.5159     0.6952
  760   15.180   3154.37     0.5409     0.0173     0.5182     0.1518     0.7568     3.1748   242.8800     0.5140     0.7052
  761   15.200   3155.36     0.5399     0.0171     0.5235     0.1520     0.7593     3.1771   243.2000     0.5161     0.7178
  762   15.220   3156.38     0.5437     0.0177     0.5291     0.1522     0.7652     3.2710   243.5200     0.5217     0.7192
  763   15.240   3157.37     0.5550     0.0182     0.5330     0.1524     0.7785     3.2954   243.8400     0.5346     0.7100
  764   15.260   3158.32     0.5649     0.0185     0.5348     0.1526     0.7894     3.2836   244.1600     0.5453     0.7004
  765   15.280   3159.32     0.5697     0.0182     0.5355     0.1528     0.7946     3.1785   244.4800     0.5501     0.6958
  766   15.300   3160.28     0.5741     0.0186     0.5368     0.1530     0.7990     3.2527   244.8000     0.5542     0.6899
  767   15.320   3161.25     0.6022     0.0193     0.5436     0.1532     0.8295     3.2600   245.1200     0.5844     0.6638
  768   15.340   3162.20     0.6408     0.0200     0.5562     0.1534     0.8722     3.2901   245.4400     0.6268     0.6359
  769   15.360   3163.17     0.7581     0.0203     0.5674     0.1536     0.9949     2.7899   245.7600     0.7492     0.5477
  770   15.380   3164.07     0.7988     0.0199     0.5540     0.1538     1.0359     2.5231   246.0800     0.7899     0.5200
  771   15.400   3165.02     0.7401     0.0199     0.5164     0.1540     0.9584     2.5945   246.4000     0.7120     0.5142
  772   15.420   3165.98     0.7099     0.0202     0.5051     0.1542     0.9185     2.8434   246.7200     0.6718     0.5109
  773   15.440   3166.93     0.6129     0.0184     0.5250     0.1544     0.8313     2.8848   247.0400     0.5842     0.6257
  774   15.460   3167.89     0.6052     0.0211     0.5389     0.1546     0.8300     3.4931   247.3600     0.5827     0.6535
  775   15.480   3168.89     0.6117     0.0210     0.5471     0.1548     0.8405     3.4560   247.6800     0.5928     0.6575
  776   15.500   3169.86     0.6106     0.0206     0.5505     0.1550     0.8413     3.3472   248.0000     0.5933     0.6647
  777   15.520   3170.85     0.6066     0.0207     0.5506     0.1552     0.8379     3.4140   248.3200     0.5896     0.6710
  778   15.540   3172.68     0.5818     0.0207     0.5406     0.1554     0.8115     3.6280   248.6400     0.5628     0.6996
  779   15.560   3174.69     0.5941     0.0205     0.5484     0.1556     0.8226     3.4780   248.9600     0.5737     0.6774
  780   15.580   3175.69     0.6014     0.0199     0.5513     0.1558     0.8328     3.3090   249.2800     0.5835     0.6774
  781   15.600   3176.70     0.6010     0.0201     0.5534     0.1560     0.8332     3.3350   249.6000     0.5836     0.6803
  782   15.620   3177.70     0.6046     0.0202     0.5550     0.1562     0.8374     3.3474   249.9200     0.5875     0.6777
  783   15.640   3178.71     0.6068     0.0205     0.5512     0.1564     0.8391     3.3795   250.2400     0.5889     0.6738
  784   15.660   3179.68     0.6193     0.0206     0.5474     0.1566     0.8498     3.3454   250.5600     0.5993     0.6546
  785   15.680   3180.66     0.6247     0.0212     0.5393     0.1568     0.8524     3.4028   250.8800     0.6015     0.6407
  786   15.700   3181.67     0.6190     0.0214     0.5341     0.1570     0.8438     3.4565   251.2000     0.5926     0.6382
  787   15.720   3182.67     0.6182     0.0219     0.5323     0.1572     0.8418     3.5405   251.5200     0.5903     0.6356
  788   15.740   3183.66     0.6260     0.0221     0.5312     0.1574     0.8491     3.5314   251.8400     0.5972     0.6260
  789   15.760   3184.66     0.6209     0.0220     0.5342     0.1576     0.8447     3.5464   252.1600     0.5926     0.6333
  790   15.780   3185.65     0.6147     0.0218     0.5362     0.1578     0.8400     3.5651   252.4800     0.5875     0.6446
  791   15.800   3186.63     0.6256     0.0216     0.5387     0.1580     0.8513     3.4600   252.8000     0.5985     0.6339
  792   15.820   3187.63     0.6198     0.0214     0.5418     0.1582     0.8470     3.4355   253.1200     0.5939     0.6444
  793   15.840   3188.59     0.6148     0.0213     0.5452     0.1584     0.8432     3.4682   253.4400     0.5898     0.6536
  794   15.860   3189.57     0.6173     0.0210     0.5468     0.1586     0.8468     3.4086   253.7600     0.5930     0.6540
  795   15.880   3190.57     0.6164     0.0209     0.5496     0.1588     0.8472     3.3852   254.0800     0.5931     0.6588
  796   15.900   3191.52     0.6128     0.0206     0.5487     0.1590     0.8433     3.3552   254.4000     0.5889     0.6621
  797   15.920   3192.47     0.6152     0.0205     0.5476     0.1592     0.8452     3.3412   254.7200     0.5905     0.6577
  798   15.940   3193.50     0.6213     0.0210     0.5486     0.1594     0.8518     3.3816   255.0400     0.5968     0.6528
  799   15.960   3194.50     0.6263     0.0208     0.5490     0.1596     0.8567     3.3256   255.3600     0.6014     0.6469
  800   15.980   3195.49     0.6287     0.0210     0.5474     0.1598     0.8587     3.3472   255.6800     0.6030     0.6432
  801   16.000   3196.48     0.6270     0.0210     0.5467     0.1600     0.8567     3.3511   256.0000     0.6007     0.6439
  802   16.020   3197.42     0.6186     0.0210     0.5460     0.1602     0.8483     3.3826   256.3200     0.5920     0.6532
  803   16.040   3198.40     0.6228     0.0209     0.5451     0.1604     0.8515     3.3559   256.6400     0.5949     0.6458
  804   16.060   3199.41     0.6166     0.0209     0.5454     0.1606     0.8457     3.3818   256.9600     0.5887     0.6536
  805   16.080   3200.38     0.6161     0.0208     0.5473     0.1608     0.8459     3.3787   257.2800     0.5886     0.6563
  806   16.100   3201.37     0.6133     0.0205     0.5461     0.1610     0.8430     3.3411   257.6000     0.5854     0.6591
  807   16.120   3202.37     0.6077     0.0204     0.5459     0.1612     0.8370     3.3446   257.9200     0.5791     0.6645
  808   16.140   3203.39     0.6089     0.0206     0.5469     0.1614     0.8386     3.3692   258.2400     0.5804     0.6642
  809   16.160   3204.38     0.6015     0.0202     0.5466     0.1616     0.8307     3.3488   258.5600     0.5722     0.6716
  810   16.180   3205.30     0.6011     0.0206     0.5473     0.1618     0.8310     3.4223   258.8800     0.5721     0.6737
  811   16.200   3206.31     0.6004     0.0206     0.5485     0.1620     0.8305     3.4207   259.2000     0.5713     0.6754
  812   16.220   3207.30     0.6008     0.0206     0.5481     0.1622     0.8311     3.4195   259.5200     0.5716     0.6755
  813   16.240   3208.31     0.5936     0.0205     0.5477     0.1624     0.8235     3.4312   259.8400     0.5637     0.6831
  814   16.260   3209.32     0.6050     0.0206     0.5505     0.1626     0.8355     3.4176   260.1600     0.5754     0.6713
  815   16.280   3210.30     0.5986     0.0208     0.5544     0.1628     0.8311     3.4586   260.4800     0.5706     0.6850
  816   16.300   3211.28     0.5999     0.0208     0.5557     0.1630     0.8331     3.4847   260.8000     0.5723     0.6854
  817   16.320   3212.24     0.6019     0.0210     0.5576     0.1632     0.8357     3.5112   261.1200     0.5746     0.6847
  818   16.340   3213.20     0.6111     0.0210     0.5567     0.1634     0.8451     3.4499   261.4400     0.5837     0.6749
  819   16.360   3214.18     0.6143     0.0213     0.5589     0.1636     0.8486     3.4685   261.7600     0.5869     0.6720
  820   16.380   3215.16     0.6164     0.0220     0.5621     0.1638     0.8521     3.5748   262.0800     0.5901     0.6735
  821   16.400   3216.14     0.6154     0.0201     0.5643     0.1640     0.8521     3.2836   262.4000     0.5897     0.6776
  822   16.420   3217.14     0.6275     0.0111     0.5715     0.1642     0.8663     1.7980   262.7200     0.6036     0.6698
  823   16.440   3218.12     0.6369     0.0106     0.5791     0.1644     0.8786     1.6646   263.0400     0.6156     0.6677
  824   16.460   3219.10     0.6775     0.0162     0.6036     0.1646     0.9277     2.4746   263.3600     0.6643     0.6494
  825   16.480   3220.11     1.0360     0.0256     0.6194     0.1648     1.2959     3.1422   263.6800     1.0322     0.4547
  826   16.500   3221.12     2.7590     0.0374     0.5411     0.1650     3.0028     1.9328   264.0000     2.7388     0.1625
  827   16.520   3222.16     6.2696     0.0530     0.2186     0.1652     6.3929     1.0578   264.3200     6.1285     0.0231
  828   16.540   3223.25     9.9749     0.0709     0.1693     0.1654    10.0491     0.7751   264.6400     9.7844     0.0012
  829   16.560   3224.27    12.6354     0.0914     0.1637     0.1656    12.7048     0.7561   264.9600    12.4398     0.0000
  830   16.580   3225.31    14.3303     0.1108     0.1611     0.1658    14.3981     0.7905   265.2800    14.1329    -0.0003
  831   16.600   3226.39    15.3004     0.1208     0.1648     0.1660    15.3689     0.8017   265.6000    15.1033    -0.0002
  832   16.620   3227.43    15.5548     0.1241     0.1694     0.1662    15.6252     0.7997   265.9200    15.3593     0.0001
  833   16.640   3228.54    15.3769     0.1281     0.1741     0.1664    15.4494     0.8300   266.2400    15.1832     0.0004
  834   16.660   3229.62    15.1700     0.1290     0.1802     0.1666    15.2446     0.8440   266.5600    14.9781     0.0007
  835   16.680   3230.68    14.6395     0.1228     0.1838     0.1668    14.7163     0.8279   266.8800    14.4494     0.0011
  836   16.700   3231.71    14.0231     0.1071     0.1780     0.1670    14.0990     0.7480   267.2000    13.8318     0.0010
  837   16.720   3232.74    13.4269     0.0908     0.1592     0.1672    13.4987     0.6659   267.5200    13.2312     0.0003
  838   16.740   3233.82    12.7179     0.0834     0.1157     0.1674    12.7721     0.6368   267.8400    12.5043    -0.0031
  839   16.760   3234.85    12.0190     0.0782     0.0613     0.1676    12.0524     0.6343   268.1600    11.7842    -0.0075
  840   16.780   3235.88    11.4903     0.0646     0.0340     0.1678    11.5071     0.5606   268.4800    11.2386    -0.0114
  841   16.800   3236.90    11.2042     0.0556     0.0150     0.1680    11.2126     0.4950   268.8000    10.9438    -0.0135
  842   16.820   3237.90    10.9459     0.0529     0.0007     0.1682    10.9489     0.4727   269.1200    10.6798    -0.0151
  843   16.840   3238.93    10.5303     0.0533    -0.0143     0.1684    10.5272     0.5024   269.4400    10.2577    -0.0171
  844   16.860   3239.98     9.9448     0.0575    -0.0255     0.1686     9.9349     0.5669   269.7600     9.6652    -0.0199
  845   16.880   3240.95     9.3730     0.0638    -0.0167     0.1688     9.3645     0.6742   270.0800     9.0944    -0.0208
  846   16.900   3241.91     8.9142     0.0677    -0.0082     0.1690     8.9097     0.7533   270.4000     8.6393    -0.0208
  847   16.920   3242.89     8.6346     0.0712    -0.0010     0.1692     8.6327     0.8211   270.7200     8.3620    -0.0208
  848   16.940   3243.90     8.4873     0.0744     0.0067     0.1694     8.4891     0.8749   271.0400     8.2181    -0.0201
  849   16.960   3244.90     8.4546     0.0774     0.0178     0.1696     8.4593     0.9146   271.3600     8.1880    -0.0193
  850   16.980   3245.94     8.3357     0.0823     0.0261     0.1698     8.3457     0.9887   271.6800     8.0741    -0.0181
  851   17.000   3246.89     8.2433     0.0906     0.0333     0.1700     8.2559     1.0989   272.0000     7.9839    -0.0175
  852   17.020   3247.94     8.1311     0.0930     0.0415     0.1702     8.1470     1.1391   272.3200     7.8747    -0.0168
  853   17.040   3248.94     7.9916     0.0932     0.0482     0.1704     8.0108     1.1619   272.6400     7.7382    -0.0161
  854   17.060   3249.98     7.8705     0.0932     0.0566     0.1706     7.8929     1.1804   272.9600     7.6200    -0.0154
  855   17.080   3251.36     7.6624     0.0923     0.0834     0.1708     7.6895     1.2582   273.2800     7.4162    -0.0143
  856   17.100   3285.06     7.6096     0.0915     0.1385     0.1710     7.6598     1.2775   273.6000     7.3862    -0.0070
  857   17.120   3309.22     7.5307     0.0908     0.1630     0.1712     7.5983     1.2166   273.9200     7.3244    -0.0014
  858   17.140   3310.30     7.3683     0.0890     0.1671     0.1714     7.4378     1.2027   274.2400     7.1635    -0.0008
  859   17.160   3311.36     7.2136     0.0870     0.1702     0.1716     7.2849     1.2024   274.5600     7.0103    -0.0003
  860   17.180   3312.40     7.0344     0.0853     0.1736     0.1718     7.1064     1.2073   274.8800     6.8315    -0.0001
  861   17.200   3313.38     6.8463     0.0826     0.1768     0.1720     6.9203     1.2013   275.2000     6.6451     0.0006
  862   17.220   3314.38     6.6400     0.0779     0.1782     0.1722     6.7148     1.1662   275.5200     6.4393     0.0009
  863   17.240   3315.37     6.4200     0.0726     0.1815     0.1724     6.4957     1.1258   275.8400     6.2198     0.0013
  864   17.260   3316.35     6.1771     0.0690     0.1825     0.1726     6.2536     1.1132   276.1600     5.9774     0.0016
  865   17.280   3317.32     5.9237     0.0665     0.1828     0.1728     6.0008     1.1180   276.4800     5.7243     0.0019
  866   17.300   3318.34     5.6721     0.0631     0.1669     0.1730     5.7444     1.1057   276.8000     5.4676    -0.0002
  867   17.320   3319.34     5.3875     0.0601     0.1645     0.1732     5.4564     1.1073   277.1200     5.1792    -0.0018
  868   17.340   3320.34     5.0713     0.0565     0.1701     0.1734     5.1418     1.1086   277.4400     4.8644    -0.0011
  869   17.360   3321.31     4.8062     0.0547     0.1762     0.1736     4.8795     1.1309   277.7600     4.6017     0.0002
  870   17.380   3322.32     4.5740     0.0516     0.1811     0.1738     4.6493     1.1208   278.0800     4.3712     0.0012
  871   17.400   3323.30     4.3698     0.0486     0.1848     0.1740     4.4469     1.1075   278.4000     4.1685     0.0023
  872   17.420   3324.31     4.2122     0.0462     0.1880     0.1742     4.2907     1.0911   278.7200     4.0120     0.0032
  873   17.440   3325.36     4.0551     0.0430     0.1884     0.1744     4.1346     1.0553   279.0400     3.8555     0.0038
  874   17.460   3326.33     3.8704     0.0395     0.1817     0.1746     3.9485     1.0074   279.3600     3.6692     0.0031
  875   17.480   3327.29     3.7011     0.0365     0.1720     0.1748     3.7740     0.9757   279.6800     3.4943    -0.0004
  876   17.500   3328.25     3.5521     0.0350     0.1718     0.1750     3.6244     0.9824   280.0000     3.3444    -0.0009
  877   17.520   3329.25     3.4505     0.0347     0.1701     0.1752     3.5221     1.0052   280.3200     3.2418    -0.0015
  878   17.540   3330.30     3.4207     0.0343     0.1659     0.1754     3.4908     1.0021   280.6400     3.2101    -0.0027
  879   17.560   3331.26     3.4723     0.0338     0.1615     0.1756     3.5416     0.9767   280.9600     3.2606    -0.0033
  880   17.580   3332.24     3.6069     0.0323     0.1467     0.1758     3.6699     0.9007   281.2800     3.3886    -0.0077
  881   17.600   3333.26     3.8749     0.0304     0.1363     0.1760     3.9342     0.7911   281.6000     3.6526    -0.0095
  882   17.620   3334.28     4.2489     0.0316     0.1187     0.1762     4.3013     0.7482   281.9200     4.0194    -0.0128
  883   17.640   3335.32     4.6578     0.0345     0.0996     0.1764     4.7025     0.7492   282.2400     4.4203    -0.0158
  884   17.660   3336.32     5.0263     0.0395     0.0885     0.1766     5.0647     0.7889   282.5600     4.7821    -0.0178
  885   17.680   3337.30     5.4084     0.0448     0.0828     0.1768     5.4432     0.8318   282.8800     5.1604    -0.0182
  886   17.700   3338.28     5.7642     0.0517     0.0901     0.1770     5.8010     0.9005   283.2000     5.5178    -0.0162
  887   17.720   3339.31     6.0445     0.0593     0.0959     0.1772     6.0837     0.9831   283.5200     5.8002    -0.0145
  888   17.740   3340.33     6.2125     0.0639     0.1018     0.1774     6.2543     1.0307   283.8400     5.9705    -0.0130
  889   17.760   3341.35     6.1957     0.0669     0.1081     0.1776     6.2404     1.0799   284.1600     5.9563    -0.0119
  890   17.780   3342.32     6.0774     0.0686     0.1138     0.1778     6.1242     1.1274   284.4800     5.8397    -0.0114
  891   17.800   3343.37     5.8333     0.0693     0.1208     0.1780     5.8829     1.1810   284.8000     5.5981    -0.0107
  892   17.820   3344.35     5.5467     0.0679     0.1266     0.1782     5.5996     1.2144   285.1200     5.3145    -0.0098
  893   17.840   3345.35     5.2160     0.0655     0.1318     0.1784     5.2703     1.2396   285.4400     4.9849    -0.0098
  894   17.860   3346.35     4.8924     0.0606     0.1367     0.1786     4.9491     1.2260   285.7600     4.6633    -0.0094
  895   17.880   3347.35     4.5526     0.0567     0.1431     0.1788     4.6118     1.2338   286.0800     4.3257    -0.0088
  896   17.900   3348.36     4.2138     0.0535     0.1506     0.1790     4.2760     1.2487   286.4000     3.9896    -0.0077
  897   17.920   3349.29     3.8965     0.0483     0.1573     0.1792     3.9615     1.2231   286.7200     3.6748    -0.0066
  898   17.940   3350.25     3.5730     0.0419     0.1657     0.1794     3.6412     1.1637   287.0400     3.3542    -0.0051
  899   17.960   3351.28     3.2251     0.0371     0.1753     0.1796     3.2974     1.1323   287.3600     3.0100    -0.0024
  900   17.980   3352.31     2.9297     0.0349     0.1856     0.1798     3.0061     1.1550   287.6800     2.7184     0.0008
  901   18.000   3353.31     2.7115     0.0331     0.1978     0.1800     2.7927     1.1800   288.0000     2.5047     0.0053
  902   18.020   3354.29     2.5420     0.0312     0.2134     0.1802     2.6294     1.2049   288.3200     2.3410     0.0119
  903   18.040   3355.25     2.4158     0.0240     0.2288     0.1804     2.5095     0.9804   288.6400     2.2209     0.0193
  904   18.060   3356.26     2.3167     0.0233     0.2434     0.1806     2.4170     1.0010   288.9600     2.1280     0.0273
  905   18.080   3357.23     2.2377     0.0237     0.2516     0.1808     2.3427     1.0416   289.2800     2.0534     0.0337
  906   18.100   3358.23     2.1928     0.0237     0.2563     0.1810     2.2998     1.0516   289.6000     2.0102     0.0368
  907   18.120   3359.23     2.1479     0.0242     0.2611     0.1812     2.2569     1.0759   289.9200     1.9670     0.0399
  908   18.140   3360.24     2.0627     0.0259     0.2847     0.1814     2.1768     1.2164   290.2400     1.8865     0.0479
  909   18.160   3361.26     2.0174     0.0279     0.2928     0.1816     2.1399     1.3838   290.5600     1.8494     0.0596
  910   18.180   3362.29     2.0592     0.0306     0.2917     0.1818     2.1818     1.4944   290.8800     1.8909     0.0582
  911   18.200   3363.29     2.1932     0.0335     0.2837     0.1820     2.3142     1.5448   291.2000     2.0230     0.0525
  912   18.220   3364.31     2.4464     0.0365     0.2666     0.1822     2.5614     1.5027   291.5200     2.2699     0.0404
  913   18.240   3365.26     2.8297     0.0362     0.2352     0.1824     2.9344     1.3212   291.8400     2.6426     0.0255
  914   18.260   3366.30     3.4181     0.0338     0.1869     0.1826     3.5040     1.0622   292.1600     3.2118     0.0070
  915   18.280   3367.31     4.1252     0.0301     0.1228     0.1828     4.1852     0.7958   292.4800     3.8927    -0.0101
  916   18.300   3368.31     4.8203     0.0281     0.0702     0.1830     4.8573     0.6256   292.8000     4.5645    -0.0207
  917   18.320   3369.35     5.5732     0.0289     0.0363     0.1832     5.5915     0.5536   293.1200     5.2984    -0.0263
  918   18.340   3370.41     6.3781     0.0340     0.0257     0.1834     6.3897     0.5663   293.4400     6.0963    -0.0256
  919   18.360   3371.42     7.1849     0.0421     0.0265     0.1836     7.1964     0.6166   293.7600     6.9026    -0.0227
  920   18.380   3372.47     8.0320     0.0497     0.0330     0.1838     8.0443     0.6499   294.0800     7.7502    -0.0199
  921   18.400   3373.43     8.8344     0.0606     0.0444     0.1840     8.8511     0.7123   294.4000     8.5567    -0.0169
  922   18.420   3374.43     9.7230     0.0719     0.0560     0.1842     9.7445     0.7613   294.7200     9.4498    -0.0141
  923   18.440   3375.51    10.6039     0.0841     0.0677     0.1844    10.6308     0.8126   295.0400    10.3358    -0.0117
  924   18.460   3376.58    11.3471     0.0907     0.0799     0.1846    11.3790     0.8188   295.3600    11.0836    -0.0098
  925   18.480   3377.61    11.9798     0.1019     0.0922     0.1848    12.0167     0.8634   295.6800    11.7210    -0.0083
  926   18.500   3378.65    12.5350     0.1139     0.1063     0.1850    12.5775     0.9168   296.0000    12.2815    -0.0068
  927   18.520   3379.68    13.0176     0.1224     0.1213     0.1852    13.0664     0.9449   296.3200    12.7700    -0.0054
  928   18.540   3380.79    13.5066     0.1322     0.1351     0.1854    13.5616     0.9846   296.6400    13.2649    -0.0041
  929   18.560   3381.80    13.8235     0.1417     0.1455     0.1856    13.8830     1.0288   296.9600    13.5860    -0.0032
  930   18.580   3382.86    14.3241     0.1500     0.1612     0.1858    14.3897     1.0501   297.2800    14.0924    -0.0021
  931   18.600   3383.98    14.8436     0.1600     0.1757     0.1860    14.9150     1.0806   297.6000    14.6174    -0.0011
  932   18.620   3385.08    15.2014     0.1687     0.1824     0.1862    15.2780     1.1143   297.9200    14.9801    -0.0003
  933   18.640   3386.17    15.7135     0.1758     0.1883     0.1864    15.7917     1.1235   298.2400    15.4935     0.0000
  934   18.660   3387.27    16.1227     0.1820     0.1896     0.1866    16.2021     1.1325   298.5600    15.9035     0.0002
  935   18.680   3388.34    16.4190     0.1880     0.1906     0.1868    16.4988     1.1470   298.8800    16.1999     0.0002
  936   18.700   3389.45    16.6335     0.1934     0.1908     0.1870    16.7137     1.1644   299.2000    16.4145     0.0002
  937   18.720   3390.50    16.7896     0.1985     0.1917     0.1872    16.8699     1.1829   299.5200    16.5704     0.0003
  938   18.740   3391.58    16.8955     0.2016     0.1948     0.1874    16.9769     1.1936   299.8400    16.6771     0.0004
  939   18.760   3392.68    16.9672     0.2024     0.1931     0.1876    17.0484     1.1926   300.1600    16.7483     0.0003
  940   18.780   3393.78    16.9989     0.2034     0.1934     0.1878    17.0797     1.1968   300.4800    16.7792     0.0003
  941   18.800   3394.87    17.1145     0.2031     0.1925     0.1880    17.1953     1.1874   300.8000    16.8945     0.0002
  942   18.820   3395.98    17.3354     0.2044     0.1935     0.1882    17.4165     1.1811   301.1200    17.1154     0.0003
  943   18.840   3397.06    17.7072     0.2057     0.1984     0.1884    17.7896     1.1642   301.4400    17.4882     0.0005
  944   18.860   3398.11    18.3020     0.2106     0.1911     0.1886    18.3832     1.1547   301.7600    18.0814     0.0003
  945   18.880   3399.24    19.0746     0.2156     0.1926     0.1888    19.1556     1.1322   302.0800    18.8536     0.0002
  946   18.900   3400.32    19.9978     0.2213     0.1909     0.1890    20.0777     1.1093   302.4000    19.7753     0.0001
  947   18.920   3401.46    21.0171     0.2270     0.1928     0.1892    21.0983     1.0865   302.7200    20.7956     0.0002
  948   18.940   3402.51    21.9437     0.2354     0.1937     0.1894    22.0240     1.0785   303.0400    21.7209     0.0001
  949   18.960   3403.60    22.7075     0.2425     0.1880     0.1896    22.7884     1.0756   303.3600    22.4850     0.0001
  950   18.980   3409.19    23.0164     0.2441     0.1867     0.1898    23.0951     1.0596   303.6800    22.7914    -0.0001
  951   19.000   3430.77    22.7229     0.2396     0.1851     0.1900    22.8008     1.0381   304.0000    22.4968    -0.0002
  952   19.020   3452.35    22.4293     0.2340     0.1835     0.1902    22.5066     1.0140   304.3200    22.2023    -0.0003
  953   19.040   3462.97    21.9931     0.2257     0.1840     0.1904    22.0703     1.0162   304.6400    21.7657    -0.0003
  954   19.060   3463.97    21.1206     0.2142     0.1793     0.1906    21.1966     0.9977   304.9600    20.8916    -0.0005
  955   19.080   3464.93    19.9154     0.1958     0.1722     0.1908    19.9888     0.9656   305.2800    19.6835    -0.0008
  956   19.100   3465.86    18.4605     0.1760     0.1713     0.1910    18.5322     0.9372   305.6000    18.2266    -0.0011
  957   19.120   3466.80    16.8502     0.1517     0.1701     0.1912    16.9218     0.8935   305.9200    16.6159    -0.0013
  958   19.140   3467.75    14.9416     0.1367     0.1687     0.1914    15.0129     0.8761   306.2400    14.7067    -0.0015
  959   19.160   3468.70    13.2489     0.1189     0.1646     0.1916    13.3185     0.8525   306.5600    13.0119    -0.0020
  960   19.180   3469.79    11.7081     0.1057     0.1634     0.1918    11.7766     0.8993   306.8800    11.4697    -0.0025
  961   19.200   3470.81    10.3339     0.0972     0.1645     0.1920    10.4032     0.9311   307.2000    10.0960    -0.0027
  962   19.220   3471.80     8.7873     0.0931     0.1634     0.1922     8.8561     1.0463   307.5200     8.5486    -0.0033
  963   19.240   3472.85     7.3645     0.0936     0.1624     0.1924     7.4329     1.2045   307.8400     7.1251    -0.0041
  964   19.260   3473.87     6.2720     0.0948     0.1646     0.1926     6.3405     1.4930   308.1600     6.0323    -0.0049
  965   19.280   3474.88     5.2930     0.0908     0.1711     0.1928     5.3637     1.6829   308.4800     5.0552    -0.0048
  966   19.300   3475.84     4.5434     0.0668     0.1814     0.1930     4.6173     1.4450   308.8000     4.3085    -0.0039
  967   19.320   3476.85     3.9577     0.0401     0.2099     0.1932     4.0411     0.9975   309.1200     3.7320     0.0014
  968   19.340   3477.89     3.7331     0.0282     0.2345     0.1934     3.8298     0.7517   309.4400     3.5204     0.0105
  969   19.360   3478.92     3.7085     0.0227     0.1941     0.1936     3.7994     0.6112   309.7600     3.4897     0.0065
  970   19.380   3479.90     3.6430     0.0208     0.1168     0.1938     3.6997     0.5670   310.0800     3.3896    -0.0174
  971   19.400   3480.86     3.2866     0.0217     0.0845     0.1940     3.3250     0.6497   310.4000     3.0146    -0.0341
  972   19.420   3481.83     2.8377     0.0228     0.0886     0.1942     2.8730     0.7901   310.7200     2.5623    -0.0429
  973   19.440   3482.85     2.4919     0.0221     0.1093     0.1944     2.5339     0.8760   311.0400     2.2229    -0.0424
  974   19.460   3483.88     2.2262     0.0226     0.1325     0.1946     2.2787     1.0001   311.3600     1.9674    -0.0354
  975   19.480   3484.84     2.0937     0.0277     0.1591     0.1948     2.1562     1.3172   311.6800     1.8446    -0.0249
  976   19.500   3485.79     2.0049     0.0355     0.1922     0.1950     2.0807     1.7425   312.0000     1.7687    -0.0082
  977   19.520   3486.80     1.9861     0.0426     0.2290     0.1952     2.0768     2.1550   312.3200     1.7644     0.0117
  978   19.540   3487.83     2.2265     0.0422     0.2645     0.1954     2.3328     2.0159   312.6400     2.0202     0.0285
  979   19.560   3488.81     2.8859     0.0344     0.2864     0.1956     3.0042     1.3434   312.9600     2.6913     0.0320
  980   19.580   3489.87     4.0390     0.0278     0.2638     0.1958     4.1584     0.7869   313.2800     3.8451     0.0232
  981   19.600   3490.92     5.3763     0.0273     0.1300     0.1960     5.4542     0.5639   313.6000     5.1406    -0.0019
  982   19.620   3491.95     6.4188     0.0290     0.0213     0.1962     6.4405     0.4824   313.9200     6.1266    -0.0236
  983   19.640   3493.01     7.1546     0.0322    -0.0227     0.1964     7.1478     0.4636   314.2400     6.8336    -0.0311
  984   19.660   3494.01     7.7206     0.0346    -0.0260     0.1966     7.7098     0.4635   314.5600     7.3953    -0.0300
  985   19.680   3495.05     8.2125     0.0400    -0.0196     0.1968     8.2035     0.4979   314.8800     7.8886    -0.0277
  986   19.700   3496.05     8.6698     0.0479    -0.0090     0.1970     8.6641     0.5651   315.2000     8.3489    -0.0252
  987   19.720   3497.08     9.1199     0.0568     0.0044     0.1972     9.1197     0.6349   315.5200     8.8041    -0.0225
  988   19.740   3498.13     9.4484     0.0632     0.0136     0.1974     9.4530     0.6771   315.8400     9.1371    -0.0204
  989   19.760   3499.14     9.6460     0.0671     0.0217     0.1976     9.6537     0.7001   316.1600     9.3375    -0.0192
  990   19.780   3500.19     9.8847     0.0717     0.0335     0.1978     9.8972     0.7350   316.4800     9.5807    -0.0175
  991   19.800   3501.19    10.2200     0.0781     0.0454     0.1980    10.2371     0.7752   316.8000     9.9203    -0.0159
  992   19.820   3502.24    10.6915     0.0812     0.0601     0.1982    10.7145     0.7735   317.1200    10.3974    -0.0138
  993   19.840   3503.27    11.3365     0.0840     0.0745     0.1984    11.3657     0.7544   317.4400    11.0482    -0.0117
  994   19.860   3504.35    12.1224     0.0864     0.0899     0.1986    12.1581     0.7309   317.7600    11.8403    -0.0096
  995   19.880   3505.36    12.9145     0.0900     0.1042     0.1988    12.9564     0.7106   318.0800    12.6384    -0.0078
  996   19.900   3506.41    13.5966     0.0953     0.1163     0.1990    13.6444     0.7110   318.4000    13.3260    -0.0064
  997   19.920   3507.44    13.9318     0.1021     0.1260     0.1992    13.9825     0.7366   318.7200    13.6638    -0.0057
  998   19.940   3508.52    14.0670     0.1062     0.1349     0.1994    14.1225     0.7557   319.0400    13.8034    -0.0049
  999   19.960   3509.53    14.0314     0.1105     0.1428     0.1996    14.0900     0.7867   319.3600    13.7706    -0.0044
 1000   19.980   3510.57    14.0686     0.1138     0.1512     0.1998    14.1308     0.8097   319.6800    13.8111    -0.0037
 1001   20.000   3511.61    14.2667     0.1178     0.1635     0.2000    14.3335     0.8285   320.0000    14.0135    -0.0029
 1002   20.020   3512.70    14.5991     0.1235     0.1740     0.2002    14.6708     0.8478   320.3200    14.3505    -0.0021
 1003   20.040   3513.76    15.0806     0.1323     0.1839     0.2004    15.1565     0.8791   320.6400    14.8359    -0.0013
 1004   20.060   3514.82    15.6491     0.1398     0.1870     0.2006    15.7274     0.8944   320.9600    15.4064    -0.0009
 1005   20.080   3515.93    16.3983     0.1437     0.1892     0.2008    16.4767     0.8784   321.2800    16.1554    -0.0009
 1006   20.100   3516.96    17.0821     0.1480     0.1912     0.2010    17.1627     0.8677   321.6000    16.8411    -0.0005
 1007   20.120   3518.11    17.5801     0.1541     0.1925     0.2012    17.6608     0.8833   321.9200    17.3388    -0.0005
 1008   20.140   3519.23    17.8381     0.1600     0.1916     0.2014    17.9190     0.8974   322.2400    17.5967    -0.0005
 1009   20.160   3520.33    18.0044     0.1656     0.1921     0.2016    18.0845     0.9200   322.5600    17.7619    -0.0006
 1010   20.180   3521.39    18.2838     0.1680     0.1910     0.2018    18.3634     0.9198   322.8800    18.0405    -0.0007
 1011   20.200   3522.46    18.7540     0.1700     0.2006     0.2020    18.8364     0.9191   323.2000    18.5132    -0.0003
 1012   20.220   3523.60    19.4250     0.1778     0.2077     0.2022    19.5114     0.9196   323.5200    19.1879     0.0002
 1013   20.240   3524.74    20.1583     0.1898     0.2047     0.2024    20.2457     0.9518   323.8400    19.9219     0.0003
 1014   20.260   3525.85    21.0061     0.2023     0.2002     0.2026    21.0902     0.9781   324.1600    20.7661    -0.0001
 1015   20.280   3526.94    21.8540     0.2121     0.1993     0.2028    21.9374     0.9729   324.4800    21.6129    -0.0002
 1016   20.300   3528.00    22.7521     0.2219     0.1981     0.2030    22.8376     0.9801   324.8000    22.5128     0.0000
 1017   20.320   3529.06    23.6050     0.2375     0.1942     0.2032    23.6878     1.0156   325.1200    23.3627    -0.0003
 1018   20.340   3530.07    24.3084     0.2586     0.2011     0.2034    24.3916     1.0736   325.4400    24.0662    -0.0002
 1019   20.360   3531.04    24.8474     0.2760     0.1993     0.2036    24.9320     1.1183   325.7600    24.6062    -0.0001
 1020   20.380   3532.05    25.3278     0.2908     0.2018     0.2038    25.4113     1.1552   326.0800    25.0852    -0.0002
 1021   20.400   3533.01    25.6722     0.2969     0.1794     0.2040    25.7515     1.1609   326.4000    25.4251    -0.0006
 1022   20.420   3533.92    25.8345     0.3035     0.2074     0.2042    25.9067     1.1768   326.7200    25.5799    -0.0013
 1023   20.440   3534.91    25.8766     0.3129     0.2211     0.2044    25.9699     1.2094   327.0400    25.6428     0.0007
 1024   20.460   3535.86    25.8395     0.3227     0.2160     0.2046    25.9318     1.2493   327.3600    25.6045     0.0006
 1025   20.480   3536.83    25.8195     0.3263     0.2138     0.2048    25.9082     1.2611   327.6800    25.5806     0.0003
 1026   20.500   3537.82    25.9220     0.3274     0.2325     0.2050    26.0179     1.2638   328.0000    25.6899     0.0009
 1027   20.520   3538.79    26.0935     0.3239     0.2250     0.2052    26.1892     1.2445   328.3200    25.8609     0.0009
 1028   20.540   3539.73    26.0711     0.3293     0.2232     0.2054    26.1655     1.2630   328.6400    25.8369     0.0008
 1029   20.560   3540.72    25.8766     0.3345     0.2174     0.2056    25.9678     1.2880   328.9600    25.6389     0.0005
 1030   20.580   3541.71    25.5950     0.3375     0.2139     0.2058    25.6855     1.3156   329.2800    25.3562     0.0004
 1031   20.600   3542.68    25.2387     0.3399     0.2213     0.2060    25.3308     1.3430   329.6000    25.0012     0.0005
 1032   20.620   3543.61    24.8947     0.3393     0.2159     0.2062    24.9861     1.3595   329.9200    24.6562     0.0005
 1033   20.640   3544.65    24.5101     0.3344     0.2111     0.2064    24.5999     1.3613   330.2400    24.2697     0.0003
 1034   20.660   3545.60    24.2552     0.3218     0.2116     0.2066    24.3421     1.3245   330.5600    24.0116     0.0000
 1035   20.680   3546.57    24.1344     0.3128     0.2129     0.2068    24.2231     1.2943   330.8800    23.8922     0.0002
 1036   20.700   3547.54    24.1116     0.3127     0.2146     0.2070    24.2016     1.2973   331.2000    23.8704     0.0003
 1037   20.720   3548.53    24.5817     0.3124     0.2112     0.2072    24.6718     1.2778   331.5200    24.3403     0.0003
 1038   20.740   3549.53    25.5012     0.2944     0.2115     0.2074    25.5918     1.1629   331.8400    25.2600     0.0003
 1039   20.760   3550.53    26.6028     0.2754     0.2336     0.2076    26.7009     1.0436   332.1600    26.3687     0.0010
 1040   20.780   3551.52    27.9117     0.2564     0.2225     0.2078    28.0071     0.9244   332.4800    27.6746     0.0007
 1041   20.800   3552.51    29.0398     0.2488     0.2094     0.2080    29.1281     0.8602   332.8000    28.7953     0.0001
 1042   20.820   3553.49    29.6546     0.2423     0.1974     0.2082    29.7393     0.8192   333.1200    29.4062    -0.0002
 1043   20.840   3563.07    30.1245     0.2319     0.1970     0.2084    30.2070     0.7762   333.4400    29.8736    -0.0004
 1044   20.860   3580.58    30.5986     0.2173     0.1984     0.2086    30.6818     0.7274   333.7600    30.3480    -0.0004
 1045   20.880   3598.10    31.0728     0.2104     0.1999     0.2088    31.1565     0.7042   334.0800    30.8225    -0.0003
 1046   20.900   3606.01    31.4413     0.2108     0.2018     0.2090    31.5258     0.6723   334.4000    31.1914    -0.0002
 1047   20.920   3606.94    31.4530     0.2106     0.2060     0.2092    31.5397     0.6693   334.7200    31.2049    -0.0001
 1048   20.940   3607.90    31.6533     0.2089     0.2102     0.2094    31.7417     0.6614   335.0400    31.4067     0.0000
 1049   20.960   3608.90    31.9123     0.2129     0.2060     0.2096    31.9986     0.6691   335.3600    31.6632    -0.0001
 1050   20.980   3609.92    32.3360     0.2221     0.2139     0.2098    32.4242     0.6919   335.6800    32.0885     0.0000
 1051   21.000   3610.86    33.0667     0.2274     0.2175     0.2100    33.1578     0.6929   336.0000    32.8218     0.0002
 1052   21.020   3611.79    33.5485     0.2317     0.2186     0.2102    33.6402     0.6920   336.3200    33.3038     0.0002
 1053   21.040   3612.76    34.0369     0.2400     0.2201     0.2104    34.1294     0.7062   336.6400    33.7928     0.0003
 1054   21.060   3613.73    34.3222     0.2508     0.2205     0.2106    34.4142     0.7324   336.9600    34.0773     0.0002
 1055   21.080   3614.69    34.5550     0.2598     0.2266     0.2108    34.6492     0.7532   337.2800    34.3119     0.0004
 1056   21.100   3615.70    34.7552     0.2639     0.2232     0.2110    34.8504     0.7597   337.6000    34.5128     0.0005
 1057   21.120   3616.69    34.7288     0.2609     0.2192     0.2112    34.8210     0.7503   337.9200    34.4830     0.0002
 1058   21.140   3617.69    34.4478     0.2493     0.2221     0.2114    34.5401     0.7223   338.2400    34.2019     0.0002
 1059   21.160   3618.65    34.2415     0.2433     0.2197     0.2116    34.3350     0.7093   338.5600    33.9964     0.0003
 1060   21.180   3619.57    34.1442     0.2366     0.2203     0.2118    34.2362     0.6926   338.8800    33.8973     0.0002
 1061   21.200   3620.57    34.0104     0.2288     0.2172     0.2120    34.1026     0.6724   339.2000    33.7634     0.0002
 1062   21.220   3621.54    33.7765     0.2163     0.2158     0.2122    33.8683     0.6388   339.5200    33.5288     0.0002
 1063   21.240   3622.54    33.3183     0.2061     0.2138     0.2124    33.4096     0.6169   339.8400    33.0697     0.0001
 1064   21.260   3623.54    32.9638     0.1936     0.2152     0.2126    33.0547     0.5860   340.1600    32.7145     0.0001
 1065   21.280   3624.53    32.9712     0.1849     0.2161     0.2128    33.0613     0.5612   340.4800    32.7208     0.0000
 1066   21.300   3625.50    33.2217     0.1790     0.2205     0.2130    33.3137     0.5405   340.8000    32.9729     0.0002
 1067   21.320   3626.51    33.8589     0.1759     0.2230     0.2132    33.9530     0.5219   341.1200    33.6119     0.0003
 1068   21.340   3627.43    34.7061     0.1745     0.2202     0.2134    34.7999     0.5054   341.4400    34.4584     0.0003
 1069   21.360   3628.42    35.7075     0.1763     0.2258     0.2136    35.8030     0.4957   341.7600    35.4612     0.0004
 1070   21.380   3629.37    36.6495     0.1808     0.2252     0.2138    36.7433     0.4941   342.0800    36.4013     0.0003
 1071   21.400   3630.38    37.6161     0.1872     0.2260     0.2140    37.7117     0.4989   342.4000    37.3693     0.0004
 1072   21.420   3631.43    38.7854                0.2257     0.2142    38.8814              342.7200    38.5387     0.0004
 1073   21.440   3632.41    39.5988                0.2271     0.2144    39.6938              343.0400    39.3507     0.0003
 1074   21.460   3633.39    40.1545                0.2327     0.2146    40.2522              343.3600    39.9089     0.0005
 1075   21.480   3634.39    40.2846                0.2319     0.2148    40.3823              343.6800    40.0386     0.0004
 1076   21.500   3635.40    40.4158                0.2350     0.2150    40.5136              344.0000    40.1696     0.0004
 1077   21.511   3635.91    40.9092                           0.2151    41.0085              344.1721    40.6643     0.0005
 
 
