

 Program UNIPLOT                         version 05.36.02
 _______________
 (c) Fugro Netherlands Marine, Nootdorp, The Netherlands


 ASCII representation of data plotted on a graph.

 This ASCII file presents data interpolated to values per fixed depth interval.
 The data are corrected for the depth-offset differences between the various 
 transducers in the penetrometer.

 The records at the start of penetration may include no values or anomalous
 values where a depth offset implies incomplete penetration of a particular
 sensor into the ground.

 The records at the end of penetration may include no values for data channels
 where the transducer did not reach this depth.

 The reference level for test values is (1) the ground surface for onshore tests and (2) the seafloor for nearshore and offshore tests.

 UNICAS data file          : CPT-1024.000                            
 Output using command file : PlotASCII.cmd

 ASCII file created at : date          :20-Apr-2022
                         time          :10:19:33
 Project number                        :20024805                                                                                            
 Date of testing                       :12-Apr-2022                                                                                         
 Location                              :Hong Kong Offshore Wind Farm Project                                                                
 Test name                             :CPT-1024
 Penetrometer                          :F7.5CKE2HAW2/B/3342
 Serial no                             :1701-3342

 Table description:
 Column ID                             :Parameter name
 ___________________________________________________________________________________
 Rec                                   :Record ID, Record ID [-]
 Depth                                 :Depth, Depth [m]
 Time                                  :Time, Time [s]
 Cone                                  :Cone Resistance, Cone Resistance [MPa]
 Friction                              :Sleeve Friction, Sleeve Friction [MPa]
 Pore 2                                :Porewater Pressure, Porewater Pressure at Shoulder [MPa]
 HydroPress                            :Hydrostatic Pressure, Hydrostatic Pressure [MPa]
 qt                                    :Total Cone Resistance, Total Cone Resistance [MPa]
 Fric_ratio                            :Friction Ratio, Friction Ratio [%]
 SigmaVert                             :Vertical stress, Vertical stress [kPa] as specified in ground model
 Qnet                                  :Net Cone Resistance, Net Cone Resistance [MPa], unit weight as specified in ground model
 Bq                                    :Porewater Pressure Ratio, Porewater Pressure Ratio [-], unit weight as specified in ground model


 Data table:
  Rec    Depth      Time       Cone   Friction     Pore 2 HydroPress         qt Fric_ratio  SigmaVert       Qnet         Bq
   No        m         s        MPa        MPa        MPa        MPa        MPa          %        kPa        MPa          -
    1    0.000   1538.19     0.0000                           0.0000     0.0000                0.0000     0.0000           
    2    0.020   1539.22     0.0027                0.0002     0.0002     0.0028                0.3200     0.0025     0.0687
    3    0.040   1540.25     0.0032                0.0005     0.0004     0.0035                0.6400     0.0028     0.1087
    4    0.060   1541.30     0.0058     0.0002     0.0004     0.0006     0.0059     3.8808     0.9600     0.0049    -0.0715
    5    0.080   1542.37     0.0023     0.0003    -0.0004     0.0008     0.0022     8.6992     1.2800     0.0009     0.6704
    6    0.100   1543.44     0.0049     0.0002    -0.0006     0.0010     0.0048     7.2194     1.6000     0.0032    -0.4112
    7    0.120   1544.49     0.0061     0.0005    -0.0005     0.0012     0.0059     7.8527     1.9200     0.0040    -0.4123
    8    0.140   1545.49     0.0076     0.0005    -0.0001     0.0014     0.0075    11.2472     2.2400     0.0053    -0.5283
    9    0.160   1546.55     0.0082     0.0005     0.0008     0.0016     0.0086     7.0366     2.5600     0.0061    -0.1217
   10    0.180   1547.65     0.0109     0.0010     0.0003     0.0018     0.0111    10.4713     2.8800     0.0082    -0.1664
   11    0.200   1548.69     0.0117     0.0011    -0.0003     0.0020     0.0119    10.3528     3.2000     0.0087    -0.1991
   12    0.220   1549.69     0.0087     0.0010    -0.0001     0.0022     0.0085     8.4193     3.5200     0.0050    -0.5703
   13    0.240   1550.72     0.0088     0.0011    -0.0002     0.0024     0.0087     8.7096     3.8400     0.0048    -0.5927
   14    0.260   1551.78     0.0119     0.0007     0.0005     0.0026     0.0116     5.9978     4.1600     0.0074    -0.4545
   15    0.280   1552.83     0.0116     0.0013     0.0010     0.0028     0.0116    10.5243     4.4800     0.0071    -0.3950
   16    0.300   1553.91     0.0107     0.0012     0.0009     0.0030     0.0108    10.0439     4.8000     0.0060    -0.4456
   17    0.320   1554.91     0.0129     0.0011    -0.0008     0.0032     0.0126     9.1121     5.1200     0.0075    -0.5615
   18    0.340   1555.95     0.0137     0.0012     0.0018     0.0034     0.0141     9.4163     5.4400     0.0087    -0.2560
   19    0.360   1557.01     0.0130     0.0013     0.0026     0.0036     0.0139     9.9335     5.7600     0.0081    -0.1637
   20    0.380   1558.07     0.0153     0.0013     0.0028     0.0038     0.0164     9.6434     6.0800     0.0103    -0.1205
   21    0.400   1559.11     0.0122     0.0013     0.0023     0.0040     0.0131    13.0748     6.4000     0.0067    -0.2603
   22    0.420   1560.12     0.0103     0.0015     0.0030     0.0042     0.0115    18.9697     6.7200     0.0048    -0.3370
   23    0.440   1561.15     0.0113     0.0012     0.0040     0.0044     0.0127    10.9700     7.0400     0.0057    -0.1650
   24    0.460   1562.25     0.0102     0.0012     0.0056     0.0046     0.0123    12.6416     7.3600     0.0050     0.1008
   25    0.480   1563.24     0.0084     0.0011     0.0069     0.0048     0.0113    12.5109     7.6800     0.0036     0.5793
   26    0.500   1564.27     0.0064     0.0011     0.0076     0.0050     0.0094    13.9584     8.0000     0.0014     1.7202
   27    0.520   1565.28     0.0119     0.0014     0.0074     0.0052     0.0149    14.3403     8.3200     0.0066     0.3295
   28    0.540   1566.34     0.0094     0.0012     0.0083     0.0054     0.0128    13.6884     8.6400     0.0042     0.6705
   29    0.560   1567.41     0.0099     0.0015     0.0086     0.0056     0.0135    14.6829     8.9600     0.0046     0.7004
   30    0.580   1568.48     0.0099     0.0010     0.0082     0.0058     0.0134    11.1987     9.2800     0.0042     0.6775
   31    0.600   1569.48     0.0103     0.0015     0.0082     0.0060     0.0137    14.3912     9.6000     0.0041     0.5323
   32    0.620   1570.52     0.0078     0.0014     0.0079     0.0062     0.0113    18.0977     9.9200     0.0014     1.5469
   33    0.640   1571.57     0.0052     0.0012     0.0086     0.0064     0.0086    21.0088    10.2400    -0.0017    -1.0038
   34    0.660   1572.58     0.0071     0.0014     0.0064     0.0066     0.0104    12.8764    10.5600    -0.0001    -0.1784
   35    0.680   1573.64     0.0099     0.0014     0.0014     0.0068     0.0124    14.9030    10.8800     0.0015    -0.5912
   36    0.700   1574.72     0.0087     0.0013     0.0056     0.0070     0.0107    10.2564    11.2000    -0.0005     2.2690
   37    0.720   1575.72     0.0080     0.0012     0.0080     0.0072     0.0110    21.6317    11.5200    -0.0006     0.2772
   38    0.740   1576.75     0.0042     0.0012     0.0105     0.0074     0.0082    18.8075    11.8400    -0.0036    -0.9537
   39    0.760   1577.80     0.0054     0.0010     0.0108     0.0076     0.0097    15.3362    12.1600    -0.0025    -1.0736
   40    0.780   1578.86     0.0063     0.0013     0.0097     0.0078     0.0105    21.3366    12.4800    -0.0020    -1.4325
   41    0.800   1579.91     0.0077     0.0015     0.0098     0.0080     0.0116    23.5483    12.8000    -0.0012    -1.2463
   42    0.820   1580.94     0.0055     0.0013     0.0117     0.0082     0.0103    20.1337    13.1200    -0.0029    -1.1092
   43    0.840   1581.98     0.0045     0.0014     0.0096     0.0084     0.0089    38.7847    13.4400    -0.0046    -0.4014
   44    0.860   1583.02     0.0066     0.0013     0.0103     0.0086     0.0114    28.8560    13.7600    -0.0024    -2.1683
   45    0.880   1584.05     0.0099     0.0013     0.0047     0.0088     0.0118    12.5425    14.0800    -0.0023    -0.7368
   46    0.900   1585.09     0.0121     0.0012     0.0114     0.0090     0.0167    12.3489    14.4000     0.0023    -0.4135
   47    0.920   1586.13     0.0055     0.0013     0.0124     0.0092     0.0109    13.8481    14.7200    -0.0038    -0.2476
   48    0.940   1587.17     0.0058     0.0014     0.0124     0.0094     0.0106    26.6665    15.0400    -0.0044    -0.4939
   49    0.960   1588.25     0.0085     0.0015     0.0141     0.0096     0.0142    21.9483    15.3600    -0.0012    -3.1675
   50    0.980   1589.25     0.0084     0.0017     0.0107     0.0098     0.0128    20.1947    15.6800    -0.0028    -0.2892
   51    1.000   1590.30     0.0067     0.0016     0.0122     0.0100     0.0113    21.6292    16.0000    -0.0047    -0.2530
   52    1.020   1591.33     0.0047     0.0013     0.0137     0.0102     0.0105    17.9844    16.3200    -0.0059    -0.6228
   53    1.040   1592.33     0.0062     0.0010     0.0152     0.0104     0.0121    14.3397    16.6400    -0.0046    -0.7579
   54    1.060   1593.42     0.0038     0.0011     0.0168     0.0106     0.0107    24.7857    16.9600    -0.0062    -0.9601
   55    1.080   1594.44     0.0038     0.0012     0.0161     0.0108     0.0106    23.5614    17.2800    -0.0067    -0.9051
   56    1.100   1595.50     0.0051     0.0011     0.0159     0.0110     0.0116    34.3261    17.6000    -0.0060    -0.7761
   57    1.120   1615.40     0.0093     0.0011     0.0157     0.0112     0.0159    21.9098    17.9200    -0.0020    -0.3237
   58    1.140   1639.55     0.0144     0.0013     0.0155     0.0114     0.0210    25.5561    18.2400     0.0027     0.2972
   59    1.160   1655.13     0.0145     0.0012     0.0170     0.0116     0.0214     6.6679    18.5600     0.0028     1.9424
   60    1.180   1656.14     0.0197     0.0012     0.0197     0.0118     0.0277     6.9442    18.8800     0.0088     0.8538
   61    1.200   1657.22     0.0204     0.0010     0.0195     0.0120     0.0287     5.6324    19.2000     0.0095     0.8356
   62    1.220   1658.25     0.0166     0.0011     0.0191     0.0122     0.0248     6.4158    19.5200     0.0052     1.3849
   63    1.240   1659.30     0.0189     0.0012     0.0179     0.0124     0.0267     6.5224    19.8400     0.0068     0.9179
   64    1.260   1660.34     0.0219     0.0011     0.0182     0.0126     0.0295     5.3998    20.1600     0.0093     0.6067
   65    1.280   1661.41     0.0216     0.0009     0.0187     0.0128     0.0293     4.3193    20.4800     0.0088     0.6166
   66    1.300   1662.43     0.0233     0.0011     0.0188     0.0130     0.0313     5.1208    20.8000     0.0105     0.6281
   67    1.320   1663.50     0.0254     0.0013     0.0209     0.0132     0.0338     5.3886    21.1200     0.0127     0.5419
   68    1.340   1664.50     0.0262     0.0014     0.0206     0.0134     0.0353     5.4815    21.4400     0.0138     0.5875
   69    1.360   1665.52     0.0291     0.0009     0.0196     0.0136     0.0373     3.1374    21.7600     0.0156     0.3771
   70    1.380   1666.57     0.0321     0.0012     0.0197     0.0138     0.0402     4.3421    22.0800     0.0181     0.3128
   71    1.400   1667.64     0.0309     0.0014     0.0203     0.0140     0.0395     4.3704    22.4000     0.0171     0.3752
   72    1.420   1668.64     0.0361     0.0017     0.0212     0.0142     0.0452     5.2861    22.7200     0.0224     0.3266
   73    1.440   1669.72     0.0332     0.0015     0.0197     0.0144     0.0415     4.6085    23.0400     0.0184     0.2912
   74    1.460   1670.73     0.0337     0.0016     0.0226     0.0146     0.0427     4.7343    23.3600     0.0194     0.3529
   75    1.480   1671.76     0.0383     0.0014     0.0223     0.0148     0.0479     3.6196    23.6800     0.0242     0.3270
   76    1.500   1672.79     0.0403     0.0016     0.0268     0.0150     0.0509     4.5252    24.0000     0.0269     0.3803
   77    1.520   1673.81     0.0462     0.0016     0.0305     0.0152     0.0586     3.6621    24.3200     0.0342     0.4174
   78    1.540   1674.85     0.0524     0.0019     0.0315     0.0154     0.0653     3.7166    24.6400     0.0407     0.3775
   79    1.560   1675.92     0.0558     0.0020     0.0245     0.0156     0.0669     3.6638    24.9600     0.0420     0.2594
   80    1.580   1676.96     0.0577     0.0022     0.0194     0.0158     0.0665     3.9198    25.2800     0.0412     0.1243
   81    1.600   1678.01     0.0610     0.0024     0.0176     0.0160     0.0685     3.9951    25.6000     0.0429     0.0467
   82    1.620   1679.06     0.0571     0.0024     0.0208     0.0162     0.0652     4.1243    25.9200     0.0392     0.0770
   83    1.640   1680.09     0.0593     0.0026     0.0264     0.0164     0.0696     4.3804    26.2400     0.0433     0.1870
   84    1.660   1681.11     0.0595     0.0023     0.0302     0.0166     0.0718     3.8903    26.5600     0.0453     0.2835
   85    1.680   1682.15     0.0560     0.0027     0.0341     0.0168     0.0698     4.6849    26.8800     0.0429     0.3724
   86    1.700   1683.20     0.0523     0.0023     0.0308     0.0170     0.0659     4.2881    27.2000     0.0387     0.3987
   87    1.720   1684.20     0.0490     0.0023     0.0294     0.0172     0.0612     4.7101    27.5200     0.0337     0.3505
   88    1.740   1685.26     0.0524     0.0023     0.0290     0.0174     0.0646     4.5602    27.8400     0.0367     0.3159
   89    1.760   1686.28     0.0582     0.0023     0.0274     0.0176     0.0690     4.1213    28.1600     0.0409     0.2005
   90    1.780   1687.37     0.0609     0.0025     0.0328     0.0178     0.0745     4.0948    28.4800     0.0460     0.3153
   91    1.800   1688.37     0.0623     0.0023     0.0285     0.0180     0.0743     3.9350    28.8000     0.0455     0.2356
   92    1.820   1689.43     0.0729     0.0026     0.0265     0.0182     0.0843     3.8039    29.1200     0.0552     0.1638
   93    1.840   1690.48     0.0778     0.0024     0.0275     0.0184     0.0892     3.0575    29.4400     0.0598     0.1449
   94    1.860   1691.50     0.0770     0.0029     0.0279     0.0186     0.0886     3.6767    29.7600     0.0588     0.1510
   95    1.880   1692.57     0.0727     0.0027     0.0301     0.0188     0.0849     3.5856    30.0800     0.0548     0.1857
   96    1.900   1693.59     0.0674     0.0024     0.0355     0.0190     0.0814     3.4844    30.4000     0.0510     0.2816
   97    1.920   1694.61     0.0647     0.0024     0.0392     0.0192     0.0808     3.5375    30.7200     0.0500     0.3834
   98    1.940   1695.62     0.0618     0.0025     0.0407     0.0194     0.0787     3.9695    31.0400     0.0477     0.4379
   99    1.960   1696.68     0.0611     0.0026     0.0411     0.0196     0.0781     4.1036    31.3600     0.0467     0.4438
  100    1.980   1697.72     0.0580     0.0028     0.0410     0.0198     0.0753     4.8349    31.6800     0.0437     0.4906
  101    2.000   1698.77     0.0593     0.0028     0.0405     0.0200     0.0763     4.7290    32.0000     0.0443     0.4627
  102    2.020   1699.76     0.0605     0.0026     0.0426     0.0202     0.0783     4.2289    32.3200     0.0459     0.4799
  103    2.040   1700.82     0.0582     0.0023     0.0458     0.0204     0.0769     3.8616    32.6400     0.0443     0.5457
  104    2.060   1701.86     0.0590     0.0023     0.0508     0.0206     0.0797     3.8502    32.9600     0.0467     0.6110
  105    2.080   1702.91     0.0583     0.0022     0.0543     0.0208     0.0806     3.7731    33.2800     0.0473     0.6837
  106    2.100   1703.94     0.0629     0.0021     0.0579     0.0210     0.0867     3.3914    33.6000     0.0531     0.6725
  107    2.120   1704.99     0.0663     0.0021     0.0597     0.0212     0.0913     3.2805    33.9200     0.0574     0.6658
  108    2.140   1706.04     0.0716     0.0022     0.0541     0.0214     0.0954     3.0699    34.2400     0.0611     0.5758
  109    2.160   1707.05     0.0736     0.0022     0.0492     0.0216     0.0948     2.9390    34.5600     0.0602     0.4767
  110    2.180   1708.13     0.0720     0.0022     0.0491     0.0218     0.0926     2.8517    34.8800     0.0577     0.4727
  111    2.200   1709.13     0.0714     0.0021     0.0492     0.0220     0.0917     2.8719    35.2000     0.0565     0.4635
  112    2.220   1710.17     0.0692     0.0021     0.0499     0.0222     0.0904     3.0146    35.5200     0.0549     0.5149
  113    2.240   1711.25     0.0663     0.0021     0.0485     0.0224     0.0872     3.1537    35.8400     0.0514     0.5341
  114    2.260   1712.27     0.0655     0.0025     0.0526     0.0226     0.0872     3.7886    36.1600     0.0510     0.5688
  115    2.280   1713.31     0.0712     0.0024     0.0533     0.0228     0.0937     3.3606    36.4800     0.0572     0.5383
  116    2.300   1714.36     0.0748     0.0024     0.0427     0.0230     0.0937     3.2793    36.8000     0.0569     0.3878
  117    2.320   1715.41     0.0810     0.0025     0.0406     0.0232     0.0977     3.2074    37.1200     0.0606     0.2747
  118    2.340   1716.47     0.0809     0.0026     0.0458     0.0234     0.0996     3.2842    37.4400     0.0621     0.3378
  119    2.360   1717.52     0.0819     0.0024     0.0498     0.0236     0.1020     2.9555    37.7600     0.0642     0.3755
  120    2.380   1718.53     0.0809     0.0025     0.0542     0.0238     0.1031     3.1493    38.0800     0.0650     0.4454
  121    2.400   1719.58     0.0812     0.0025     0.0561     0.0240     0.1047     3.1158    38.4000     0.0663     0.4811
  122    2.420   1720.61     0.0843     0.0026     0.0570     0.0242     0.1080     3.1223    38.7200     0.0693     0.4650
  123    2.440   1721.64     0.0876     0.0023     0.0599     0.0244     0.1124     2.5911    39.0400     0.0734     0.4731
  124    2.460   1722.69     0.0904     0.0023     0.0611     0.0246     0.1162     2.6005    39.3600     0.0769     0.4797
  125    2.480   1723.69     0.0974     0.0024     0.0590     0.0248     0.1224     2.5366    39.6800     0.0828     0.4207
  126    2.500   1724.75     0.0981     0.0033     0.0579     0.0250     0.1223     3.4544    40.0000     0.0823     0.3959
  127    2.520   1725.80     0.0981     0.0034     0.0579     0.0252     0.1224     3.4736    40.3200     0.0820     0.3956
  128    2.540   1726.84     0.0990     0.0034     0.0526     0.0254     0.1219     3.3539    40.6400     0.0813     0.3598
  129    2.560   1727.87     0.1015     0.0032     0.0487     0.0256     0.1227     3.1068    40.9600     0.0818     0.3032
  130    2.580   1728.89     0.1044     0.0030     0.0488     0.0258     0.1237     3.0450    41.2800     0.0824     0.2469
  131    2.600   1729.92     0.0902     0.0038     0.0561     0.0260     0.1131     4.3137    41.6000     0.0715     0.3965
  132    2.620   1730.97     0.0903     0.0032     0.0607     0.0262     0.1154     3.4539    41.9200     0.0735     0.4571
  133    2.640   1731.98     0.0937     0.0031     0.0588     0.0264     0.1189     3.4187    42.2400     0.0767     0.4391
  134    2.660   1733.01     0.0918     0.0033     0.0608     0.0266     0.1166     3.5727    42.5600     0.0741     0.4414
  135    2.680   1734.50     0.0910     0.0033     0.0590     0.0268     0.1164     3.6789    42.8800     0.0735     0.4577
  136    2.700   1735.45     0.0981     0.0032     0.0560     0.0270     0.1218     3.2793    43.2000     0.0786     0.3725
  137    2.720   1736.38     0.1082     0.0035     0.0563     0.0272     0.1317     3.2282    43.5200     0.0882     0.3266
  138    2.740   1737.27     0.1161     0.0035     0.0625     0.0274     0.1417     3.0506    43.8400     0.0979     0.3431
  139    2.760   1738.14     0.1159     0.0037     0.0634     0.0276     0.1431     3.2121    44.1600     0.0989     0.3745
  140    2.780   1739.05     0.1153     0.0038     0.0614     0.0278     0.1411     3.2217    44.4800     0.0966     0.3467
  141    2.800   1739.97     0.1212     0.0038     0.0651     0.0280     0.1478     3.1507    44.8000     0.1030     0.3437
  142    2.820   1740.88     0.1232     0.0034     0.0703     0.0282     0.1527     2.8178    45.1200     0.1076     0.3908
  143    2.840   1741.75     0.1220     0.0034     0.0704     0.0284     0.1505     2.8067    45.4400     0.1050     0.3749
  144    2.860   1742.72     0.1259     0.0031     0.0633     0.0286     0.1524     2.5359    45.7600     0.1067     0.3250
  145    2.880   1743.60     0.1256     0.0036     0.0658     0.0288     0.1530     2.8527    46.0800     0.1069     0.3422
  146    2.900   1744.51     0.1294     0.0036     0.0621     0.0290     0.1562     2.7784    46.4000     0.1098     0.3158
  147    2.920   1745.49     0.1298     0.0035     0.0651     0.0292     0.1565     2.6648    46.7200     0.1098     0.3129
  148    2.940   1746.49     0.1259     0.0035     0.0695     0.0294     0.1544     2.7419    47.0400     0.1074     0.3579
  149    2.960   1747.44     0.1221     0.0038     0.0702     0.0296     0.1517     3.0838    47.3600     0.1044     0.3928
  150    2.980   1748.43     0.1133     0.0034     0.0702     0.0298     0.1426     3.0031    47.6800     0.0949     0.4218
  151    3.000   1749.44     0.1129     0.0033     0.0706     0.0300     0.1425     2.9308    48.0000     0.0945     0.4278
  152    3.020   1750.41     0.1102     0.0036     0.0706     0.0302     0.1402     3.2874    48.3200     0.0919     0.4487
  153    3.040   1751.43     0.1099     0.0030     0.0757     0.0304     0.1413     2.7474    48.6400     0.0927     0.4785
  154    3.060   1752.39     0.1125     0.0032     0.0752     0.0306     0.1445     2.8013    48.9600     0.0955     0.4762
  155    3.080   1753.41     0.1130     0.0026     0.0720     0.0308     0.1437     2.3393    49.2800     0.0944     0.4487
  156    3.100   1754.36     0.1130     0.0027     0.0725     0.0310     0.1438     2.4074    49.6000     0.0942     0.4492
  157    3.120   1755.34     0.1144     0.0031     0.0758     0.0312     0.1459     2.6766    49.9200     0.0960     0.4568
  158    3.140   1756.36     0.1161     0.0029     0.0775     0.0314     0.1488     2.4985    50.2400     0.0985     0.4712
  159    3.160   1757.35     0.1219     0.0033     0.0812     0.0316     0.1557     2.6984    50.5600     0.1051     0.4629
  160    3.180   1758.33     0.1302     0.0037     0.0836     0.0318     0.1651     2.8982    50.8800     0.1142     0.4500
  161    3.200   1759.30     0.1426     0.0043     0.0799     0.0320     0.1773     3.1101    51.2000     0.1261     0.4014
  162    3.220   1760.31     0.1437     0.0043     0.0749     0.0322     0.1753     2.9811    51.5200     0.1237     0.3466
  163    3.240   1761.44     0.1482     0.0046     0.0703     0.0324     0.1780     3.1032    51.8400     0.1261     0.3048
  164    3.260   1776.74     0.1507     0.0041     0.0688     0.0326     0.1799     2.7710    52.1600     0.1277     0.2878
  165    3.280   1792.05     0.1533     0.0039     0.0672     0.0328     0.1817     2.6529    52.4800     0.1292     0.2707
  166    3.300   1802.11     0.1519     0.0041     0.0701     0.0330     0.1803     2.6427    52.8000     0.1275     0.2714
  167    3.320   1803.08     0.1525     0.0037     0.0755     0.0332     0.1840     2.4694    53.1200     0.1309     0.3197
  168    3.340   1804.06     0.1475     0.0036     0.0719     0.0334     0.1783     2.4206    53.4400     0.1248     0.3190
  169    3.360   1805.06     0.1407     0.0029     0.0655     0.0336     0.1691     2.0548    53.7600     0.1153     0.2949
  170    3.380   1806.04     0.1382     0.0037     0.0659     0.0338     0.1656     2.6915    54.0800     0.1115     0.2815
  171    3.400   1807.01     0.1380     0.0033     0.0687     0.0340     0.1663     2.3699    54.4000     0.1119     0.2991
  172    3.420   1807.98     0.1397     0.0032     0.0702     0.0342     0.1691     2.2514    54.7200     0.1144     0.3137
  173    3.440   1808.99     0.1383     0.0027     0.0696     0.0344     0.1679     1.9667    55.0400     0.1129     0.3187
  174    3.460   1809.97     0.1277     0.0026     0.0643     0.0346     0.1556     2.0281    55.3600     0.1003     0.3192
  175    3.480   1810.94     0.1186     0.0024     0.0540     0.0348     0.1431     1.9510    55.6800     0.0874     0.2692
  176    3.500   1811.95     0.1154     0.0028     0.0478     0.0350     0.1356     2.4435    56.0000     0.0796     0.1665
  177    3.520   1812.95     0.1153     0.0030     0.0488     0.0352     0.1351     2.5739    56.3200     0.0788     0.1536
  178    3.540   1813.90     0.1130     0.0027     0.0429     0.0354     0.1324     2.3756    56.6400     0.0758     0.1424
  179    3.560   1814.89     0.1096     0.0030     0.0394     0.0356     0.1263     2.7412    56.9600     0.0694     0.0615
  180    3.580   1815.86     0.1153     0.0030     0.0393     0.0358     0.1315     2.6715    57.2800     0.0742     0.0393
  181    3.600   1816.86     0.1242     0.0029     0.0489     0.0360     0.1428     2.3554    57.6000     0.0852     0.0981
  182    3.620   1817.84     0.1236     0.0028     0.0559     0.0362     0.1462     2.2831    57.9200     0.0883     0.2001
  183    3.640   1818.83     0.1193     0.0034     0.0615     0.0364     0.1444     2.8255    58.2400     0.0862     0.2732
  184    3.660   1819.81     0.1088     0.0032     0.0655     0.0366     0.1356     2.9457    58.5600     0.0771     0.3527
  185    3.680   1820.77     0.1059     0.0030     0.0700     0.0368     0.1344     2.7858    58.8800     0.0756     0.4133
  186    3.700   1821.75     0.1160     0.0029     0.0745     0.0370     0.1466     2.5088    59.2000     0.0874     0.4107
  187    3.720   1822.76     0.1291     0.0027     0.0783     0.0372     0.1620     2.1179    59.5200     0.1025     0.4018
  188    3.740   1823.74     0.1364     0.0028     0.0835     0.0374     0.1706     2.0676    59.8400     0.1108     0.3983
  189    3.760   1824.74     0.1426     0.0024     0.0878     0.0376     0.1787     1.7204    60.1600     0.1185     0.4071
  190    3.780   1825.72     0.1482     0.0029     0.0873     0.0378     0.1861     1.9817    60.4800     0.1256     0.4165
  191    3.800   1826.70     0.1579     0.0032     0.0761     0.0380     0.1911     2.0696    60.8000     0.1303     0.3155
  192    3.820   1827.68     0.1535     0.0031     0.0743     0.0382     0.1846     1.9999    61.1200     0.1235     0.2911
  193    3.840   1828.65     0.1509     0.0033     0.0737     0.0384     0.1821     2.1985    61.4400     0.1206     0.2972
  194    3.860   1829.65     0.1501     0.0036     0.0709     0.0386     0.1798     2.3987    61.7600     0.1181     0.2737
  195    3.880   1830.64     0.1515     0.0034     0.0741     0.0388     0.1819     2.2563    62.0800     0.1199     0.2808
  196    3.900   1831.62     0.1487     0.0035     0.0793     0.0390     0.1812     2.3412    62.4000     0.1188     0.3229
  197    3.920   1832.64     0.1433     0.0034     0.0850     0.0392     0.1782     2.3571    62.7200     0.1155     0.3806
  198    3.940   1833.59     0.1450     0.0031     0.0892     0.0394     0.1820     2.1162    63.0400     0.1190     0.4096
  199    3.960   1834.57     0.1463     0.0031     0.0885     0.0396     0.1833     2.1064    63.3600     0.1199     0.4052
  200    3.980   1835.60     0.1485     0.0032     0.0921     0.0398     0.1866     2.1509    63.6800     0.1229     0.4151
  201    4.000   1836.56     0.1607     0.0032     0.0953     0.0400     0.2005     2.0182    64.0000     0.1365     0.4014
  202    4.020   1837.56     0.1664     0.0035     0.0847     0.0402     0.2036     2.1018    64.3200     0.1393     0.3473
  203    4.040   1838.54     0.1689     0.0037     0.0786     0.0404     0.2029     2.1682    64.6400     0.1382     0.2928
  204    4.060   1839.49     0.1699     0.0037     0.0791     0.0406     0.2028     2.1800    64.9600     0.1378     0.2737
  205    4.080   1840.50     0.1730     0.0039     0.0824     0.0408     0.2065     2.2448    65.2800     0.1413     0.2765
  206    4.100   1841.48     0.1747     0.0037     0.0867     0.0410     0.2103     2.0952    65.6000     0.1447     0.3032
  207    4.120   1842.48     0.1767     0.0043     0.0940     0.0412     0.2153     2.4450    65.9200     0.1493     0.3391
  208    4.140   1843.47     0.1812     0.0042     0.0975     0.0414     0.2217     2.3222    66.2400     0.1555     0.3543
  209    4.160   1844.43     0.1823     0.0041     0.0952     0.0416     0.2228     2.2323    66.5600     0.1563     0.3508
  210    4.180   1845.44     0.1791     0.0041     0.0934     0.0418     0.2184     2.3202    66.8800     0.1515     0.3421
  211    4.200   1846.44     0.1806     0.0042     0.0908     0.0420     0.2187     2.3739    67.2000     0.1515     0.3213
  212    4.220   1847.44     0.1829     0.0039     0.0945     0.0422     0.2222     2.1131    67.5200     0.1547     0.3319
  213    4.240   1848.43     0.1812     0.0043     0.0904     0.0424     0.2196     2.3814    67.8400     0.1518     0.3230
  214    4.260   1849.42     0.1745     0.0041     0.0931     0.0426     0.2133     2.3152    68.1600     0.1451     0.3432
  215    4.280   1850.43     0.1786     0.0041     0.0954     0.0428     0.2184     2.2787    68.4800     0.1499     0.3465
  216    4.300   1851.39     0.1758     0.0041     0.0901     0.0430     0.2152     2.3360    68.8000     0.1464     0.3456
  217    4.320   1852.37     0.1722     0.0039     0.0880     0.0432     0.2092     2.2471    69.1200     0.1401     0.3211
  218    4.340   1853.39     0.1647     0.0040     0.0790     0.0434     0.1993     2.4370    69.4400     0.1299     0.3009
  219    4.360   1854.37     0.1625     0.0042     0.0843     0.0436     0.1969     2.6192    69.7600     0.1272     0.3025
  220    4.380   1855.36     0.1617     0.0040     0.0901     0.0438     0.1989     2.4612    70.0800     0.1288     0.3477
  221    4.400   1856.36     0.1612     0.0042     0.0953     0.0440     0.2007     2.6404    70.4000     0.1303     0.3838
  222    4.420   1857.32     0.1634     0.0037     0.0979     0.0442     0.2041     2.2540    70.7200     0.1334     0.3946
  223    4.440   1858.31     0.1635     0.0037     0.1011     0.0444     0.2057     2.2406    71.0400     0.1346     0.4157
  224    4.460   1859.32     0.1616     0.0039     0.1044     0.0446     0.2051     2.3910    71.3600     0.1338     0.4408
  225    4.480   1860.31     0.1676     0.0037     0.1056     0.0448     0.2117     2.2349    71.6800     0.1400     0.4297
  226    4.500   1861.31     0.1695     0.0034     0.1071     0.0450     0.2144     2.0086    72.0000     0.1424     0.4339
  227    4.520   1862.33     0.1712     0.0034     0.1078     0.0452     0.2165     1.9927    72.3200     0.1442     0.4347
  228    4.540   1863.31     0.1753     0.0036     0.0973     0.0454     0.2177     2.0397    72.6400     0.1451     0.3834
  229    4.560   1864.27     0.1731     0.0040     0.0971     0.0456     0.2146     2.3183    72.9600     0.1416     0.3744
  230    4.580   1865.29     0.1723     0.0037     0.1012     0.0458     0.2139     2.1608    73.2800     0.1407     0.3798
  231    4.600   1866.30     0.1734     0.0037     0.0990     0.0460     0.2157     2.1309    73.6000     0.1421     0.3849
  232    4.620   1867.32     0.1734     0.0034     0.0965     0.0462     0.2141     1.9710    73.9200     0.1402     0.3609
  233    4.640   1868.28     0.1689     0.0038     0.1016     0.0464     0.2110     2.2533    74.2400     0.1368     0.3938
  234    4.660   1869.25     0.1689     0.0035     0.1020     0.0466     0.2123     2.0566    74.5600     0.1378     0.4119
  235    4.680   1870.25     0.1733     0.0035     0.0998     0.0468     0.2153     2.0868    74.8800     0.1404     0.3782
  236    4.700   1871.25     0.1813     0.0036     0.0943     0.0470     0.2223     2.0071    75.2000     0.1471     0.3442
  237    4.720   1872.21     0.1875     0.0034     0.0878     0.0472     0.2269     1.8293    75.5200     0.1513     0.3070
  238    4.740   1873.24     0.1800     0.0031     0.0897     0.0474     0.2162     1.7047    75.8400     0.1404     0.2760
  239    4.760   1874.24     0.1767     0.0031     0.1017     0.0476     0.2180     1.7739    76.1600     0.1418     0.3580
  240    4.780   1875.20     0.1763     0.0032     0.1078     0.0478     0.2208     1.8064    76.4800     0.1443     0.4034
  241    4.800   1876.15     0.1794     0.0031     0.1081     0.0480     0.2249     1.7134    76.8000     0.1481     0.4071
  242    4.820   1877.17     0.1766     0.0032     0.1083     0.0482     0.2224     1.8212    77.1200     0.1453     0.4181
  243    4.840   1878.13     0.1796     0.0034     0.1048     0.0484     0.2238     1.9388    77.4400     0.1464     0.3891
  244    4.860   1879.11     0.1780     0.0035     0.1010     0.0486     0.2204     1.9646    77.7600     0.1427     0.3670
  245    4.880   1880.09     0.1798     0.0034     0.1011     0.0488     0.2226     1.8510    78.0800     0.1445     0.3685
  246    4.900   1881.09     0.1774     0.0033     0.1065     0.0490     0.2211     1.8755    78.4000     0.1427     0.3858
  247    4.920   1882.08     0.1815     0.0038     0.1090     0.0492     0.2271     2.0779    78.7200     0.1484     0.4008
  248    4.940   1883.05     0.1797     0.0036     0.1074     0.0494     0.2256     2.0241    79.0400     0.1466     0.4094
  249    4.960   1884.04     0.1832     0.0035     0.1019     0.0496     0.2261     1.9439    79.3600     0.1467     0.3572
  250    4.980   1885.01     0.1828     0.0039     0.1062     0.0498     0.2267     2.1294    79.6800     0.1471     0.3720
  251    5.000   1885.97     0.1848     0.0037     0.1085     0.0500     0.2303     1.9775    80.0000     0.1503     0.3872
  252    5.020   1886.95     0.1833     0.0037     0.1072     0.0502     0.2283     2.0142    80.3200     0.1480     0.3849
  253    5.040   1887.92     0.1794     0.0039     0.1041     0.0504     0.2239     2.1845    80.6400     0.1432     0.3871
  254    5.060   1888.88     0.1742     0.0041     0.1045     0.0506     0.2188     2.3310    80.9600     0.1378     0.4024
  255    5.080   1889.90     0.1701     0.0038     0.1077     0.0508     0.2148     2.2008    81.2800     0.1336     0.4171
  256    5.100   1890.88     0.1664     0.0041     0.1087     0.0510     0.2117     2.4431    81.6000     0.1301     0.4377
  257    5.120   1891.85     0.1603     0.0036     0.1127     0.0512     0.2071     2.2770    81.9200     0.1252     0.4803
  258    5.140   1892.79     0.1624     0.0038     0.1148     0.0514     0.2105     2.3517    82.2400     0.1282     0.4922
  259    5.160   1893.81     0.1645     0.0039     0.1167     0.0516     0.2128     2.3816    82.5600     0.1302     0.4870
  260    5.180   1894.77     0.1727     0.0040     0.1222     0.0518     0.2232     2.4172    82.8800     0.1404     0.4880
  261    5.200   1895.79     0.1776     0.0040     0.1243     0.0520     0.2295     2.3100    83.2000     0.1463     0.4894
  262    5.220   1896.75     0.1856     0.0043     0.1188     0.0522     0.2365     2.4193    83.5200     0.1530     0.4517
  263    5.240   1904.89     0.1965     0.0043     0.1115     0.0524     0.2443     2.2773    83.8400     0.1605     0.3903
  264    5.260   1920.19     0.2130     0.0046     0.1041     0.0526     0.2577     2.4609    84.1600     0.1736     0.3217
  265    5.280   1935.49     0.2294     0.0048     0.0967     0.0528     0.2711     2.5496    84.4800     0.1867     0.2531
  266    5.300   1941.42     0.2305     0.0045     0.0895     0.0530     0.2686     1.9522    84.8000     0.1838     0.2044
  267    5.320   1942.41     0.2152     0.0046     0.0877     0.0532     0.2521     2.1231    85.1200     0.1670     0.2071
  268    5.340   1943.39     0.2093     0.0052     0.0892     0.0534     0.2474     2.4837    85.4400     0.1619     0.2307
  269    5.360   1944.38     0.2012     0.0055     0.1001     0.0536     0.2413     2.7075    85.7600     0.1555     0.2691
  270    5.380   1945.38     0.1962     0.0051     0.1081     0.0538     0.2405     2.5560    86.0800     0.1544     0.3355
  271    5.400   1946.36     0.1930     0.0049     0.1137     0.0540     0.2399     2.5194    86.4000     0.1535     0.3744
  272    5.420   1947.34     0.1895     0.0044     0.1162     0.0542     0.2383     2.3204    86.7200     0.1516     0.4093
  273    5.440   1948.30     0.1881     0.0044     0.1215     0.0544     0.2386     2.3236    87.0400     0.1516     0.4352
  274    5.460   1949.24     0.1811     0.0046     0.1246     0.0546     0.2329     2.4801    87.3600     0.1456     0.4735
  275    5.480   1950.12     0.1842     0.0042     0.1279     0.0548     0.2375     2.2900    87.6800     0.1498     0.4811
  276    5.500   1951.06     0.1885     0.0045     0.1311     0.0550     0.2431     2.3807    88.0000     0.1551     0.4840
  277    5.520   1952.08     0.1928     0.0043     0.1286     0.0552     0.2472     2.2707    88.3200     0.1589     0.4683
  278    5.540   1953.03     0.1972     0.0045     0.1245     0.0554     0.2504     2.3010    88.6400     0.1618     0.4413
  279    5.560   1954.04     0.1918     0.0044     0.1244     0.0556     0.2435     2.3158    88.9600     0.1546     0.4369
  280    5.580   1955.04     0.1914     0.0044     0.1144     0.0558     0.2410     2.3147    89.2800     0.1517     0.4094
  281    5.600   1956.04     0.1878     0.0046     0.1201     0.0560     0.2378     2.4823    89.6000     0.1482     0.4256
  282    5.620   1957.03     0.1894     0.0051     0.1255     0.0562     0.2411     2.7282    89.9200     0.1512     0.4432
  283    5.640   1958.01     0.1899     0.0053     0.1271     0.0564     0.2437     2.7924    90.2400     0.1535     0.4676
  284    5.660   1959.00     0.1938     0.0053     0.1251     0.0566     0.2460     2.7266    90.5600     0.1554     0.4344
  285    5.680   1960.01     0.1926     0.0053     0.1207     0.0568     0.2440     2.7863    90.8800     0.1531     0.4282
  286    5.700   1961.01     0.1907     0.0052     0.1115     0.0570     0.2384     2.7143    91.2000     0.1472     0.3828
  287    5.720   1961.91     0.1856     0.0050     0.1201     0.0572     0.2353     2.6515    91.5200     0.1437     0.4248
  288    5.740   1962.73     0.1805     0.0048     0.1273     0.0574     0.2331     2.6195    91.8400     0.1413     0.4814
  289    5.760   1963.55     0.1833     0.0046     0.1325     0.0576     0.2383     2.5099    92.1600     0.1461     0.5016
  290    5.780   1964.43     0.1814     0.0045     0.1360     0.0578     0.2380     2.4745    92.4800     0.1455     0.5286
  291    5.800   1965.43     0.1800     0.0045     0.1382     0.0580     0.2379     2.4976    92.8000     0.1451     0.5514
  292    5.820   1966.42     0.1808     0.0049     0.1392     0.0582     0.2393     2.7233    93.1200     0.1462     0.5545
  293    5.840   1967.37     0.1789     0.0049     0.1296     0.0584     0.2350     2.7556    93.4400     0.1415     0.5306
  294    5.860   1968.34     0.1737     0.0047     0.1322     0.0586     0.2289     2.6957    93.7600     0.1351     0.5398
  295    5.880   1969.33     0.1697     0.0042     0.1355     0.0588     0.2262     2.4961    94.0800     0.1322     0.5735
  296    5.900   1970.34     0.1686     0.0040     0.1381     0.0590     0.2264     2.3708    94.4000     0.1320     0.5947
  297    5.920   1971.35     0.1649     0.0040     0.1385     0.0592     0.2233     2.4198    94.7200     0.1286     0.6208
  298    5.940   1972.34     0.1649     0.0039     0.1389     0.0594     0.2232     2.3758    95.0400     0.1282     0.6203
  299    5.960   1973.31     0.1695     0.0036     0.1362     0.0596     0.2268     2.1483    95.3600     0.1314     0.5845
  300    5.980   1974.36     0.1677     0.0038     0.1284     0.0598     0.2217     2.2534    95.6800     0.1260     0.5454
  301    6.000   1975.36     0.1653     0.0042     0.1319     0.0600     0.2205     2.5243    96.0000     0.1245     0.5737
  302    6.020   1976.29     0.1615     0.0041     0.1282     0.0602     0.2159     2.5236    96.3200     0.1196     0.5801
  303    6.040   1977.29     0.1603     0.0039     0.1231     0.0604     0.2127     2.4431    96.6400     0.1161     0.5540
  304    6.060   1978.25     0.1570     0.0042     0.1291     0.0606     0.2098     2.6473    96.9600     0.1128     0.5765
  305    6.080   1979.27     0.1592     0.0039     0.1362     0.0608     0.2155     2.4329    97.2800     0.1182     0.6192
  306    6.100   1980.22     0.1653     0.0038     0.1409     0.0610     0.2241     2.3039    97.6000     0.1265     0.6245
  307    6.120   1981.22     0.1717     0.0036     0.1435     0.0612     0.2320     2.1488    97.9200     0.1341     0.6150
  308    6.140   1982.18     0.1792     0.0034     0.1376     0.0614     0.2378     1.9234    98.2400     0.1395     0.5589
  309    6.160   1983.16     0.1825     0.0037     0.1350     0.0616     0.2399     2.0655    98.5600     0.1413     0.5313
  310    6.180   1984.12     0.1892     0.0039     0.1331     0.0618     0.2449     2.0914    98.8800     0.1460     0.4859
  311    6.200   1985.13     0.1962     0.0041     0.1309     0.0620     0.2517     2.0978    99.2000     0.1525     0.4604
  312    6.220   1986.12     0.1914     0.0043     0.1290     0.0622     0.2457     2.2572    99.5200     0.1462     0.4583
  313    6.240   1987.09     0.1916     0.0041     0.1261     0.0624     0.2452     2.1266    99.8400     0.1454     0.4487
  314    6.260   1988.05     0.1899     0.0044     0.1293     0.0626     0.2433     2.3244   100.1600     0.1431     0.4511
  315    6.280   1989.05     0.1849     0.0045     0.1300     0.0628     0.2396     2.4441   100.4800     0.1392     0.4860
  316    6.300   1990.03     0.1812     0.0040     0.1326     0.0630     0.2364     2.2279   100.8000     0.1356     0.5033
  317    6.320   1991.00     0.1771     0.0041     0.1370     0.0632     0.2339     2.3138   101.1200     0.1328     0.5429
  318    6.340   1991.99     0.1778     0.0040     0.1385     0.0634     0.2359     2.2494   101.4400     0.1345     0.5573
  319    6.360   1992.98     0.1735     0.0038     0.1393     0.0636     0.2320     2.1899   101.7600     0.1302     0.5815
  320    6.380   1993.94     0.1774     0.0039     0.1424     0.0638     0.2366     2.2177   102.0800     0.1345     0.5735
  321    6.400   1994.95     0.1833     0.0040     0.1456     0.0640     0.2441     2.1882   102.4000     0.1417     0.5709
  322    6.420   1995.93     0.1874     0.0039     0.1484     0.0642     0.2496     2.0969   102.7200     0.1469     0.5719
  323    6.440   1996.90     0.1910     0.0040     0.1432     0.0644     0.2519     2.0764   103.0400     0.1489     0.5424
  324    6.460   1997.89     0.1953     0.0041     0.1402     0.0646     0.2543     2.1072   103.3600     0.1509     0.5023
  325    6.480   1998.89     0.1985     0.0043     0.1420     0.0648     0.2575     2.1929   103.6800     0.1538     0.4916
  326    6.500   1999.84     0.2049     0.0049     0.1463     0.0650     0.2658     2.4249   104.0000     0.1618     0.4955
  327    6.520   2000.81     0.2130     0.0053     0.1461     0.0652     0.2748     2.4989   104.3200     0.1704     0.4807
  328    6.540   2001.81     0.2188     0.0060     0.1384     0.0654     0.2782     2.7456   104.6400     0.1735     0.4376
  329    6.560   2002.77     0.2239     0.0066     0.1248     0.0656     0.2776     2.9923   104.9600     0.1727     0.3614
  330    6.580   2003.77     0.2264     0.0068     0.1256     0.0658     0.2793     3.0230   105.2800     0.1740     0.3452
  331    6.600   2004.78     0.2266     0.0074     0.1284     0.0660     0.2796     3.2309   105.6000     0.1740     0.3453
  332    6.620   2006.02     0.2211     0.0073     0.1271     0.0662     0.2745     3.2768   105.9200     0.1686     0.3627
  333    6.640   2030.82     0.2234     0.0066     0.1264     0.0664     0.2766     2.9786   106.2400     0.1703     0.3540
  334    6.660   2055.62     0.2257     0.0059     0.1257     0.0666     0.2786     2.6897   106.5600     0.1720     0.3453
  335    6.680   2073.95     0.2300     0.0059     0.1275     0.0668     0.2831     2.5644   106.8800     0.1762     0.3380
  336    6.700   2074.58     0.2339     0.0062     0.1303     0.0670     0.2881     2.6500   107.2000     0.1809     0.3432
  337    6.720   2075.20     0.2306     0.0058     0.1389     0.0672     0.2879     2.5146   107.5200     0.1804     0.3833
  338    6.740   2075.86     0.2239     0.0063     0.1446     0.0674     0.2841     2.7991   107.8400     0.1763     0.4307
  339    6.760   2076.49     0.2208     0.0059     0.1480     0.0676     0.2824     2.6676   108.1600     0.1743     0.4546
  340    6.780   2077.14     0.2157     0.0056     0.1517     0.0678     0.2787     2.5872   108.4800     0.1703     0.4831
  341    6.800   2077.77     0.2151     0.0053     0.1559     0.0680     0.2805     2.4513   108.8000     0.1717     0.5098
  342    6.820   2078.43     0.2147     0.0055     0.1611     0.0682     0.2813     2.5572   109.1200     0.1722     0.5240
  343    6.840   2079.05     0.2138     0.0056     0.1632     0.0684     0.2822     2.5843   109.4400     0.1728     0.5472
  344    6.860   2079.68     0.2189     0.0057     0.1555     0.0686     0.2853     2.6114   109.7600     0.1756     0.5103
  345    6.880   2080.34     0.2280     0.0059     0.1464     0.0688     0.2910     2.6292   110.0800     0.1809     0.4483
  346    6.900   2080.98     0.2312     0.0067     0.1399     0.0690     0.2906     2.9001   110.4000     0.1802     0.4029
  347    6.920   2081.65     0.2342     0.0071     0.1387     0.0692     0.2929     3.0473   110.7200     0.1822     0.3881
  348    6.940   2094.49     0.2339     0.0068     0.1334     0.0694     0.2907     2.9035   111.0400     0.1797     0.3654
  349    6.960   2108.73     0.2330     0.0067     0.1281     0.0696     0.2876     2.8556   111.3600     0.1762     0.3414
  350    6.980   2122.97     0.2321     0.0065     0.1245     0.0698     0.2844     2.7969   111.6800     0.1728     0.3173
  351    7.000   2126.58     0.2262     0.0068     0.1316     0.0700     0.2805     2.9749   112.0000     0.1685     0.3520
  352    7.020   2127.57     0.2203     0.0071     0.1436     0.0702     0.2787     3.2033   112.3200     0.1664     0.4136
  353    7.040   2128.53     0.2190     0.0047     0.1508     0.0704     0.2815     2.2024   112.6400     0.1689     0.4638
  354    7.060   2129.54     0.2247     0.0063     0.1576     0.0706     0.2899     2.7932   112.9600     0.1769     0.4786
  355    7.080   2130.57     0.2307     0.0067     0.1633     0.0708     0.2985     2.9308   113.2800     0.1852     0.4897
  356    7.100   2131.57     0.2361     0.0068     0.1668     0.0710     0.3060     2.8663   113.6000     0.1924     0.4953
  357    7.120   2132.56     0.2379     0.0067     0.1652     0.0712     0.3078     2.8314   113.9200     0.1939     0.4908
  358    7.140   2133.80     0.2408     0.0068     0.1572     0.0714     0.3079     2.8569   114.2400     0.1936     0.4559
  359    7.160   2135.41     0.2091     0.0070     0.1553     0.0716     0.2763     2.8825   114.5600     0.1617     0.5598
  360    7.180   2136.44     0.2446     0.0071     0.1575     0.0718     0.3104     2.8977   114.8800     0.1955     0.4338
  361    7.200   2137.43     0.2463     0.0068     0.1578     0.0720     0.3121     2.7943   115.2000     0.1969     0.4294
  362    7.220   2138.44     0.2469     0.0070     0.1564     0.0722     0.3132     2.8335   115.5200     0.1976     0.4334
  363    7.240   2148.26     0.2442     0.0068     0.1545     0.0724     0.3094     2.7714   115.8400     0.1936     0.4276
  364    7.260   2162.20     0.2412     0.0071     0.1526     0.0726     0.3056     2.8982   116.1600     0.1894     0.4257
  365    7.280   2176.13     0.2382     0.0070     0.1520     0.0728     0.3018     2.8428   116.4800     0.1853     0.4238
  366    7.300   2180.50     0.2340     0.0064     0.1648     0.0730     0.3015     2.7412   116.8000     0.1847     0.4749
  367    7.320   2181.50     0.2326     0.0064     0.1720     0.0732     0.3040     2.7423   117.1200     0.1869     0.5182
  368    7.340   2182.50     0.2289     0.0061     0.1759     0.0734     0.3023     2.6701   117.4400     0.1849     0.5488
  369    7.360   2183.51     0.2322     0.0057     0.1749     0.0736     0.3063     2.4448   117.7600     0.1886     0.5458
  370    7.380   2184.46     0.2309     0.0058     0.1720     0.0738     0.3027     2.5360   118.0800     0.1846     0.5265
  371    7.400   2185.45     0.2365     0.0060     0.1696     0.0740     0.3076     2.5576   118.4000     0.1892     0.5042
  372    7.420   2186.47     0.2379     0.0056     0.1779     0.0742     0.3122     2.3595   118.7200     0.1935     0.5305
  373    7.440   2187.46     0.2401     0.0060     0.1794     0.0744     0.3155     2.4969   119.0400     0.1964     0.5344
  374    7.460   2188.45     0.2410     0.0066     0.1781     0.0746     0.3161     2.7663   119.3600     0.1967     0.5299
  375    7.480   2189.45     0.2413     0.0065     0.1724     0.0748     0.3137     2.7202   119.6800     0.1941     0.5033
  376    7.500   2190.42     0.2406     0.0064     0.1794     0.0750     0.3156     2.6460   120.0000     0.1956     0.5290
  377    7.520   2191.40     0.2360     0.0068     0.1819     0.0752     0.3129     2.8670   120.3200     0.1926     0.5601
  378    7.540   2192.39     0.2356     0.0062     0.1880     0.0754     0.3140     2.6514   120.6400     0.1934     0.5754
  379    7.560   2193.40     0.2362     0.0059     0.1908     0.0756     0.3156     2.4795   120.9600     0.1947     0.5834
  380    7.580   2194.40     0.2342     0.0056     0.1832     0.0758     0.3126     2.3791   121.2800     0.1913     0.5798
  381    7.600   2195.34     0.2324     0.0054     0.1783     0.0760     0.3075     2.3258   121.6000     0.1859     0.5533
  382    7.620   2196.38     0.2371     0.0060     0.1753     0.0762     0.3110     2.5127   121.9200     0.1891     0.5277
  383    7.640   2197.37     0.2381     0.0058     0.1776     0.0764     0.3125     2.4431   122.2400     0.1902     0.5298
  384    7.660   2198.33     0.2428     0.0062     0.1767     0.0766     0.3175     2.5442   122.5600     0.1949     0.5194
  385    7.680   2199.33     0.2469     0.0067     0.1817     0.0768     0.3233     2.6954   122.8800     0.2005     0.5244
  386    7.700   2200.32     0.2485     0.0061     0.1870     0.0770     0.3261     2.4626   123.2000     0.2029     0.5314
  387    7.720   2201.32     0.2423     0.0063     0.1808     0.0772     0.3196     2.5877   123.5200     0.1961     0.5447
  388    7.740   2202.34     0.2403     0.0062     0.1798     0.0774     0.3155     2.6038   123.8400     0.1917     0.5306
  389    7.760   2203.30     0.2423     0.0063     0.1868     0.0776     0.3203     2.5952   124.1600     0.1962     0.5510
  390    7.780   2204.31     0.2363     0.0062     0.1973     0.0778     0.3177     2.6334   124.4800     0.1932     0.6002
  391    7.800   2205.33     0.2388     0.0058     0.2039     0.0780     0.3238     2.4489   124.8000     0.1990     0.6249
  392    7.820   2206.35     0.2466     0.0058     0.1873     0.0782     0.3298     2.3743   125.1200     0.2047     0.5864
  393    7.840   2207.32     0.2541     0.0062     0.1791     0.0784     0.3294     2.4303   125.4400     0.2039     0.4942
  394    7.860   2208.26     0.2552     0.0060     0.1790     0.0786     0.3305     2.3608   125.7600     0.2047     0.4911
  395    7.880   2209.26     0.2606     0.0063     0.1833     0.0788     0.3394     2.4406   126.0800     0.2134     0.5104
  396    7.900   2210.28     0.2699     0.0067     0.1843     0.0790     0.3462     2.5044   126.4000     0.2198     0.4680
  397    7.920   2211.28     0.2776     0.0066     0.1932     0.0792     0.3572     2.3676   126.7200     0.2305     0.4788
  398    7.940   2212.27     0.2786     0.0067     0.1907     0.0794     0.3589     2.4160   127.0400     0.2319     0.4819
  399    7.960   2213.29     0.2781     0.0066     0.1728     0.0796     0.3503     2.3845   127.3600     0.2230     0.4141
  400    7.980   2214.24     0.2782     0.0062     0.1825     0.0798     0.3538     2.2360   127.6800     0.2261     0.4430
  401    8.000   2215.27     0.2718     0.0063     0.1803     0.0800     0.3457     2.2883   128.0000     0.2177     0.4407
  402    8.020   2216.23     0.2647     0.0060     0.1869     0.0802     0.3419     2.2581   128.3200     0.2136     0.4852
  403    8.040   2217.23     0.2666     0.0060     0.1986     0.0804     0.3484     2.2451   128.6400     0.2197     0.5207
  404    8.060   2218.21     0.2579     0.0065     0.2083     0.0806     0.3439     2.5306   128.9600     0.2150     0.5781
  405    8.080   2219.25     0.2635     0.0066     0.2093     0.0808     0.3522     2.5026   129.2800     0.2229     0.5847
  406    8.100   2220.24     0.2716     0.0062     0.1995     0.0810     0.3570     2.2954   129.6000     0.2274     0.5375
  407    8.120   2221.21     0.2794     0.0064     0.1914     0.0812     0.3607     2.3099   129.9200     0.2308     0.4868
  408    8.140   2222.21     0.2717     0.0061     0.1968     0.0814     0.3530     2.2407   130.2400     0.2228     0.5042
  409    8.160   2223.16     0.2595     0.0065     0.2122     0.0816     0.3472     2.4882   130.5600     0.2166     0.5865
  410    8.180   2224.21     0.2600     0.0064     0.2208     0.0818     0.3516     2.4581   130.8800     0.2208     0.6174
  411    8.200   2225.20     0.2669     0.0067     0.2199     0.0820     0.3603     2.5210   131.2000     0.2291     0.6122
  412    8.220   2226.22     0.2684     0.0065     0.2243     0.0822     0.3619     2.4048   131.5200     0.2304     0.6096
  413    8.240   2227.20     0.2708     0.0064     0.2171     0.0824     0.3619     2.3636   131.8400     0.2300     0.5842
  414    8.260   2228.16     0.2624     0.0063     0.2190     0.0826     0.3543     2.4009   132.1600     0.2221     0.6133
  415    8.280   2229.19     0.2662     0.0062     0.2219     0.0828     0.3579     2.3481   132.4800     0.2254     0.6011
  416    8.300   2230.18     0.2646     0.0065     0.2245     0.0830     0.3586     2.4590   132.8000     0.2258     0.6238
  417    8.320   2231.16     0.2720     0.0067     0.2247     0.0832     0.3655     2.4602   133.1200     0.2324     0.6004
  418    8.340   2232.19     0.2809     0.0064     0.2316     0.0834     0.3775     2.2906   133.4400     0.2441     0.6009
  419    8.360   2233.18     0.2893     0.0063     0.2149     0.0836     0.3807     2.1963   133.7600     0.2469     0.5421
  420    8.380   2234.19     0.2877     0.0058     0.2205     0.0838     0.3790     2.0038   134.0800     0.2449     0.5454
  421    8.400   2235.20     0.2976     0.0060     0.2026     0.0840     0.3868     2.0336   134.4000     0.2524     0.5089
  422    8.420   2236.10     0.2994     0.0060     0.2190     0.0842     0.3883     1.9767   134.7200     0.2536     0.5034
  423    8.440   2237.13     0.2984     0.0060     0.2127     0.0844     0.3898     2.0302   135.0400     0.2547     0.5230
  424    8.460   2238.18     0.2856     0.0058     0.2125     0.0846     0.3733     1.9860   135.3600     0.2380     0.5227
  425    8.480   2239.15     0.2861     0.0059     0.2121     0.0848     0.3754     2.0688   135.6800     0.2398     0.5333
  426    8.500   2240.15     0.2920     0.0056     0.2112     0.0850     0.3803     1.9083   136.0000     0.2443     0.5127
  427    8.520   2241.11     0.2895     0.0058     0.2192     0.0852     0.3808     2.0094   136.3200     0.2445     0.5407
  428    8.540   2242.09     0.2861     0.0057     0.2260     0.0854     0.3799     1.9797   136.6400     0.2433     0.5668
  429    8.560   2243.10     0.2838     0.0055     0.2292     0.0856     0.3793     1.9434   136.9600     0.2424     0.5853
  430    8.580   2244.08     0.2923     0.0056     0.2354     0.0858     0.3907     1.9177   137.2800     0.2534     0.5854
  431    8.600   2245.12     0.3080     0.0056     0.2263     0.0860     0.4044     1.8371   137.6000     0.2668     0.5375
  432    8.620   2246.11     0.3161     0.0058     0.2187     0.0862     0.4092     1.8269   137.9200     0.2713     0.4989
  433    8.640   2247.10     0.3134     0.0063     0.2057     0.0864     0.4023     1.9956   138.2400     0.2641     0.4742
  434    8.660   2248.11     0.2951     0.0063     0.1889     0.0866     0.3759     2.1301   138.5600     0.2373     0.4452
  435    8.680   2249.07     0.2796     0.0066     0.1946     0.0868     0.3607     2.3511   138.8800     0.2218     0.4798
  436    8.700   2250.06     0.2670     0.0063     0.1932     0.0870     0.3478     2.3437   139.2000     0.2086     0.5049
  437    8.720   2251.06     0.2553     0.0047     0.2002     0.0872     0.3378     1.8588   139.5200     0.1983     0.5504
  438    8.740   2252.07     0.2522    -0.0004     0.2039     0.0874     0.3387    -0.1389   139.8400     0.1989     0.5961
  439    8.760   2253.06     0.2970    -0.0018     0.1981     0.0876     0.3806    -0.6777   140.1600     0.2404     0.4639
  440    8.780   2254.09     0.3104    -0.0018     0.1944     0.0878     0.3920    -0.5994   140.4800     0.2515     0.4233
  441    8.800   2255.07     0.3493    -0.0010     0.2004     0.0880     0.4320    -0.3241   140.8000     0.2912     0.3751
  442    8.820   2256.09     0.5124    -0.0001     0.2119     0.0882     0.6008    -0.0225   141.1200     0.4597     0.2703
  443    8.840   2257.08     1.2010     0.0045     0.1632     0.0884     1.2810     0.5365   141.4400     1.1395     0.0990
  444    8.860   2259.79     2.2286     0.0117     0.1196     0.0886     2.2816     0.6018   141.7600     2.1398     0.0199
  445    8.880   2266.08     3.0253     0.0283     0.1002     0.0888     3.0702     1.4349   142.0800     2.9282     0.0093
  446    8.900   2272.00     4.5767     0.0316     0.0920     0.0890     4.6107     0.7167   142.4000     4.4683    -0.0018
  447    8.920   2273.23     5.3879     0.0406     0.0861     0.0892     5.4228     0.8985   142.7200     5.2801    -0.0011
  448    8.940   2274.29     6.7266     0.0494     0.0742     0.0894     6.7610     0.7411   143.0400     6.6179    -0.0011
  449    8.960   2275.32     7.9316     0.0483     0.0591     0.0896     7.9569     0.6469   143.3600     7.8135    -0.0038
  450    8.980   2276.56     8.8502     0.0424     0.0776     0.0898     8.8725     0.4870   143.6800     8.7288    -0.0042
  451    9.000   2278.34     8.6895     0.0407     0.0768     0.0900     8.7183     0.4784   144.0000     8.5743    -0.0025
  452    9.020   2279.36     8.6907     0.0333     0.0781     0.0902     8.7236     0.3804   144.3200     8.5793    -0.0014
  453    9.040   2280.35     8.1858     0.0284     0.0840     0.0904     8.2230     0.3440   144.6400     8.0783    -0.0002
  454    9.060   2281.39     7.3917     0.0255     0.0885     0.0906     7.4273     0.3384   144.9600     7.2824    -0.0008
  455    9.080   2282.43     6.4212     0.0244     0.0918     0.0908     6.4623     0.3721   145.2800     6.3170     0.0011
  456    9.100   2283.58     5.2114     0.0241     0.1012     0.0910     5.2512     0.4300   145.6000     5.1056     0.0007
  457    9.120   2285.34     4.2963     0.0263     0.0962     0.0912     4.3355     0.5890   145.9200     4.1896     0.0005
  458    9.140   2286.37     3.8313     0.0285     0.1016     0.0914     3.8745     0.7510   146.2400     3.7282     0.0031
  459    9.160   2287.37     3.1293     0.0307     0.1055     0.0916     3.1735     0.9620   146.5600     3.0269     0.0045
  460    9.180   2288.36     2.5763     0.0331     0.1131     0.0918     2.6224     1.2768   146.8800     2.4756     0.0074
  461    9.200   2289.35     2.3062     0.0335     0.1169     0.0920     2.3550     1.3826   147.2000     2.2078     0.0110
  462    9.220   2299.49     2.3089     0.0316     0.1254     0.0922     2.3603     1.3449   147.5200     2.2128     0.0134
  463    9.240   2316.53     2.4292     0.0278     0.1345     0.0924     2.4844     1.1509   147.8400     2.3365     0.0164
  464    9.260   2332.33     2.6018     0.0241     0.1751     0.0926     2.6632     0.9570   148.1600     2.5150     0.0211
  465    9.280   2333.42     3.9749     0.0237     0.1360     0.0928     4.0451     0.7052   148.4800     3.8966     0.0199
  466    9.300   2334.42     6.5934     0.0238     0.0258     0.0930     6.6152     0.4128   148.8000     6.4664    -0.0062
  467    9.320   2335.79     9.5070     0.0261    -0.0124     0.0932     9.4961     0.2944   149.1200     9.3469    -0.0134
  468    9.340   2338.08    11.4902     0.0318     0.0269     0.0934    11.4958     0.3514   149.4400    11.3464    -0.0087
  469    9.360   2340.36    13.4733     0.0348     0.0663     0.0936    13.4955     0.3854   149.7600    13.3457    -0.0040
  470    9.380   2342.19    15.2524     0.0370     0.0912     0.0938    15.2897     0.2521   150.0800    15.1396    -0.0003
  471    9.400   2343.20    16.6981     0.0420     0.0917     0.0940    16.7381     0.2532   150.4000    16.5877     0.0001
  472    9.420   2344.27    18.7698     0.0470     0.0956     0.0942    18.8092     0.2543   150.7200    18.6584     0.0000
  473    9.440   2345.35    21.1321     0.0519     0.0934     0.0944    21.1707     0.2554   151.0400    21.0196    -0.0001
  474    9.460   2346.36    23.6006     0.0560     0.0936     0.0946    23.6389     0.2482   151.3600    23.4875    -0.0001
  475    9.480   2347.38    25.8400     0.0621     0.0923     0.0948    25.8800     0.2496   151.6800    25.7284     0.0000
  476    9.500   2348.87    26.8931     0.0702     0.0901     0.0950    26.9312     0.2636   152.0000    26.7792    -0.0002
  477    9.520   2350.70    27.3391     0.0762     0.0883     0.0952    27.3764     0.2864   152.3200    27.2241    -0.0002
  478    9.540   2352.53    27.7850     0.0718     0.0865     0.0954    27.8216     0.2696   152.6400    27.6690    -0.0003
  479    9.560   2354.08    27.9032     0.0667     0.0847     0.0956    27.9396     0.2378   152.9600    27.7866    -0.0003
  480    9.580   2355.02    27.3360     0.0594     0.0906     0.0958    27.3719     0.2159   153.2800    27.2186    -0.0004
  481    9.600   2356.03    27.1130     0.0549     0.0842     0.0960    27.1488     0.2026   153.6000    26.9952    -0.0004
  482    9.620   2356.99    26.9168     0.0544     0.0837     0.0962    26.9536     0.2013   153.9200    26.7996    -0.0003
  483    9.640   2357.98    26.6522     0.0614     0.0897     0.0964    26.6892     0.2297   154.2400    26.5349    -0.0003
  484    9.660   2358.93    26.6172     0.0718     0.0897     0.0966    26.6560     0.2710   154.5600    26.5014    -0.0002
  485    9.680   2359.89    26.5435     0.0778     0.0841     0.0968    26.5813     0.2948   154.8800    26.4264    -0.0003
  486    9.700   2360.86    26.2676     0.0838     0.1005     0.0970    26.3041     0.3186   155.2000    26.1489    -0.0004
  487    9.720   2361.81    26.3075     0.0800     0.0949     0.0972    26.3458     0.3044   155.5200    26.1903    -0.0002
  488    9.740   2362.81    26.7341     0.0659     0.0909     0.0974    26.7708     0.2492   155.8400    26.6150    -0.0004
  489    9.760   2363.85    27.7251     0.0625     0.0714     0.0976    27.7551     0.2293   156.1600    27.5990    -0.0009
  490    9.780   2366.72    28.4513     0.0591     0.0710     0.0978    28.4811     0.2134   156.4800    28.3246    -0.0009
  491    9.800   2369.58    29.1775     0.0586     0.0705     0.0980    29.2072     0.2117   156.8000    29.0504    -0.0009
  492    9.820   2371.98    29.7661     0.0578     0.0690     0.0982    29.7954     0.1945   157.1200    29.6382    -0.0010
  493    9.840   2372.97    30.3401     0.0591     0.0752     0.0984    30.3705     0.1959   157.4400    30.2131    -0.0009
  494    9.860   2373.93    31.0415     0.0572     0.0565     0.0986    31.0685     0.1849   157.7600    30.9107    -0.0011
  495    9.880   2374.92    31.4821     0.0591     0.0425     0.0988    31.5008     0.1882   158.0800    31.3427    -0.0017
  496    9.900   2375.89    32.1643     0.0628     0.0171     0.0990    32.1728     0.1962   158.4000    32.0144    -0.0025
  497    9.920   2376.91    32.7099     0.0678     0.0533     0.0992    32.7243     0.2082   158.7200    32.5656    -0.0020
  498    9.940   2377.91    33.0504     0.0742     0.0462     0.0994    33.0722     0.2248   159.0400    32.9131    -0.0014
  499    9.960   2378.89    33.1360     0.0712     0.0707     0.0996    33.1633     0.2152   159.3600    33.0040    -0.0010
  500    9.980   2379.83    33.0960     0.0709     0.0737     0.0998    33.1249     0.2138   159.6800    32.9653    -0.0009
  501   10.000   2380.81    32.4441     0.0696     0.0753     0.1000    32.4725     0.2133   160.0000    32.3125    -0.0010
  502   10.020   2381.75    31.8399     0.0684     0.0774     0.1002    31.8711     0.2136   160.3200    31.7108    -0.0008
  503   10.040   2382.70    31.7101     0.0635     0.0751     0.1004    31.7428     0.2005   160.6400    31.5821    -0.0007
  504   10.060   2383.71    31.8205     0.0628     0.0789     0.1006    31.8531     0.1972   160.9600    31.6922    -0.0007
  505   10.080   2384.64    31.4257     0.0660     0.0860     0.1008    31.4641     0.2094   161.2800    31.3028    -0.0003
  506   10.100   2385.64    31.3905     0.0652     0.0860     0.1010    31.4276     0.2076   161.6000    31.2660    -0.0004
  507   10.120   2386.63    31.1942     0.0662     0.0888     0.1012    31.2320     0.2120   161.9200    31.0701    -0.0004
  508   10.140   2387.59    30.6892     0.0714     0.0896     0.1014    30.7282     0.2313   162.2400    30.5660    -0.0003
  509   10.160   2388.55    30.2120     0.0720     0.0857     0.1016    30.2451     0.2378   162.5600    30.0826    -0.0008
  510   10.180   2389.52    29.9714     0.0662     0.0880     0.1018    30.0101     0.2207   162.8800    29.8472    -0.0003
  511   10.200   2390.49    29.9963     0.0648     0.0921     0.1020    30.0356     0.2161   163.2000    29.8724    -0.0003
  512   10.220   2391.48    30.1391     0.0690     0.0965     0.1022    30.1784     0.2293   163.5200    30.0149    -0.0003
  513   10.240   2392.50    30.8742     0.0699     0.0947     0.1024    30.9108     0.2271   163.8400    30.7470    -0.0005
  514   10.260   2393.50    31.9850     0.0710     0.0902     0.1026    32.0247     0.2229   164.1600    31.8605    -0.0003
  515   10.280   2394.47    33.0120     0.0779     0.0942     0.1028    33.0523     0.2371   164.4800    32.8878    -0.0002
  516   10.300   2395.50    33.9659     0.0803     0.0628     0.1030    33.9993     0.2373   164.8000    33.8345    -0.0007
  517   10.320   2396.48    34.6266     0.0788     0.0578     0.1032    34.6484     0.2280   165.1200    34.4832    -0.0015
  518   10.340   2397.47    34.9993     0.0762     0.0528     0.1034    35.0252     0.2176   165.4400    34.8597    -0.0012
  519   10.360   2398.47    34.9872     0.0791     0.0823     0.1036    35.0200     0.2235   165.7600    34.8542    -0.0007
  520   10.380   2399.46    35.6749     0.0824     0.0881     0.1038    35.7088     0.2293   166.0800    35.5427    -0.0007
  521   10.400   2400.46    36.8933     0.0858     0.0983     0.1040    36.9302     0.2351   166.4000    36.7638    -0.0004
  522   10.420   2401.45    37.8698     0.0879     0.0961     0.1042    37.9119     0.2347   166.7200    37.7451    -0.0001
  523   10.440   2402.49    38.6180     0.0944     0.0936     0.1044    38.6556     0.2447   167.0400    38.4886    -0.0004
  524   10.460   2403.73    39.4026     0.1043     0.0840     0.1046    39.4367     0.2658   167.3600    39.2694    -0.0006
  525   10.480   2405.80    40.1228     0.1130     0.0918     0.1048    40.1602     0.2880   167.6800    39.9925    -0.0004
  526   10.500   2407.88    40.8430     0.1207     0.0997     0.1050    40.8838     0.3076   168.0000    40.7158    -0.0002
  527   10.520   2409.59    41.1751     0.1279     0.1007     0.1052    41.2174     0.3100   168.3200    41.0491    -0.0001
  528   10.540   2410.55    40.7768     0.1286     0.1053     0.1054    40.8211     0.3150   168.6400    40.6524     0.0000
  529   10.560   2411.54    40.1958     0.1288     0.1103     0.1056    40.2407     0.3195   168.9600    40.0717     0.0000
  530   10.580   2412.55    39.3772     0.1293     0.0952     0.1058    39.4178     0.3269   169.2800    39.2485    -0.0002
  531   10.600   2413.53    38.9163     0.1276     0.0941     0.1060    38.9569     0.3272   169.6000    38.7873    -0.0002
  532   10.620   2414.54    38.2069     0.1236     0.1031     0.1062    38.2483     0.3208   169.9200    38.0783    -0.0002
  533   10.640   2415.50    36.9683     0.1248     0.0952     0.1064    37.0099     0.3341   170.2400    36.8396    -0.0002
  534   10.660   2416.49    35.5491     0.1240     0.0955     0.1066    35.5906     0.3446   170.5600    35.4201    -0.0002
  535   10.680   2417.43    34.3144     0.1205     0.1012     0.1068    34.3526     0.3489   170.8800    34.1817    -0.0005
  536   10.700   2418.40    33.3188     0.1169     0.0975     0.1070    33.3602     0.3486   171.2000    33.1890    -0.0003
  537   10.720   2419.38    32.5440     0.1087     0.0948     0.1072    32.5813     0.3319   171.5200    32.4098    -0.0006
  538   10.740   2420.31    31.9303     0.0997     0.0951     0.1074    31.9723     0.3112   171.8400    31.8004    -0.0002
  539   10.760   2421.36    31.5730     0.0921     0.1002     0.1076    31.6143     0.2915   172.1600    31.4422    -0.0003
  540   10.780   2422.33    31.5836     0.0905     0.0970     0.1078    31.6234     0.2862   172.4800    31.4509    -0.0004
  541   10.800   2423.29    31.3115     0.0866     0.0887     0.1080    31.3489     0.2763   172.8000    31.1761    -0.0006
  542   10.820   2424.24    31.7022     0.0868     0.0915     0.1082    31.7411     0.2751   173.1200    31.5680    -0.0005
  543   10.840   2425.23    32.6383     0.0910     0.0829     0.1084    32.6772     0.2806   173.4400    32.5038    -0.0005
  544   10.860   2426.26    34.0940     0.1011     0.0929     0.1086    34.1333     0.2978   173.7600    33.9595    -0.0004
  545   10.880   2427.26    34.6989     0.1050     0.0992     0.1088    34.7400     0.3028   174.0800    34.5659    -0.0003
  546   10.900   2428.23    34.2106     0.1064     0.0952     0.1090    34.2488     0.3098   174.4000    34.0744    -0.0005
  547   10.920   2429.22    33.5176     0.1071     0.1083     0.1092    33.5641     0.3183   174.7200    33.3894     0.0000
  548   10.940   2430.18    33.5481     0.1060     0.1050     0.1094    33.5903     0.3163   175.0400    33.4153    -0.0003
  549   10.960   2431.14    34.0698     0.1060     0.1045     0.1096    34.1119     0.3120   175.3600    33.9366    -0.0003
  550   10.980   2432.19    34.7024     0.1079     0.1070     0.1098    34.7461     0.3126   175.6800    34.5704    -0.0002
  551   11.000   2433.14    34.9464     0.1071     0.1062     0.1100    34.9902     0.3068   176.0000    34.8142    -0.0002
  552   11.020   2434.14    34.7625     0.1099     0.1075     0.1102    34.8075     0.3154   176.3200    34.6311    -0.0001
  553   11.040   2435.11    34.7589     0.1127     0.0992     0.1104    34.8012     0.3250   176.6400    34.6245    -0.0003
  554   11.060   2436.09    34.7496     0.1164     0.1057     0.1106    34.7940     0.3348   176.9600    34.6171    -0.0001
  555   11.080   2437.04    34.4109     0.1154     0.0983     0.1108    34.4526     0.3346   177.2800    34.2753    -0.0003
  556   11.100   2438.01    33.8176     0.1149     0.1085     0.1110    33.8613     0.3385   177.6000    33.6837    -0.0002
  557   11.120   2438.99    33.1976     0.1149     0.1050     0.1112    33.2429     0.3448   177.9200    33.0650    -0.0001
  558   11.140   2439.99    32.5439     0.1188     0.1022     0.1114    32.5866     0.3633   178.2400    32.4084    -0.0003
  559   11.160   2440.97    32.0736     0.1228     0.1018     0.1116    32.1176     0.3818   178.5600    31.9391    -0.0002
  560   11.180   2441.96    31.7169     0.1284     0.1197     0.1118    31.7636     0.4036   178.8800    31.5847     0.0000
  561   11.200   2442.96    31.4256     0.1351     0.1203     0.1120    31.4733     0.4291   179.2000    31.2941     0.0001
  562   11.220   2445.72    31.5499     0.1531     0.1274     0.1122    31.6033     0.4868   179.5200    31.4238     0.0005
  563   11.240   2457.82    32.2012     0.1691     0.1284     0.1124    32.2549     0.5378   179.8400    32.0751     0.0005
  564   11.260   2469.93    32.8523     0.1931     0.1295     0.1126    32.9066     0.6141   180.1600    32.7264     0.0005
  565   11.280   2481.31    33.4980     0.2140     0.1208     0.1128    33.5520     0.6461   180.4800    33.3715     0.0005
  566   11.300   2482.32    33.9521     0.2355     0.1255     0.1130    34.0072     0.6950   180.8000    33.8264     0.0005
  567   11.320   2483.32    34.1764     0.2562     0.1292     0.1132    34.2320     0.7503   181.1200    34.0509     0.0006
  568   11.340   2484.27    34.2766     0.2772     0.1393     0.1134    34.3314     0.8086   181.4400    34.1500     0.0005
  569   11.360   2485.32    34.1420     0.2979     0.1198     0.1136    34.1950     0.8713   181.7600    34.0132     0.0004
  570   11.380   2486.27    34.0137     0.3100     0.1190     0.1138    34.0608     0.9107   182.0800    33.8788     0.0000
  571   11.400   2487.26    33.5538     0.3079     0.1203     0.1140    33.6086     0.9153   182.4000    33.4262     0.0005
  572   11.420   2488.23    33.0684     0.3030     0.1192     0.1142    33.1176     0.9129   182.7200    32.9348     0.0001
  573   11.440   2489.23    32.2793     0.2955     0.1207     0.1144    32.3357     0.9120   183.0400    32.1527     0.0006
  574   11.460   2490.22    31.3130     0.2913     0.1008     0.1146    31.3529     0.9253   183.3600    31.1695    -0.0006
  575   11.480   2491.19    30.4477     0.2850     0.1011     0.1148    30.4945     0.9315   183.6800    30.3108    -0.0001
  576   11.500   2492.15    29.8800     0.2782     0.0985     0.1150    29.9182     0.9286   184.0000    29.7342    -0.0008
  577   11.520   2493.14    29.8980     0.2698     0.0978     0.1152    29.9394     0.9030   184.3200    29.7551    -0.0006
  578   11.540   2494.14    30.2136     0.2623     0.1060     0.1154    30.2569     0.8696   184.6400    30.0722    -0.0004
  579   11.560   2495.11    30.4430     0.2571     0.1249     0.1156    30.4938     0.8450   184.9600    30.3089     0.0002
  580   11.580   2496.11    30.8191     0.2485     0.1256     0.1158    30.8725     0.8079   185.2800    30.6873     0.0004
  581   11.600   2497.15    31.3239     0.2353     0.1263     0.1160    31.3757     0.7529   185.6000    31.1901     0.0002
  582   11.620   2498.14    31.8213     0.2160     0.1114     0.1162    31.8706     0.6799   185.9200    31.6847     0.0000
  583   11.640   2499.12    32.3487     0.1959     0.0736     0.1164    32.3855     0.6074   186.2400    32.1992    -0.0009
  584   11.660   2500.09    33.1180     0.1745     0.0730     0.1166    33.1488     0.5292   186.5600    32.9623    -0.0013
  585   11.680   2501.10    33.9581     0.1611     0.0726     0.1168    33.9876     0.4765   186.8800    33.8008    -0.0014
  586   11.700   2502.13    34.3995     0.1614     0.0892     0.1170    34.4374     0.4699   187.2000    34.2502    -0.0008
  587   11.720   2503.15    34.0602     0.1609     0.0825     0.1172    34.0930     0.4696   187.5200    33.9054    -0.0012
  588   11.740   2504.08    33.3036     0.1567     0.0879     0.1174    33.3401     0.4673   187.8400    33.1523    -0.0009
  589   11.760   2505.06    32.6088     0.1474     0.0889     0.1176    32.6462     0.4492   188.1600    32.4581    -0.0009
  590   11.780   2506.01    31.9839     0.1435     0.0945     0.1178    32.0226     0.4456   188.4800    31.8341    -0.0008
  591   11.800   2507.00    31.1205     0.1419     0.1110     0.1180    31.1648     0.4509   188.8000    30.9760    -0.0004
  592   11.820   2507.99    29.8421     0.1408     0.1064     0.1182    29.8854     0.4645   189.1200    29.6963    -0.0005
  593   11.840   2508.93    28.7377     0.1369     0.1200     0.1184    28.7880     0.4700   189.4400    28.5985     0.0000
  594   11.860   2509.89    27.7741     0.1407     0.1266     0.1186    27.8246     0.5019   189.7600    27.6348     0.0001
  595   11.880   2510.84    26.9496     0.1479     0.1368     0.1188    27.0044     0.5445   190.0800    26.8144     0.0004
  596   11.900   2511.82    26.1449     0.1539     0.1226     0.1190    26.2000     0.5839   190.4000    26.0096     0.0005
  597   11.920   2512.73    25.5354     0.1512     0.1191     0.1192    25.5893     0.5893   190.7200    25.3985     0.0004
  598   11.940   2513.71    25.3701     0.1450     0.1156     0.1194    25.4124     0.5716   191.0400    25.2214    -0.0007
  599   11.960   2514.72    25.6613     0.1486     0.1245     0.1196    25.7124     0.5810   191.3600    25.5211     0.0001
  600   11.980   2515.69    26.2565     0.1722     0.1184     0.1198    26.3119     0.6604   191.6800    26.1202     0.0005
  601   12.000   2516.67    27.0882     0.1934     0.0976     0.1200    27.1345     0.7185   192.0000    26.9425    -0.0004
  602   12.020   2517.64    28.1892     0.2094     0.0639     0.1202    28.2238     0.7498   192.3200    28.0315    -0.0013
  603   12.040   2518.63    28.9889     0.2237     0.0145     0.1204    28.9991     0.7753   192.6400    28.8064    -0.0033
  604   12.060   2519.55    29.1022     0.2405     0.0392     0.1206    29.1139     0.8262   192.9600    28.9209    -0.0032
  605   12.080   2520.55    29.0984     0.2604     0.0570     0.1208    29.1187     0.8939   193.2800    28.9254    -0.0025
  606   12.100   2521.55    28.8656     0.2727     0.0960     0.1210    28.9028     0.9425   193.6000    28.7092    -0.0011
  607   12.120   2522.54    28.6925     0.2741     0.0981     0.1212    28.7322     0.9542   193.9200    28.5383    -0.0009
  608   12.140   2523.54    28.5800     0.2707     0.1077     0.1214    28.6220     0.9465   194.2400    28.4278    -0.0008
  609   12.160   2524.51    28.2768     0.2693     0.1211     0.1216    28.3255     0.9493   194.5600    28.1309    -0.0002
  610   12.180   2525.46    27.9227     0.2712     0.1153     0.1218    27.9750     0.9688   194.8800    27.7801     0.0001
  611   12.200   2526.45    27.5587     0.2705     0.1150     0.1220    27.6105     0.9793   195.2000    27.4153     0.0000
  612   12.220   2527.46    27.2205     0.2645     0.1283     0.1222    27.2724     0.9682   195.5200    27.0768     0.0001
  613   12.240   2528.44    26.8169     0.2609     0.1281     0.1224    26.8687     0.9678   195.8400    26.6729     0.0000
  614   12.260   2529.40    26.4281     0.2534     0.1211     0.1226    26.4800     0.9548   196.1600    26.2839     0.0000
  615   12.280   2530.33    26.0278     0.2483     0.1200     0.1228    26.0790     0.9498   196.4800    25.8825     0.0000
  616   12.300   2531.34    25.6470     0.2384     0.1211     0.1230    25.7004     0.9248   196.8000    25.5036     0.0002
  617   12.320   2532.31    25.3165     0.2305     0.1153     0.1232    25.3652     0.9067   197.1200    25.1680    -0.0003
  618   12.340   2533.28    25.0790     0.2225     0.1119     0.1234    25.1255     0.8852   197.4400    24.9280    -0.0005
  619   12.360   2534.25    24.9839     0.2145     0.1107     0.1236    25.0279     0.8584   197.7600    24.8301    -0.0008
  620   12.380   2535.20    24.9000     0.2098     0.1248     0.1238    24.9539     0.8419   198.0800    24.7558     0.0002
  621   12.400   2536.14    24.8734     0.2106     0.1145     0.1240    24.9218     0.8463   198.4000    24.7234    -0.0004
  622   12.420   2537.14    24.8298     0.2109     0.1346     0.1242    24.8851     0.8494   198.7200    24.6864     0.0003
  623   12.440   2538.10    24.8840     0.2139     0.1200     0.1244    24.9350     0.8607   199.0400    24.7360    -0.0001
  624   12.460   2539.12    25.1053     0.2118     0.1257     0.1246    25.1582     0.8456   199.3600    24.9588     0.0001
  625   12.480   2540.13    25.4050     0.2083     0.1280     0.1248    25.4571     0.8228   199.6800    25.2574     0.0000
  626   12.500   2541.05    25.5941     0.2073     0.1301     0.1250    25.6488     0.8110   200.0000    25.4488     0.0002
  627   12.520   2542.03    25.6290     0.2079     0.1252     0.1252    25.6829     0.8115   200.3200    25.4826     0.0001
  628   12.540   2543.01    25.6022     0.2131     0.1185     0.1254    25.6552     0.8320   200.6400    25.4546     0.0000
  629   12.560   2544.01    25.6004     0.2199     0.1182     0.1256    25.6500     0.8593   200.9600    25.4491    -0.0003
  630   12.580   2545.00    25.6384     0.2204     0.1282     0.1258    25.6905     0.8604   201.2800    25.4893    -0.0001
  631   12.600   2545.94    25.6264     0.2235     0.1245     0.1260    25.6808     0.8718   201.6000    25.4792     0.0001
  632   12.620   2546.89    25.5938     0.2330     0.1261     0.1262    25.6482     0.9095   201.9200    25.4463     0.0001
  633   12.640   2547.87    25.0580     0.2516     0.1527     0.1264    25.1162     0.9939   202.2400    24.9140     0.0005
  634   12.660   2548.84    24.0775     0.2700     0.1249     0.1266    24.1357     1.1135   202.5600    23.9331     0.0005
  635   12.680   2549.82    23.7651     0.2690     0.1188     0.1268    23.8142     1.1286   202.8800    23.6114    -0.0004
  636   12.700   2550.82    23.5290     0.2520     0.1256     0.1270    23.5853     1.0670   203.2000    23.3821     0.0003
  637   12.720   2551.77    23.4993     0.2366     0.1303     0.1272    23.5524     1.0074   203.5200    23.3489     0.0000
  638   12.740   2552.75    23.5524     0.2177     0.1353     0.1274    23.6077     0.9242   203.8400    23.4039     0.0002
  639   12.760   2553.70    23.4352     0.2031     0.1261     0.1276    23.4889     0.8645   204.1600    23.2848     0.0000
  640   12.780   2554.68    23.3162     0.1927     0.1014     0.1278    23.3622     0.8256   204.4800    23.1577    -0.0008
  641   12.800   2555.71    23.5634     0.1807     0.0909     0.1280    23.6005     0.7705   204.8000    23.3957    -0.0017
  642   12.820   2556.66    23.9326     0.1724     0.1066     0.1282    23.9754     0.7234   205.1200    23.7703    -0.0011
  643   12.840   2557.63    24.1190     0.1695     0.1249     0.1284    24.1682     0.7034   205.4400    23.9628    -0.0005
  644   12.860   2558.59    24.0808     0.1710     0.1273     0.1286    24.1355     0.7095   205.7600    23.9298     0.0001
  645   12.880   2559.52    23.8546     0.1762     0.1224     0.1288    23.9058     0.7359   206.0800    23.6998    -0.0003
  646   12.900   2560.49    23.5942     0.1781     0.1318     0.1290    23.6482     0.7519   206.4000    23.4418     0.0000
  647   12.920   2561.46    23.3123     0.1775     0.1326     0.1292    23.3679     0.7577   206.7200    23.1612     0.0001
  648   12.940   2562.43    23.0942     0.1761     0.1287     0.1294    23.1487     0.7600   207.0400    22.9417     0.0000
  649   12.960   2563.37    22.8874     0.1740     0.1374     0.1296    22.9431     0.7572   207.3600    22.7358     0.0001
  650   12.980   2564.29    22.6267     0.1716     0.1319     0.1298    22.6833     0.7556   207.6800    22.4756     0.0002
  651   13.000   2565.29    22.4224     0.1701     0.1336     0.1300    22.4791     0.7556   208.0000    22.2711     0.0002
  652   13.020   2566.21    22.2960     0.1676     0.1364     0.1302    22.3523     0.7500   208.3200    22.1440     0.0002
  653   13.040   2567.18    22.1914     0.1645     0.1342     0.1304    22.2482     0.7401   208.6400    22.0396     0.0002
  654   13.060   2568.12    22.1686     0.1605     0.1303     0.1306    22.2241     0.7241   208.9600    22.0151     0.0001
  655   13.080   2569.09    22.2612     0.1565     0.1338     0.1308    22.3170     0.7046   209.2800    22.1077     0.0001
  656   13.100   2570.03    22.2751     0.1524     0.1338     0.1310    22.3308     0.6852   209.6000    22.1212     0.0001
  657   13.120   2570.97    22.1817     0.1491     0.1351     0.1312    22.2387     0.6706   209.9200    22.0288     0.0002
  658   13.140   2571.91    22.0854     0.1497     0.1322     0.1314    22.1417     0.6763   210.2400    21.9314     0.0001
  659   13.160   2572.88    21.9398     0.1455     0.1327     0.1316    21.9970     0.6611   210.5600    21.7864     0.0002
  660   13.180   2583.25    21.5966     0.1405     0.1321     0.1318    21.6521     0.6416   210.8800    21.4413     0.0000
  661   13.200   2598.53    21.1269     0.1330     0.1316     0.1320    21.1823     0.6072   211.2000    20.9711     0.0000
  662   13.220   2613.81    20.6573     0.1279     0.1331     0.1322    20.7124     0.5841   211.5200    20.5009     0.0000
  663   13.240   2616.13    20.3503     0.1250     0.1344     0.1324    20.4072     0.6094   211.8400    20.1954     0.0002
  664   13.260   2617.07    19.9539     0.1224     0.1224     0.1326    20.0067     0.6074   212.1600    19.7945    -0.0004
  665   13.280   2618.01    19.5840     0.1145     0.1259     0.1328    19.6367     0.5807   212.4800    19.4242    -0.0004
  666   13.300   2618.95    19.4102     0.1074     0.1263     0.1330    19.4633     0.5516   212.8000    19.2505    -0.0004
  667   13.320   2619.90    19.1012     0.1039     0.1278     0.1332    19.1544     0.5395   213.1200    18.9412    -0.0004
  668   13.340   2620.83    18.5040     0.1035     0.1284     0.1334    18.5569     0.5510   213.4400    18.3434    -0.0004
  669   13.360   2621.78    17.7411     0.1042     0.1276     0.1336    17.7952     0.5783   213.7600    17.5814    -0.0003
  670   13.380   2622.72    16.9023     0.0987     0.1297     0.1338    16.9570     0.5747   214.0800    16.7429    -0.0002
  671   13.400   2623.68    15.9871     0.0922     0.1309     0.1340    16.0412     0.5687   214.4000    15.8268    -0.0003
  672   13.420   2624.63    15.1428     0.0875     0.1311     0.1342    15.1976     0.5704   214.7200    14.9829    -0.0003
  673   13.440   2625.61    14.3667     0.0843     0.1287     0.1344    14.4215     0.5815   215.0400    14.2064    -0.0003
  674   13.460   2626.59    13.1495     0.0813     0.1311     0.1346    13.2047     0.6079   215.3600    12.9894    -0.0002
  675   13.480   2627.53    11.3212     0.0790     0.1304     0.1348    11.3750     0.6847   215.6800    11.1593    -0.0006
  676   13.500   2628.55     8.7853     0.0762     0.1263     0.1350     8.8397     0.8553   216.0000     8.6237    -0.0007
  677   13.520   2629.58     6.8682     0.0762     0.1262     0.1352     6.9212     1.0944   216.3200     6.7049    -0.0013
  678   13.540   2630.56     5.2372     0.0795     0.1219     0.1354     5.2891     1.4814   216.6400     5.0724    -0.0024
  679   13.560   2631.52     3.8811     0.0873     0.1193     0.1356     3.9315     2.0919   216.9600     3.7145    -0.0043
  680   13.580   2632.53     2.7587     0.0848     0.1305     0.1358     2.8116     2.9861   217.2800     2.5943    -0.0037
  681   13.600   2633.56     1.8881     0.0824     0.1412     0.1360     1.9468     4.1624   217.6000     1.7292     0.0023
  682   13.620   2634.58     1.4401     0.0789     0.1454     0.1362     1.5005     5.3796   217.9200     1.2825     0.0059
  683   13.640   2635.58     1.2106     0.0695     0.1465     0.1364     1.2723     5.6881   218.2400     1.0540     0.0100
  684   13.660   2636.55     0.9777     0.0555     0.1430     0.1366     1.0380     5.5451   218.5600     0.8194     0.0086
  685   13.680   2637.58     0.7559     0.0413     0.1491     0.1368     0.8173     5.3529   218.8800     0.5985     0.0160
  686   13.700   2638.56     0.6714     0.0278     0.1752     0.1370     0.7375     4.0994   219.2000     0.5183     0.0397
  687   13.720   2639.59     0.6100     0.0209     0.3175     0.1372     0.7263     3.3658   219.5200     0.5067     0.2744
  688   13.740   2640.59     0.5944     0.0180     0.3265     0.1374     0.7288     3.0274   219.8400     0.5090     0.3587
  689   13.760   2641.57     0.5702     0.0176     0.3702     0.1376     0.7197     3.0699   220.1600     0.4995     0.4371
  690   13.780   2642.60     0.5318     0.0181     0.4100     0.1378     0.6984     3.3590   220.4800     0.4779     0.5421
  691   13.800   2643.56     0.5023     0.0183     0.4243     0.1380     0.6802     3.6382   220.8000     0.4594     0.6219
  692   13.820   2644.55     0.5047     0.0186     0.4330     0.1382     0.6847     3.6885   221.1200     0.4636     0.6264
  693   13.840   2645.54     0.4873     0.0180     0.4485     0.1384     0.6735     3.6745   221.4400     0.4521     0.6752
  694   13.860   2646.55     0.4466     0.0183     0.4658     0.1386     0.6395     4.0650   221.7600     0.4178     0.7683
  695   13.880   2647.57     0.4275     0.0187     0.4800     0.1388     0.6275     4.3711   222.0800     0.4054     0.8324
  696   13.900   2648.57     0.4178     0.0188     0.4794     0.1390     0.6194     4.4763   222.4000     0.3970     0.8592
  697   13.920   2649.57     0.4055     0.0190     0.4794     0.1392     0.6071     4.6518   222.7200     0.3844     0.8868
  698   13.940   2650.56     0.3992     0.0191     0.4747     0.1394     0.5989     4.7815   223.0400     0.3759     0.8944
  699   13.960   2651.55     0.3924     0.0188     0.4760     0.1396     0.5923     4.7756   223.3600     0.3689     0.9118
  700   13.980   2652.54     0.3844     0.0184     0.4752     0.1398     0.5836     4.7771   223.6800     0.3599     0.9295
  701   14.000   2653.50     0.3812     0.0180     0.4720     0.1400     0.5804     4.7330   224.0000     0.3564     0.9380
  702   14.020   2654.51     0.3746     0.0176     0.4718     0.1402     0.5727     4.6968   224.3200     0.3484     0.9516
  703   14.040   2655.50     0.3685     0.0171     0.4656     0.1404     0.5652     4.6238   224.6400     0.3406     0.9631
  704   14.060   2656.52     0.3623     0.0166     0.4646     0.1406     0.5576     4.5972   224.9600     0.3327     0.9753
  705   14.080   2657.49     0.3539     0.0163     0.4694     0.1408     0.5504     4.5826   225.2800     0.3251     1.0055
  706   14.100   2658.49     0.3445     0.0157     0.4653     0.1410     0.5407     4.5311   225.6000     0.3151     1.0347
  707   14.120   2659.46     0.3364     0.0153     0.4631     0.1412     0.5309     4.5409   225.9200     0.3050     1.0554
  708   14.140   2660.47     0.3267     0.0151     0.4632     0.1414     0.5212     4.6011   226.2400     0.2949     1.0908
  709   14.160   2661.46     0.3274     0.0151     0.4554     0.1416     0.5192     4.6144   226.5600     0.2927     1.0771
  710   14.180   2662.45     0.3316     0.0154     0.4539     0.1418     0.5227     4.6311   226.8800     0.2958     1.0586
  711   14.200   2663.42     0.3216     0.0158     0.4524     0.1420     0.5120     4.9339   227.2000     0.2848     1.0927
  712   14.220   2664.46     0.3196     0.0154     0.4482     0.1422     0.5099     4.8251   227.5200     0.2824     1.1008
  713   14.240   2665.44     0.3200     0.0163     0.4475     0.1424     0.5078     5.1176   227.8400     0.2800     1.0890
  714   14.260   2666.46     0.3297     0.0170     0.4487     0.1426     0.5182     5.1702   228.1600     0.2900     1.0556
  715   14.280   2667.48     0.3516     0.0168     0.4529     0.1428     0.5414     4.7895   228.4800     0.3129     0.9876
  716   14.300   2668.44     0.3532     0.0173     0.4562     0.1430     0.5450     4.9130   228.8000     0.3162     0.9918
  717   14.320   2669.43     0.3668     0.0177     0.4349     0.1432     0.5517     4.8175   229.1200     0.3226     0.9211
  718   14.340   2670.45     0.3443     0.0176     0.4490     0.1434     0.5306     5.0940   229.4400     0.3012     0.9963
  719   14.360   2671.45     0.3351     0.0176     0.4742     0.1436     0.5300     5.2584   229.7600     0.3002     1.0671
  720   14.380   2672.44     0.3315     0.0183     0.4729     0.1438     0.5302     5.4931   230.0800     0.3001     1.0971
  721   14.400   2673.43     0.3247     0.0173     0.4770     0.1440     0.5237     5.2849   230.4000     0.2933     1.1249
  722   14.420   2674.44     0.3171     0.0173     0.4791     0.1442     0.5183     5.4499   230.7200     0.2876     1.1643
  723   14.440   2675.44     0.3202     0.0170     0.4838     0.1444     0.5227     5.2961   231.0400     0.2916     1.1580
  724   14.460   2676.40     0.3252     0.0167     0.4902     0.1446     0.5302     5.1327   231.3600     0.2989     1.1498
  725   14.480   2677.40     0.3121     0.0165     0.4943     0.1448     0.5194     5.2737   231.6800     0.2877     1.2122
  726   14.500   2678.40     0.3091     0.0165     0.4859     0.1450     0.5152     5.3527   232.0000     0.2832     1.2208
  727   14.520   2679.39     0.3138     0.0160     0.4830     0.1452     0.5154     5.1175   232.3200     0.2830     1.1826
  728   14.540   2680.43     0.3217     0.0158     0.4865     0.1454     0.5259     4.9450   232.6400     0.2933     1.1624
  729   14.560   2681.39     0.3291     0.0165     0.4889     0.1456     0.5334     4.9924   232.9600     0.3004     1.1347
  730   14.580   2682.39     0.3298     0.0162     0.4924     0.1458     0.5359     4.9177   233.2800     0.3027     1.1401
  731   14.600   2683.39     0.3269     0.0159     0.4954     0.1460     0.5359     4.8586   233.6000     0.3023     1.1629
  732   14.620   2684.39     0.3251     0.0158     0.4949     0.1462     0.5346     4.8643   233.9200     0.3006     1.1726
  733   14.640   2685.41     0.3339     0.0153     0.4931     0.1464     0.5404     4.6013   234.2400     0.3062     1.1276
  734   14.660   2686.39     0.3256     0.0152     0.5137     0.1466     0.5394     4.6824   234.5600     0.3049     1.1892
  735   14.680   2687.35     0.3279     0.0151     0.5157     0.1468     0.5446     4.6047   234.8800     0.3097     1.1924
  736   14.700   2688.37     0.3365     0.0149     0.5118     0.1470     0.5535     4.4497   235.2000     0.3183     1.1618
  737   14.720   2689.35     0.3409     0.0150     0.5115     0.1472     0.5556     4.3895   235.5200     0.3201     1.1371
  738   14.740   2690.39     0.3383     0.0148     0.5095     0.1474     0.5519     4.3775   235.8400     0.3161     1.1431
  739   14.760   2691.40     0.3312     0.0150     0.5151     0.1476     0.5468     4.5367   236.1600     0.3106     1.1770
  740   14.780   2692.40     0.3337     0.0151     0.5183     0.1478     0.5492     4.5237   236.4800     0.3127     1.1684
  741   14.800   2693.37     0.3281     0.0149     0.5172     0.1480     0.5468     4.5435   236.8000     0.3100     1.2023
  742   14.820   2694.36     0.3279     0.0144     0.5264     0.1482     0.5471     4.3954   237.1200     0.3099     1.2053
  743   14.840   2695.37     0.3315     0.0142     0.5263     0.1484     0.5506     4.2773   237.4400     0.3131     1.1919
  744   14.860   2696.38     0.3297     0.0140     0.5319     0.1486     0.5526     4.2783   237.7600     0.3148     1.2141
  745   14.880   2697.37     0.3374     0.0138     0.5377     0.1488     0.5636     4.0963   238.0800     0.3255     1.1976
  746   14.900   2698.42     0.3433     0.0136     0.5380     0.1490     0.5682     3.9474   238.4000     0.3298     1.1715
  747   14.920   2699.39     0.3510     0.0132     0.5354     0.1492     0.5761     3.7724   238.7200     0.3373     1.1460
  748   14.940   2700.37     0.3645     0.0129     0.5344     0.1494     0.5887     3.5474   239.0400     0.3496     1.0995
  749   14.960   2701.37     0.3766     0.0132     0.5283     0.1496     0.5995     3.5295   239.3600     0.3602     1.0586
  750   14.980   2702.35     0.3774     0.0132     0.5365     0.1498     0.5997     3.4728   239.6800     0.3601     1.0545
  751   15.000   2703.39     0.3761     0.0125     0.5460     0.1500     0.6044     3.3371   240.0000     0.3644     1.0802
  752   15.020   2704.37     0.3831     0.0131     0.5406     0.1502     0.6110     3.4308   240.3200     0.3706     1.0587
  753   15.040   2705.36     0.3934     0.0131     0.5448     0.1504     0.6221     3.3514   240.6400     0.3814     1.0332
  754   15.060   2706.35     0.4019     0.0128     0.5479     0.1506     0.6326     3.2279   240.9600     0.3916     1.0180
  755   15.080   2707.33     0.3959     0.0122     0.5437     0.1508     0.6253     3.0641   241.2800     0.3840     1.0299
  756   15.100   2708.33     0.4047     0.0116     0.5423     0.1510     0.6329     2.9071   241.6000     0.3913     1.0028
  757   15.120   2709.34     0.4087     0.0115     0.5398     0.1512     0.6357     2.8088   241.9200     0.3938     0.9889
  758   15.140   2710.34     0.4176     0.0114     0.5460     0.1514     0.6449     2.7837   242.2400     0.4027     0.9681
  759   15.160   2712.86     0.4360     0.0126     0.5466     0.1516     0.6660     2.9687   242.5600     0.4234     0.9380
  760   15.180   2728.53     0.4901     0.0136     0.5438     0.1518     0.7188     3.1638   242.8800     0.4760     0.8409
  761   15.200   2744.19     0.5441     0.0137     0.5408     0.1520     0.7717     3.0000   243.2000     0.5285     0.7437
  762   15.220   2749.47     0.5881     0.0132     0.5306     0.1522     0.8131     2.2608   243.5200     0.5696     0.6736
  763   15.240   2750.46     0.6365     0.0128     0.5139     0.1524     0.8548     2.0315   243.8400     0.6110     0.6015
  764   15.260   2751.48     0.6526     0.0116     0.5043     0.1526     0.8650     1.7688   244.1600     0.6208     0.5685
  765   15.280   2752.47     0.6465     0.0108     0.4829     0.1528     0.8512     1.6732   244.4800     0.6068     0.5516
  766   15.300   2753.48     0.6153     0.0107     0.4981     0.1530     0.8221     1.7465   244.8000     0.5773     0.5877
  767   15.320   2754.51     0.5878     0.0099     0.5107     0.1532     0.8022     1.6644   245.1200     0.5571     0.6413
  768   15.340   2755.47     0.5453     0.0094     0.5319     0.1534     0.7623     1.7079   245.4400     0.5168     0.7031
  769   15.360   2756.50     0.5156     0.0089     0.5586     0.1536     0.7477     1.7141   245.7600     0.5019     0.7948
  770   15.380   2757.49     0.5148     0.0088     0.5658     0.1538     0.7517     1.7097   246.0800     0.5056     0.8113
  771   15.400   2758.42     0.5146     0.0084     0.5644     0.1540     0.7528     1.6311   246.4000     0.5064     0.8156
  772   15.420   2759.46     0.5163     0.0088     0.5636     0.1542     0.7534     1.7134   246.7200     0.5066     0.8100
  773   15.440   2760.47     0.5296     0.0090     0.5529     0.1544     0.7640     1.7002   247.0400     0.5170     0.7811
  774   15.460   2761.45     0.5402     0.0100     0.5476     0.1546     0.7708     1.8574   247.3600     0.5234     0.7536
  775   15.480   2762.42     0.5537     0.0099     0.5421     0.1548     0.7814     1.7998   247.6800     0.5337     0.7259
  776   15.500   2763.44     0.5751     0.0098     0.5231     0.1550     0.7963     1.7146   248.0000     0.5483     0.6777
  777   15.520   2764.41     0.5841     0.0094     0.5101     0.1552     0.7991     1.6010   248.3200     0.5508     0.6478
  778   15.540   2765.37     0.5856     0.0092     0.4835     0.1554     0.7945     1.5642   248.6400     0.5458     0.6264
  779   15.560   2766.43     0.5537     0.0088     0.4974     0.1556     0.7608     1.5767   248.9600     0.5118     0.6593
  780   15.580   2767.40     0.5302     0.0080     0.5202     0.1558     0.7479     1.4889   249.2800     0.4986     0.7273
  781   15.600   2768.39     0.5084     0.0074     0.5322     0.1560     0.7304     1.4499   249.6000     0.4808     0.7751
  782   15.620   2769.42     0.5011     0.0076     0.5419     0.1562     0.7279     1.5218   249.9200     0.4780     0.8032
  783   15.640   2770.35     0.5033     0.0079     0.5441     0.1564     0.7322     1.5766   250.2400     0.4819     0.8063
  784   15.660   2771.39     0.5038     0.0083     0.5433     0.1566     0.7339     1.6465   250.5600     0.4833     0.8095
  785   15.680   2772.40     0.5301     0.0075     0.5354     0.1568     0.7563     1.4255   250.8800     0.5054     0.7553
  786   15.700   2773.36     0.5425     0.0077     0.5317     0.1570     0.7669     1.4241   251.2000     0.5157     0.7317
  787   15.720   2774.37     0.5441     0.0067     0.5156     0.1572     0.7621     1.2312   251.5200     0.5106     0.7087
  788   15.740   2775.39     0.5289     0.0075     0.4955     0.1574     0.7355     1.4042   251.8400     0.4836     0.6915
  789   15.760   2776.38     0.5004     0.0068     0.5271     0.1576     0.7181     1.3536   252.1600     0.4659     0.7740
  790   15.780   2777.33     0.5035     0.0076     0.5561     0.1578     0.7345     1.5278   252.4800     0.4820     0.8138
  791   15.800   2778.34     0.5238     0.0078     0.5613     0.1580     0.7592     1.5037   252.8000     0.5064     0.7944
  792   15.820   2779.32     0.5345     0.0077     0.5486     0.1582     0.7677     1.4461   253.1200     0.5146     0.7716
  793   15.840   2780.37     0.5532     0.0080     0.5457     0.1584     0.7817     1.4615   253.4400     0.5283     0.7301
  794   15.860   2781.35     0.5739     0.0075     0.5401     0.1586     0.8022     1.3125   253.7600     0.5484     0.7020
  795   15.880   2782.37     0.5738     0.0069     0.5313     0.1588     0.7986     1.1953   254.0800     0.5446     0.6916
  796   15.900   2783.32     0.5636     0.0069     0.5289     0.1590     0.7844     1.2212   254.4000     0.5300     0.6920
  797   15.920   2784.27     0.5405     0.0068     0.5356     0.1592     0.7646     1.2579   254.7200     0.5098     0.7339
  798   15.940   2785.31     0.5276     0.0070     0.5447     0.1594     0.7551     1.3116   255.0400     0.5000     0.7644
  799   15.960   2786.32     0.5233     0.0072     0.5473     0.1596     0.7538     1.3778   255.3600     0.4985     0.7808
  800   15.980   2787.31     0.5363     0.0071     0.5403     0.1598     0.7651     1.3209   255.6800     0.5095     0.7557
  801   16.000   2788.30     0.5559     0.0070     0.5365     0.1600     0.7827     1.2612   256.0000     0.5267     0.7216
  802   16.020   2789.28     0.5777     0.0063     0.5285     0.1602     0.8020     1.0919   256.3200     0.5457     0.6851
  803   16.040   2790.28     0.5745     0.0056     0.5201     0.1604     0.7940     0.9693   256.6400     0.5374     0.6740
  804   16.060   2791.27     0.5511     0.0057     0.5233     0.1606     0.7703     1.0234   256.9600     0.5134     0.7038
  805   16.080   2792.29     0.5410     0.0058     0.5277     0.1608     0.7620     1.0650   257.2800     0.5048     0.7241
  806   16.100   2793.32     0.5341     0.0062     0.5317     0.1610     0.7566     1.1540   257.6000     0.4990     0.7390
  807   16.120   2794.29     0.5395     0.0064     0.5320     0.1612     0.7633     1.1784   257.9200     0.5054     0.7354
  808   16.140   2795.29     0.5418     0.0058     0.5197     0.1614     0.7611     1.0728   258.2400     0.5029     0.7177
  809   16.160   2796.29     0.5360     0.0046     0.5128     0.1616     0.7509     0.8663   258.5600     0.4924     0.7112
  810   16.180   2797.28     0.5392     0.0040     0.5058     0.1618     0.7503     0.7468   258.8800     0.4914     0.6934
  811   16.200   2798.28     0.5266     0.0054     0.4978     0.1620     0.7349     1.0289   259.2000     0.4757     0.7021
  812   16.220   2799.30     0.5366     0.0061     0.5147     0.1622     0.7483     1.1605   259.5200     0.4887     0.7002
  813   16.240   2800.30     0.6774     0.0050     0.5150     0.1624     0.8941     0.7579   259.8400     0.6343     0.5580
  814   16.260   2801.29     0.7765     0.0050     0.4723     0.1626     0.9840     0.6515   260.1600     0.7238     0.4579
  815   16.280   2802.29     0.7561     0.0049     0.4601     0.1628     0.9427     0.6414   260.4800     0.6822     0.4127
  816   16.300   2803.34     0.6808     0.0046     0.4802     0.1630     0.8809     0.6677   260.8000     0.6201     0.5055
  817   16.320   2804.29     0.6656     0.0045     0.4741     0.1632     0.8663     0.6688   261.1200     0.6052     0.5200
  818   16.340   2805.28     0.6381     0.0049     0.4844     0.1634     0.8408     0.7699   261.4400     0.5794     0.5510
  819   16.360   2806.27     0.6086     0.0042     0.4919     0.1636     0.8154     0.6950   261.7600     0.5537     0.5940
  820   16.380   2807.32     0.6213     0.0032     0.5023     0.1638     0.8325     0.5145   262.0800     0.5704     0.5944
  821   16.400   2808.30     0.6501     0.0027     0.4879     0.1640     0.8555     0.4135   262.4000     0.5931     0.5481
  822   16.420   2809.27     0.6658     0.0030     0.4947     0.1642     0.8729     0.4460   262.7200     0.6101     0.5389
  823   16.440   2810.32     0.6502     0.0033     0.5019     0.1644     0.8604     0.5110   263.0400     0.5973     0.5626
  824   16.460   2811.31     0.6639     0.0036     0.5030     0.1646     0.8769     0.5497   263.3600     0.6136     0.5586
  825   16.480   2812.31     0.6833     0.0047     0.5075     0.1648     0.8941     0.6839   263.6800     0.6304     0.5348
  826   16.500   2813.26     0.6888     0.0049     0.4968     0.1650     0.9003     0.7190   264.0000     0.6363     0.5319
  827   16.520   2814.26     0.7540     0.0050     0.4741     0.1652     0.9574     0.6670   264.3200     0.6931     0.4605
  828   16.540   2815.27     0.7585     0.0051     0.4568     0.1654     0.9543     0.6716   264.6400     0.6896     0.4361
  829   16.560   2816.27     0.7330     0.0046     0.4581     0.1656     0.9216     0.6220   264.9600     0.6567     0.4317
  830   16.580   2817.27     0.6550     0.0045     0.4695     0.1658     0.8519     0.6779   265.2800     0.5866     0.5167
  831   16.600   2818.26     0.6014     0.0049     0.4977     0.1660     0.8082     0.8109   265.6000     0.5426     0.6016
  832   16.620   2819.24     0.6144     0.0052     0.5130     0.1662     0.8274     0.8554   265.9200     0.5615     0.6073
  833   16.640   2820.24     0.6042     0.0044     0.5181     0.1664     0.8229     0.7243   266.2400     0.5566     0.6365
  834   16.660   2821.28     0.6260     0.0044     0.5146     0.1666     0.8422     0.7057   266.5600     0.5756     0.6049
  835   16.680   2822.23     0.6259     0.0062     0.5170     0.1668     0.8426     0.9891   266.8800     0.5757     0.6064
  836   16.700   2823.23     0.6229     0.0094     0.5177     0.1670     0.8415     1.5164   267.2000     0.5743     0.6153
  837   16.720   2824.25     0.6840     0.0124     0.4984     0.1672     0.8928     1.8265   267.5200     0.6253     0.5278
  838   16.740   2825.23     0.7471     0.0104     0.4808     0.1674     0.9545     1.4767   267.8400     0.6866     0.4754
  839   16.760   2826.21     0.7356     0.0101     0.4825     0.1676     0.9327     1.3099   268.1600     0.6645     0.4542
  840   16.780   2827.26     0.6971     0.0104     0.5068     0.1678     0.9050     1.4932   268.4800     0.6365     0.5138
  841   16.800   2828.26     0.8296     0.0120     0.5528     0.1680     1.0563     1.4993   268.8000     0.7875     0.4737
  842   16.820   2829.29     2.4684     0.0185     0.4470     0.1682     2.6871     0.8093   269.1200     2.4180     0.1473
  843   16.840   2830.30     5.4885     0.0294     0.2327     0.1684     5.6307     0.5483   269.4400     5.3612     0.0319
  844   16.860   2831.32     6.7393     0.0361     0.1178     0.1686     6.7902     0.5385   269.7600     6.5204    -0.0073
  845   16.880   2832.33     6.5469     0.0428     0.1070     0.1688     6.5920     0.6451   270.0800     6.3219    -0.0097
  846   16.900   2833.30     5.8627     0.0515     0.1267     0.1690     5.9129     0.8649   270.4000     5.6425    -0.0087
  847   16.920   2834.31     5.0016     0.0626     0.1474     0.1692     5.0600     1.2425   270.7200     4.7893    -0.0063
  848   16.940   2835.33     4.3900     0.0801     0.1797     0.1694     4.4599     1.8054   271.0400     4.1889    -0.0007
  849   16.960   2836.35     3.9386     0.0856     0.2323     0.1696     4.0270     2.1484   271.3600     3.7556     0.0110
  850   16.980   2837.31     3.5304     0.0778     0.2917     0.1698     3.6430     2.0936   271.6800     3.3713     0.0292
  851   17.000   2838.32     3.3142     0.0518     0.3428     0.1700     3.4509     1.5223   272.0000     3.1789     0.0489
  852   17.020   2839.29     3.2107     0.0392     0.3915     0.1702     3.3668     1.2098   272.3200     3.0945     0.0651
  853   17.040   2840.29     3.4370     0.0359     0.3740     0.1704     3.6010     1.1168   272.6400     3.3283     0.0663
  854   17.060   2841.34     4.6253     0.0387     0.3024     0.1706     4.7641     0.9832   272.9600     4.4911     0.0358
  855   17.080   2842.42     5.9941     0.0431     0.1801     0.1708     6.0978     0.8466   273.2800     5.8245     0.0134
  856   17.100   2843.44     7.4498     0.0476     0.0789     0.1710     7.4923     0.7100   273.6000     7.2187    -0.0096
  857   17.120   2844.49     8.4902     0.0422     0.1148     0.1712     8.5293     0.5182   273.9200     8.2554    -0.0095
  858   17.140   2845.49     8.8975     0.0445     0.1084     0.1714     8.9440     0.5059   274.2400     8.6697    -0.0070
  859   17.160   2849.36     8.8369     0.0472     0.1150     0.1716     8.8832     0.5293   274.5600     8.6086    -0.0071
  860   17.180   2864.84     8.4621     0.0444     0.1289     0.1718     8.5143     0.4988   274.8800     8.2394    -0.0057
  861   17.200   2880.31     8.0875     0.0471     0.1428     0.1720     8.1454     0.5283   275.2000     7.8702    -0.0042
  862   17.220   2890.65     7.6119     0.0528     0.1639     0.1722     7.6766     0.6709   275.5200     7.4011    -0.0025
  863   17.240   2891.69     7.1532     0.0606     0.2043     0.1724     7.2319     0.8290   275.8400     6.9561     0.0022
  864   17.260   2892.71     7.0013     0.0653     0.2305     0.1726     7.0945     0.9308   276.1600     6.8184     0.0072
  865   17.280   2893.71     6.9867     0.0715     0.2364     0.1728     7.0881     1.0223   276.4800     6.8116     0.0101
  866   17.300   2894.72     6.9800     0.0831     0.2176     0.1730     7.0750     1.1896   276.8000     6.7982     0.0078
  867   17.320   2895.72     6.7577     0.1091     0.1956     0.1732     6.8429     1.6106   277.1200     6.5657     0.0045
  868   17.340   2896.75     6.0794     0.1097     0.1591     0.1734     6.1515     1.7835   277.4400     5.8741    -0.0003
  869   17.360   2897.75     5.0848     0.1014     0.1410     0.1736     5.1446     1.9628   277.7600     4.8669    -0.0064
  870   17.380   2898.77     4.2243     0.0944     0.1709     0.1738     4.2890     2.2030   278.0800     4.0109    -0.0049
  871   17.400   2899.78     3.8050     0.0858     0.2132     0.1740     3.8898     2.2356   278.4000     3.6114     0.0078
  872   17.420   2900.76     3.7014     0.0950     0.2641     0.1742     3.7992     2.5716   278.7200     3.5204     0.0166
  873   17.440   2901.76     3.8117     0.1090     0.1467     0.1744     3.8977     2.8723   279.0400     3.6187     0.0084
  874   17.460   2902.78     3.9170     0.0982     0.2359     0.1746     3.9950     2.5135   279.3600     3.7156     0.0029
  875   17.480   2903.81     3.9772     0.0908     0.1185     0.1748     4.0531     2.2740   279.6800     3.7734     0.0015
  876   17.500   2904.77     3.6269     0.0923     0.1074     0.1750     3.6629     2.4504   280.0000     3.3829    -0.0264
  877   17.520   2905.77     3.4527     0.0742     0.1745     0.1752     3.5166     2.0729   280.3200     3.2363    -0.0071
  878   17.540   2906.74     3.1722     0.0687     0.2512     0.1754     3.2761     2.0668   280.6400     2.9954     0.0240
  879   17.560   2907.80     3.2353     0.0562     0.1770     0.1756     3.3295     1.8072   280.9600     3.0486     0.0162
  880   17.580   2908.83     4.8553     0.0464     0.2676     0.1758     4.9573     1.2409   281.2800     4.6760     0.0143
  881   17.600   2909.89     8.4609     0.0533     0.3074     0.1760     8.5773     0.7769   281.6000     8.2957     0.0121
  882   17.620   2911.28    10.6135     0.0687     0.0306     0.1762    10.6181     0.6600   281.9200    10.3361    -0.0160
  883   17.640   2912.91    10.0153     0.0724     0.0346     0.1764    10.0266     0.7764   282.2400     9.7444    -0.0153
  884   17.660   2913.98     9.2854     0.0795     0.0381     0.1766     9.3005     0.8334   282.5600     9.0180    -0.0156
  885   17.680   2915.00     8.4945     0.0889     0.0455     0.1768     8.5121     1.0276   282.8800     8.2292    -0.0164
  886   17.700   2916.00     8.0398     0.0953     0.0773     0.1770     8.0666     1.1844   283.2000     7.7834    -0.0145
  887   17.720   2917.00     8.1115     0.1002     0.1555     0.1772     8.1646     1.2451   283.5200     7.8810    -0.0065
  888   17.740   2918.06     8.0353     0.1146     0.1723     0.1774     8.1086     1.4243   283.8400     7.8248    -0.0004
  889   17.760   2919.08     7.5733     0.1226     0.1692     0.1776     7.6473     1.5992   284.1600     7.3631    -0.0002
  890   17.780   2920.09     6.6680     0.1078     0.1182     0.1778     6.7221     1.5370   284.4800     6.4376    -0.0077
  891   17.800   2921.11     5.6250     0.0909     0.1703     0.1780     5.6855     1.6004   284.8000     5.4007    -0.0062
  892   17.820   2922.12     5.6345     0.0839     0.1921     0.1782     5.7158     1.5075   285.1200     5.4307     0.0029
  893   17.840   2923.15     6.2105     0.0844     0.1712     0.1784     6.2862     1.3631   285.4400     6.0007     0.0003
  894   17.860   2924.17     5.6393     0.0868     0.1511     0.1786     5.7115     1.5123   285.7600     5.4258    -0.0012
  895   17.880   2925.16     4.6087     0.0839     0.0456     0.1788     4.6356     1.7828   286.0800     4.3495    -0.0269
  896   17.900   2926.17     3.8377     0.0647     0.0716     0.1790     3.8613     1.6535   286.4000     3.5749    -0.0343
  897   17.920   2927.14     3.2028     0.0653     0.1412     0.1792     3.2533     2.0085   286.7200     2.9666    -0.0197
  898   17.940   2928.18     2.5909     0.0710     0.1761     0.1794     2.6613     2.6666   287.0400     2.3743    -0.0048
  899   17.960   2929.19     2.0726     0.0649     0.2090     0.1796     2.1545     3.0419   287.3600     1.8671     0.0083
  900   17.980   2930.17     1.6086     0.0550     0.2831     0.1798     1.7232     3.2959   287.6800     1.4355     0.0664
  901   18.000   2931.17     1.4530     0.0449     0.2169     0.1800     1.5500     3.0705   288.0000     1.2620     0.0398
  902   18.020   2932.15     1.3095     0.0356     0.2652     0.1802     1.4057     2.6798   288.3200     1.1173     0.0438
  903   18.040   2933.16     1.1713     0.0330     0.3231     0.1804     1.3003     2.8023   288.6400     1.0117     0.1255
  904   18.060   2934.15     1.0698     0.0296     0.4308     0.1806     1.2337     2.6899   288.9600     0.9447     0.2218
  905   18.080   2935.14     1.0933     0.0212     0.5098     0.1808     1.2976     1.9640   289.2800     1.0083     0.3028
  906   18.100   2936.19     1.4163     0.0323     0.5632     0.1810     1.6493     2.6966   289.6000     1.3597     0.2760
  907   18.120   2937.21     2.8732     0.0500     0.5365     0.1812     3.1076     1.7992   289.9200     2.8177     0.1350
  908   18.140   2938.21     4.1089     0.0598     0.3832     0.1814     4.3026     1.6667   290.2400     4.0123     0.0700
  909   18.160   2939.21     4.2924     0.0569     0.1744     0.1816     4.3812     1.3159   290.5600     4.0906     0.0072
  910   18.180   2940.24     3.8811     0.0761     0.1157     0.1818     3.9371     1.8626   290.8800     3.6463    -0.0133
  911   18.200   2941.25     3.5772     0.1149     0.1450     0.1820     3.6363     3.1788   291.2000     3.3451    -0.0123
  912   18.220   2942.30     4.2155     0.1088     0.2662     0.1822     4.3038     2.7656   291.5200     4.0123     0.0069
  913   18.240   2943.35     4.4899     0.0844     0.2358     0.1824     4.6376     1.8643   291.8400     4.3458     0.0385
  914   18.260   2944.33     3.5665     0.0628     0.0431     0.1826     3.5883     1.7325   292.1600     3.2961    -0.0398
  915   18.280   2945.34     2.9386     0.0581     0.2289     0.1828     2.9909     1.9631   292.4800     2.6984    -0.0211
  916   18.300   2946.37     2.5820     0.0667     0.3630     0.1830     2.6827     2.5767   292.8000     2.3899     0.0237
  917   18.320   2947.37     2.7677     0.0672     0.5143     0.1832     2.9417     2.4617   293.1200     2.6486     0.0866
  918   18.340   2948.37     3.6783     0.0777     0.3683     0.1834     3.8827     2.4598   293.4400     3.5893     0.0854
  919   18.360   2949.42     4.0511     0.0911     0.1400     0.1836     4.1236     2.2432   293.7600     3.8298    -0.0030
  920   18.380   2950.44     3.7206     0.0945     0.2833     0.1838     3.8061     2.5220   294.0800     3.5121     0.0059
  921   18.400   2951.46     3.2462     0.0978     0.1393     0.1840     3.3404     2.9687   294.4000     3.0460     0.0120
  922   18.420   2952.43     2.7568     0.0911     0.1883     0.1842     2.8132     3.2213   294.7200     2.5185    -0.0193
  923   18.440   2953.43     2.3204     0.0746     0.2679     0.1844     2.4188     3.1697   295.0400     2.1237     0.0239
  924   18.460   2954.44     1.8373     0.0539     0.5091     0.1846     2.0116     2.8888   295.3600     1.7163     0.1357
  925   18.480   2955.44     1.6476     0.0333     0.6849     0.1848     1.9146     2.0219   295.6800     1.6190     0.2784
  926   18.500   2956.44     1.8158     0.0288     0.8209     0.1850     2.1214     1.6036   296.0000     1.8254     0.2963
  927   18.520   2957.45     2.7535     0.0461     0.8594     0.1852     3.1165     1.7291   296.3200     2.8202     0.2437
  928   18.540   2958.50     4.0649     0.0667     0.6832     0.1854     4.3880     1.7058   296.6400     4.0913     0.1444
  929   18.560   2959.49     4.6434     0.0705     0.2161     0.1856     4.8172     1.5037   296.9600     4.5203     0.0492
  930   18.580   2960.48     3.8009     0.0681     0.1072     0.1858     3.8459     1.7499   297.2800     3.5486    -0.0224
  931   18.600   2961.51     2.8995     0.0651     0.1718     0.1860     2.9596     2.2070   297.6000     2.6620    -0.0158
  932   18.620   2962.47     2.3408     0.0632     0.2842     0.1862     2.4504     2.6441   297.9200     2.1525     0.0356
  933   18.640   2963.49     1.7884     0.0543     0.2880     0.1864     1.8982     2.9614   298.2400     1.6000     0.0477
  934   18.660   2964.49     1.3701     0.0416     0.4479     0.1866     1.5399     2.9800   298.5600     1.2413     0.1760
  935   18.680   2965.48     1.2614     0.0251     0.5989     0.1868     1.4901     1.9755   298.8800     1.1913     0.3009
  936   18.700   2966.50     1.1676     0.0217     0.7011     0.1870     1.4492     1.8462   299.2000     1.1500     0.4203
  937   18.720   2967.50     1.1718     0.0209     0.7666     0.1872     1.4857     1.7876   299.5200     1.1862     0.4723
  938   18.740   2968.48     1.1677     0.0207     0.8047     0.1874     1.5006     1.7687   299.8400     1.2008     0.5041
  939   18.760   2969.48     1.1758     0.0222     0.8195     0.1876     1.5176     1.8907   300.1600     1.2174     0.5143
  940   18.780   2970.51     1.2080     0.0202     0.8472     0.1878     1.5578     1.6808   300.4800     1.2573     0.5131
  941   18.800   2971.49     1.2453     0.0166     0.8693     0.1880     1.6084     1.3399   300.8000     1.3076     0.5173
  942   18.820   2972.52     1.2749     0.0154     0.8604     0.1882     1.6374     1.2133   301.1200     1.3363     0.5051
  943   18.840   2973.51     1.2702     0.0187     0.9013     0.1884     1.6405     1.4713   301.4400     1.3391     0.5177
  944   18.860   2974.49     1.3108     0.0206     0.9240     0.1886     1.6949     1.5809   301.7600     1.3931     0.5212
  945   18.880   2975.50     1.4813     0.0189     0.9350     0.1888     1.8749     1.2973   302.0800     1.5729     0.4767
  946   18.900   2976.52     1.7145     0.0180     0.8355     0.1890     2.0838     1.0633   302.4000     1.7814     0.3878
  947   18.920   2977.49     1.7481     0.0179     0.8151     0.1892     2.0834     1.0196   302.7200     1.7807     0.3421
  948   18.940   2978.50     1.5979     0.0193     0.8733     0.1894     1.9599     1.1949   303.0400     1.6568     0.4062
  949   18.960   2979.53     1.4502     0.0206     0.9317     0.1896     1.8275     1.4096   303.3600     1.5241     0.4654
  950   18.980   2980.50     1.3723     0.0218     0.9568     0.1898     1.7734     1.5812   303.6800     1.4697     0.5206
  951   19.000   2981.50     1.3614     0.0211     0.9665     0.1900     1.7655     1.5497   304.0000     1.4615     0.5283
  952   19.020   2982.52     1.3808     0.0195     0.9720     0.1902     1.7857     1.4090   304.3200     1.4814     0.5224
  953   19.040   2983.50     1.3700     0.0217     0.9880     0.1904     1.7860     1.5851   304.6400     1.4814     0.5401
  954   19.060   2984.51     1.3723     0.0225     0.9860     0.1906     1.7850     1.6489   304.9600     1.4801     0.5353
  955   19.080   2985.51     1.3548     0.0234     1.0039     0.1908     1.7760     1.7387   305.2800     1.4707     0.5521
  956   19.100   2986.52     1.3297     0.0243     1.0000     0.1910     1.7499     1.8285   305.6000     1.4443     0.5605
  957   19.120   2987.50     1.3656     0.0240     1.0120     0.1912     1.7897     1.7623   305.9200     1.4838     0.5518
  958   19.140   2988.50     1.3733     0.0233     1.0257     0.1914     1.8013     1.6946   306.2400     1.4950     0.5536
  959   19.160   2992.41     1.3896     0.0234     0.9878     0.1916     1.8066     1.6762   306.5600     1.5000     0.5340
  960   19.180   3006.11     1.3718     0.0220     0.9738     0.1918     1.7829     1.5816   306.8800     1.4760     0.5330
  961   19.200   3019.81     1.3541     0.0218     0.9597     0.1920     1.7592     1.5630   307.2000     1.4520     0.5320
  962   19.220   3030.49     1.3421     0.0219     0.9721     0.1922     1.7460     1.6313   307.5200     1.4385     0.5349
  963   19.240   3031.48     1.3596     0.0204     0.9841     0.1924     1.7720     1.5010   307.8400     1.4642     0.5393
  964   19.260   3032.49     1.3454     0.0201     0.9997     0.1926     1.7630     1.4904   308.1600     1.4548     0.5511
  965   19.280   3033.51     1.3477     0.0209     1.0246     0.1928     1.7752     1.5548   308.4800     1.4667     0.5626
  966   19.300   3034.53     1.3831     0.0204     1.0292     0.1930     1.8148     1.4805   308.8000     1.5060     0.5544
  967   19.320   3035.50     1.4213     0.0200     1.0317     0.1932     1.8545     1.4068   309.1200     1.5454     0.5424
  968   19.340   3036.52     1.4321     0.0205     0.9917     0.1934     1.8554     1.4379   309.4400     1.5460     0.5268
  969   19.360   3037.50     1.4103     0.0214     1.0000     0.1936     1.8287     1.5134   309.7600     1.5189     0.5283
  970   19.380   3038.51     1.3982     0.0221     1.0360     0.1938     1.8304     1.5803   310.0800     1.5203     0.5494
  971   19.400   3039.48     1.3942     0.0218     1.0302     0.1940     1.8289     1.5690   310.4000     1.5185     0.5539
  972   19.420   3040.49     1.4268     0.0221     1.0311     0.1942     1.8578     1.5489   310.7200     1.5470     0.5378
  973   19.440   3041.82     1.4491     0.0227     1.0159     0.1944     1.8796     1.5826   311.0400     1.5686     0.5297
  974   19.460   3045.89     1.4389     0.0191     1.0149     0.1946     1.8653     1.3034   311.3600     1.5539     0.5283
  975   19.480   3050.32     1.4079     0.0246     1.0139     0.1948     1.8339     1.6767   311.6800     1.5222     0.5385
  976   19.500   3052.44     1.3849     0.0246     1.0279     0.1950     1.8121     1.7687   312.0000     1.5001     0.5481
  977   19.520   3053.49     1.3703     0.0235     1.0476     0.1952     1.8088     1.7166   312.3200     1.4965     0.5672
  978   19.540   3054.48     1.3496     0.0227     1.0683     0.1954     1.7938     1.6689   312.6400     1.4811     0.5821
  979   19.560   3056.37     1.2616     0.0235     1.0760     0.1956     1.7207     1.8498   312.9600     1.4077     0.6393
  980   19.580   3059.55     1.3412     0.0232     1.1160     0.1958     1.8015     1.7386   313.2800     1.4883     0.6049
  981   19.600   3060.57     1.3464     0.0226     1.1051     0.1960     1.8145     1.6762   313.6000     1.5009     0.6120
  982   19.620   3061.57     1.3411     0.0231     1.0755     0.1962     1.7958     1.7254   313.9200     1.4818     0.5982
  983   19.640   3062.55     1.3317     0.0229     1.0781     0.1964     1.7840     1.7223   314.2400     1.4698     0.5990
  984   19.660   3063.52     1.3455     0.0216     1.0758     0.1966     1.7982     1.6031   314.5600     1.4836     0.5939
  985   19.680   3064.53     1.3546     0.0207     1.0734     0.1968     1.8046     1.5309   314.8800     1.4897     0.5871
  986   19.700   3065.58     1.3487     0.0199     1.0902     0.1970     1.8044     1.4746   315.2000     1.4892     0.5962
  987   19.720   3066.56     1.3547     0.0203     1.1015     0.1972     1.8162     1.5037   315.5200     1.5007     0.6008
  988   19.740   3067.56     1.3577     0.0194     1.1012     0.1974     1.8208     1.4291   315.8400     1.5050     0.6015
  989   19.760   3068.57     1.3513     0.0196     1.0956     0.1976     1.8124     1.4467   316.1600     1.4963     0.6018
  990   19.780   3069.57     1.3631     0.0202     1.0777     0.1978     1.8198     1.4804   316.4800     1.5033     0.5917
  991   19.800   3070.59     1.3630     0.0206     1.0623     0.1980     1.8091     1.5081   316.8000     1.4923     0.5791
  992   19.820   3071.57     1.3557     0.0202     1.0665     0.1982     1.8039     1.4928   317.1200     1.4868     0.5844
  993   19.840   3072.58     1.3583     0.0201     1.0540     0.1984     1.8027     1.4861   317.4400     1.4853     0.5789
  994   19.860   3073.55     1.3720     0.0207     1.0698     0.1986     1.8192     1.5163   317.7600     1.5014     0.5769
  995   19.880   3074.56     1.3785     0.0198     1.0919     0.1988     1.8344     1.4330   318.0800     1.5164     0.5849
  996   19.900   3075.57     1.3596     0.0198     1.0813     0.1990     1.8157     1.4587   318.4000     1.4973     0.5924
  997   19.920   3076.56     1.3764     0.0203     1.0798     0.1992     1.8294     1.4763   318.7200     1.5106     0.5820
  998   19.940   3077.58     1.3787     0.0203     1.0775     0.1994     1.8323     1.4743   319.0400     1.5132     0.5819
  999   19.960   3078.54     1.3843     0.0203     1.0714     0.1996     1.8357     1.4649   319.3600     1.5163     0.5772
 1000   19.980   3079.50     1.3812     0.0212     1.0600     0.1998     1.8272     1.5383   319.6800     1.5075     0.5719
 1001   20.000   3080.52     1.3808     0.0211     1.0539     0.2000     1.8242     1.5297   320.0000     1.5042     0.5688
 1002   20.020   3081.55     1.3808     0.0240     1.0416     0.2002     1.8183     1.7343   320.3200     1.4980     0.5618
 1003   20.040   3082.56     1.3855     0.0272     1.0526     0.2004     1.8270     1.9616   320.6400     1.5063     0.5648
 1004   20.060   3083.56     1.3803     0.0286     1.0540     0.2006     1.8239     2.0627   320.9600     1.5029     0.5693
 1005   20.080   3084.53     1.3832     0.0288     1.0477     0.2008     1.8248     2.0767   321.2800     1.5035     0.5658
 1006   20.100   3085.55     1.3842     0.0290     1.0447     0.2010     1.8221     2.0907   321.6000     1.5005     0.5610
 1007   20.120   3112.23     1.3589     0.0279     1.0279     0.2012     1.7948     2.0502   321.9200     1.4729     0.5679
 1008   20.140   3170.39     1.3579     0.0282     0.9994     0.2014     1.7818     2.0779   322.2400     1.4595     0.5533
 1009   20.160   3220.67     1.3535     0.0261     0.9960     0.2016     1.7693     1.9242   322.5600     1.4467     0.5450
 1010   20.180   3239.77     1.3356     0.0230     1.0135     0.2018     1.7587     1.6940   322.8800     1.4359     0.5613
 1011   20.200   3258.86     1.3177     0.0214     1.0310     0.2020     1.7482     1.5780   323.2000     1.4250     0.5776
 1012   20.220   3268.74     1.3057     0.0302     1.0339     0.2022     1.7404     2.2892   323.5200     1.4169     0.5877
 1013   20.240   3269.79     1.2832     0.0473     1.0568     0.2024     1.7224     3.6704   323.8400     1.3986     0.6030
 1014   20.260   3270.80     1.2855     0.0552     1.0704     0.2026     1.7343     4.3134   324.1600     1.4101     0.6141
 1015   20.280   3271.75     1.3060     0.0661     1.0818     0.2028     1.7606     5.0781   324.4800     1.4361     0.6124
 1016   20.300   3272.82     1.3139     0.0762     1.0629     0.2030     1.7638     5.8004   324.8000     1.4390     0.6033
 1017   20.320   3557.58     1.4132     0.0828     0.8166     0.2032     1.8301     6.2068   325.1200     1.5050     0.5392
 1018   20.340   5884.58     1.9316     0.0763     0.3065     0.2034     2.1342     5.6500   325.4400     1.8088     0.2033
 1019   20.360   7684.32     2.2487     0.0681     0.1902     0.2036     2.3022     3.0090   325.7600     1.9764    -0.0378
 1020   20.380   7685.36     1.8904     0.0614     0.4093     0.2038     2.0317     3.1932   326.0800     1.7056     0.0789
 1021   20.400   7686.37     1.6457     0.0557     0.5993     0.2040     1.8691     3.3215   326.4000     1.5427     0.2130
 1022   20.420   7687.39     1.5229     0.0424     0.7750     0.2042     1.8291     2.7569   326.7200     1.5023     0.3494
 1023   20.440   7688.38     1.4937     0.0315     0.8286     0.2044     1.8373     2.1073   327.0400     1.5103     0.4063
 1024   20.460   7689.38     1.4879     0.0274     0.8428     0.2046     1.8388     1.8407   327.3600     1.5114     0.4174
 1025   20.480   7690.36     1.4781     0.0261     0.8646     0.2048     1.8391     1.7636   327.6800     1.5114     0.4332
 1026   20.500   7691.36     1.4457     0.0256     0.8768     0.2050     1.8113     1.7636   328.0000     1.4833     0.4487
 1027   20.520   7692.34     1.4118     0.0242     0.8949     0.2052     1.7878     1.7103   328.3200     1.4595     0.4728
 1028   20.540   7693.38     1.4058     0.0238     0.9114     0.2054     1.7847     1.6916   328.6400     1.4560     0.4785
 1029   20.560   7694.38     1.3926     0.0241     0.9348     0.2056     1.7832     1.7273   328.9600     1.4542     0.4981
 1030   20.580   7695.38     1.3823     0.0236     0.9429     0.2058     1.7768     1.7039   329.2800     1.4475     0.5067
 1031   20.600   7696.38     1.3632     0.0232     0.9495     0.2060     1.7607     1.7009   329.6000     1.4311     0.5173
 1032   20.620   7697.37     1.3538     0.0226     0.9594     0.2062     1.7556     1.6703   329.9200     1.4257     0.5264
 1033   20.640   7698.39     1.3667     0.0223     0.9690     0.2064     1.7726     1.6369   330.2400     1.4423     0.5269
 1034   20.660   7699.39     1.3930     0.0221     0.9894     0.2066     1.8048     1.5871   330.5600     1.4743     0.5250
 1035   20.680   7700.36     1.3972     0.0226     0.9867     0.2068     1.8135     1.6192   330.8800     1.4827     0.5291
 1036   20.700   7701.38     1.4036     0.0229     0.9969     0.2070     1.8213     1.6301   331.2000     1.4901     0.5284
 1037   20.720   7702.40     1.3981     0.0228     0.9988     0.2072     1.8169     1.6331   331.5200     1.4854     0.5318
 1038   20.740   7703.39     1.3828     0.0231     0.9994     0.2074     1.8024     1.6676   331.8400     1.4706     0.5383
 1039   20.760   7704.38     1.3800     0.0236     1.0018     0.2076     1.7998     1.7127   332.1600     1.4676     0.5395
 1040   20.780   7705.38     1.3808     0.0226     1.0145     0.2078     1.8047     1.6333   332.4800     1.4722     0.5444
 1041   20.800   7706.38     1.3730     0.0222     1.0336     0.2080     1.8046     1.6201   332.8000     1.4718     0.5569
 1042   20.820   7707.41     1.3875     0.0230     1.0434     0.2082     1.8246     1.6596   333.1200     1.4915     0.5582
 1043   20.840   7708.41     1.4134     0.0227     1.0502     0.2084     1.8533     1.6086   333.4400     1.5199     0.5521
 1044   20.860   7709.41     1.4229     0.0227     1.0533     0.2086     1.8669     1.5962   333.7600     1.5331     0.5534
 1045   20.880   7710.42     1.4258     0.0231     1.0415     0.2088     1.8633     1.6223   334.0800     1.5292     0.5446
 1046   20.900   7711.37     1.4169     0.0238     1.0467     0.2090     1.8563     1.6791   334.4000     1.5219     0.5502
 1047   20.920   7712.39     1.4242     0.0245     1.0550     0.2092     1.8651     1.7183   334.7200     1.5304     0.5494
 1048   20.940   7713.42     1.4174     0.0241     1.0544     0.2094     1.8603     1.6993   335.0400     1.5252     0.5541
 1049   20.960   7714.39     1.4465     0.0231     1.0624     0.2096     1.8900     1.6034   335.3600     1.5546     0.5444
 1050   20.980   7715.39     1.4445     0.0235     1.0826     0.2098     1.8972     1.6258   335.6800     1.5616     0.5560
 1051   21.000   7716.35     1.4467     0.0236     1.0828     0.2100     1.9026     1.6339   336.0000     1.5666     0.5588
 1052   21.020   7717.33     1.4542     0.0237     1.0878     0.2102     1.9090     1.6340   336.3200     1.5727     0.5550
 1053   21.040   7718.33     1.4469     0.0237     1.0840     0.2104     1.9035     1.6426   336.6400     1.5669     0.5596
 1054   21.060   7719.43     1.4536     0.0235     1.0813     0.2106     1.9093     1.6155   336.9600     1.5723     0.5561
 1055   21.080   7720.39     1.4336     0.0244     1.0624     0.2108     1.8835     1.6990   337.2800     1.5462     0.5564
 1056   21.100   7721.42     1.4054     0.0261     1.0754     0.2110     1.8531     1.8399   337.6000     1.5155     0.5642
 1057   21.120   7722.42     1.4038     0.0278     1.0824     0.2112     1.8571     1.9809   337.9200     1.5192     0.5713
 1058   21.140   7723.39     1.4055     0.0267     1.0880     0.2114     1.8615     1.9049   338.2400     1.5233     0.5740
 1059   21.160   7724.40     1.4286     0.0248     1.1057     0.2116     1.8909     1.7439   338.5600     1.5523     0.5728
 1060   21.180   7734.65     1.4197     0.0254     1.1081     0.2118     1.8850     1.7810   338.8800     1.5461     0.5795
 1061   21.200   7763.84     1.4064     0.0246     1.1093     0.2120     1.8721     1.7256   339.2000     1.5329     0.5852
 1062   21.220   7793.03     1.3931     0.0235     1.1105     0.2122     1.8593     1.6526   339.5200     1.5198     0.5909
 1063   21.240   7807.07     1.3826     0.0225     1.1205     0.2124     1.8513     1.6258   339.8400     1.5115     0.5979
 1064   21.260   7808.08     1.3883     0.0214     1.1152     0.2126     1.8581     1.5433   340.1600     1.5179     0.5968
 1065   21.280   7809.10     1.3987     0.0210     1.1291     0.2128     1.8704     1.5007   340.4800     1.5300     0.5951
 1066   21.300   7810.11     1.3895     0.0208     1.1227     0.2130     1.8638     1.4938   340.8000     1.5230     0.6016
 1067   21.320   7811.14     1.4061     0.0203     1.1283     0.2132     1.8778     1.4414   341.1200     1.5367     0.5922
 1068   21.340   7812.12     1.3729     0.0218     1.1172     0.2134     1.8455     1.5877   341.4400     1.5040     0.6062
 1069   21.360   7813.13     1.3763     0.0217     1.1009     0.2136     1.8410     1.5815   341.7600     1.4993     0.5956
 1070   21.380   7814.12     1.4042     0.0218     1.1091     0.2138     1.8686     1.5505   342.0800     1.5265     0.5842
 1071   21.400   7815.09     1.4042     0.0207     1.1010     0.2140     1.8676     1.4724   342.4000     1.5252     0.5831
 1072   21.420   7816.12     1.4181     0.0208     1.0970     0.2142     1.8773     1.4638   342.7200     1.5346     0.5729
 1073   21.440   7817.15     1.4252     0.0213     1.0932     0.2144     1.8827     1.4979   343.0400     1.5397     0.5682
 1074   21.460   7818.13     1.4281     0.0220     1.0867     0.2146     1.8881     1.5378   343.3600     1.5447     0.5700
 1075   21.480   7819.11     1.4198     0.0217     1.0848     0.2148     1.8756     1.5272   343.6800     1.5319     0.5682
 1076   21.500   7820.11     1.4166     0.0219     1.0888     0.2150     1.8732     1.5490   344.0000     1.5292     0.5703
 1077   21.520   7821.08     1.4187     0.0221     1.1011     0.2152     1.8805     1.5604   344.3200     1.5362     0.5756
 1078   21.540   7822.09     1.4331     0.0211     1.1031     0.2154     1.8940     1.4742   344.6400     1.5494     0.5693
 1079   21.560   7823.13     1.4239     0.0229     1.1062     0.2156     1.8892     1.6056   344.9600     1.5442     0.5777
 1080   21.580   7824.17     1.4264     0.0217     1.1006     0.2158     1.8874     1.5198   345.2800     1.5421     0.5718
 1081   21.600   7825.15     1.4181     0.0214     1.1011     0.2160     1.8811     1.5079   345.6000     1.5355     0.5772
 1082   21.620   7826.14     1.4145     0.0209     1.1076     0.2162     1.8799     1.4760   345.9200     1.5340     0.5814
 1083   21.640   7827.15     1.4280     0.0214     1.1087     0.2164     1.8957     1.4973   346.2400     1.5494     0.5789
 1084   21.660   7828.15     1.4246     0.0220     1.1074     0.2166     1.8928     1.5479   346.5600     1.5462     0.5808
 1085   21.680   7829.13     1.4457     0.0222     1.1214     0.2168     1.9125     1.5512   346.8800     1.5656     0.5713
 1086   21.700   7830.15     1.4562     0.0229     1.1179     0.2170     1.9269     1.5734   347.2000     1.5797     0.5721
 1087   21.720   7831.14     1.4897     0.0234     1.0985     0.2172     1.9528     1.5753   347.5200     1.6053     0.5516
 1088   21.740   7832.16     1.5034     0.0232     1.0303     0.2174     1.9461     1.5336   347.8400     1.5982     0.5234
 1089   21.760   7833.19     1.4440     0.0226     1.0380     0.2176     1.8791     1.5625   348.1600     1.5309     0.5344
 1090   21.780   7834.19     1.4326     0.0228     1.0698     0.2178     1.8794     1.5917   348.4800     1.5309     0.5526
 1091   21.800   7835.19     1.4216     0.0224     1.0978     0.2180     1.8783     1.5777   348.8000     1.5295     0.5684
 1092   21.820   7836.17     1.4342     0.0208     1.1186     0.2182     1.9010     1.4467   349.1200     1.5519     0.5756
 1093   21.840   7837.19     1.4205     0.0200     1.1191     0.2184     1.8911     1.4050   349.4400     1.5416     0.5851
 1094   21.860   7838.18     1.4079     0.0194     1.1083     0.2186     1.8768     1.3759   349.7600     1.5271     0.5879
 1095   21.880   7839.21     1.3875     0.0186     1.1047     0.2188     1.8502     1.3347   350.0800     1.5001     0.5885
 1096   21.900   7840.20     1.3630     0.0189     1.0923     0.2190     1.8231     1.3848   350.4000     1.4727     0.5951
 1097   21.920   7841.23     1.3574     0.0186     1.1075     0.2192     1.8213     1.3704   350.7200     1.4706     0.6022
 1098   21.940   7842.22     1.3482     0.0183     1.0986     0.2194     1.8108     1.3556   351.0400     1.4598     0.6044
 1099   21.960   7843.21     1.3234     0.0179     1.0914     0.2196     1.7837     1.3479   351.3600     1.4323     0.6118
 1100   21.980   7844.19     1.3213     0.0182     1.1063     0.2198     1.7842     1.3796   351.6800     1.4325     0.6159
 1101   22.000   7845.17     1.3394     0.0177     1.1143     0.2200     1.8059     1.3219   352.0000     1.4539     0.6126
 1102   22.020   7846.15     1.3370     0.0176     1.1034     0.2202     1.8007     1.3133   352.3200     1.4484     0.6103
 1103   22.040   7847.17     1.3182     0.0168     1.0920     0.2204     1.7792     1.2724   352.6400     1.4265     0.6148
 1104   22.060   7848.18     1.3169     0.0162     1.0833     0.2206     1.7702     1.2298   352.9600     1.4173     0.6060
 1105   22.080   7849.19     1.2996     0.0153     1.0799     0.2208     1.7549     1.1747   353.2800     1.4016     0.6158
 1106   22.100   7850.19     1.2912     0.0146     1.0753     0.2210     1.7443     1.1281   353.6000     1.3907     0.6168
 1107   22.120   7851.17     1.2691     0.0138     1.0651     0.2212     1.7182     1.0874   353.9200     1.3643     0.6217
 1108   22.140   7852.20     1.2602     0.0159     1.0543     0.2214     1.7052     1.2563   354.2400     1.3510     0.6205
 1109   22.160   7853.16     1.2636     0.0142     1.0329     0.2216     1.7001     1.1229   354.5600     1.3456     0.6077
 1110   22.180   7854.18     1.2637     0.0102     0.9970     0.2218     1.6865     0.8061   354.8800     1.3316     0.5894
 1111   22.200   7855.19     1.2464     0.0113     1.0033     0.2220     1.6651     0.9062   355.2000     1.3099     0.5915
 1112   22.220   7856.21     1.2710     0.0158     1.0075     0.2222     1.6935     1.2473   355.5200     1.3379     0.5858
 1113   22.240   7857.24     1.4337     0.0172     0.9954     0.2224     1.8533     1.2211   355.8400     1.4975     0.5193
 1114   22.260   7858.23     1.6366     0.0146     0.9304     0.2226     2.0348     0.9024   356.1600     1.6787     0.4325
 1115   22.280   7859.27     1.7848     0.0139     0.7194     0.2228     2.1159     0.7864   356.4800     1.7594     0.3216
 1116   22.300   7860.26     1.7394     0.0142     0.7581     0.2230     2.0452     0.8101   356.8000     1.6884     0.2994
 1117   22.320   7861.25     1.4965     0.0142     0.8037     0.2232     1.8276     0.9439   357.1200     1.4705     0.3856
 1118   22.340   7862.25     1.2899     0.0152     0.8930     0.2234     1.6539     1.1674   357.4400     1.2965     0.4963
 1119   22.360   7863.28     1.2444     0.0136     0.9198     0.2236     1.6289     1.0925   357.7600     1.2711     0.5443
 1120   22.380   7864.27     1.2991     0.0144     0.9193     0.2238     1.6875     1.1171   358.0800     1.3294     0.5275
 1121   22.400   7865.31     1.4719     0.0138     0.8504     0.2240     1.8415     0.9588   358.4000     1.4831     0.4431
 1122   22.420   7866.30     1.6768     0.0132     0.7798     0.2242     2.0144     0.8087   358.7200     1.6557     0.3507
 1123   22.440   7867.32     1.9185     0.0123     0.7099     0.2244     2.2270     0.6519   359.0400     1.8679     0.2737
 1124   22.460   7868.34     2.1848     0.0128     0.6528     0.2246     2.4660     0.5914   359.3600     2.1066     0.2115
 1125   22.480   7869.29     2.3917     0.0118     0.6153     0.2248     2.6537     0.4961   359.6800     2.2940     0.1739
 1126   22.500   7870.29     2.4748     0.0102     0.6136     0.2250     2.7313     0.4132   360.0000     2.3713     0.1626
 1127   22.520   7871.29     2.4684     0.0109     0.6306     0.2252     2.7308     0.4423   360.3200     2.3705     0.1686
 1128   22.540   7872.34     2.4354     0.0110     0.6610     0.2254     2.7086     0.4505   360.6400     2.3480     0.1811
 1129   22.560   7873.32     2.3296     0.0103     0.6736     0.2256     2.6108     0.4378   360.9600     2.2498     0.1974
 1130   22.580   7874.32     2.1010     0.0098     0.7053     0.2258     2.3932     0.4649   361.2800     2.0319     0.2315
 1131   22.600   7875.33     1.9761     0.0121     0.7170     0.2260     2.2767     0.6115   361.6000     1.9151     0.2558
 1132   22.620   7876.32     2.1443     0.0140     0.6446     0.2262     2.4283     0.6821   361.9200     2.0664     0.2185
 1133   22.640   7877.36     2.5823     0.0128     0.5704     0.2264     2.8302     0.5225   362.2400     2.4680     0.1479
 1134   22.660   7878.35     3.0586     0.0103     0.5277     0.2266     3.2882     0.3505   362.5600     2.9256     0.1097
 1135   22.680   7879.38     3.6036     0.0098     0.4548     0.2268     3.8062     0.2854   362.8800     3.4433     0.0745
 1136   22.700   7880.41     4.0993     0.0116     0.4013     0.2270     4.2730     0.2847   363.2000     3.9098     0.0478
 1137   22.720   7881.43     4.3779     0.0174     0.3634     0.2272     4.5348     0.3988   363.5200     4.1713     0.0351
 1138   22.740   7882.42     4.3899     0.0256     0.3724     0.2274     4.5429     0.5823   363.8400     4.1791     0.0328
 1139   22.760   7883.45     4.1533     0.0348     0.3547     0.2276     4.3078     0.8263   364.1600     3.9436     0.0355
 1140   22.780   7884.47     3.6590     0.0402     0.3656     0.2278     3.8070     1.0734   364.4800     3.4425     0.0362
 1141   22.800   7885.48     3.2355     0.0381     0.4204     0.2280     3.4054     1.1635   364.8000     3.0406     0.0582
 1142   22.820   7886.45     2.8917     0.0368     0.4506     0.2282     3.0777     1.2593   365.1200     2.7126     0.0793
 1143   22.840   7887.45     2.5373     0.0354     0.4902     0.2284     2.7346     1.3853   365.4400     2.3692     0.1021
 1144   22.860   7888.42     2.2901     0.0304     0.5154     0.2286     2.5061     1.2959   365.7600     2.1404     0.1336
 1145   22.880   7889.43     2.1673     0.0254     0.5429     0.2288     2.3918     1.1667   366.0800     2.0258     0.1511
 1146   22.900   7890.46     2.1571     0.0228     0.5755     0.2290     2.3936     1.0582   366.4000     2.0272     0.1648
 1147   22.920   7891.49     2.1644     0.0193     0.5936     0.2292     2.4132     0.8943   366.7200     2.0465     0.1775
 1148   22.940   7892.46     2.1153     0.0152     0.5897     0.2294     2.3639     0.7160   367.0400     1.9969     0.1815
 1149   22.960   7893.46     2.0140     0.0164     0.6165     0.2296     2.2705     0.8131   367.3600     1.9032     0.2004
 1150   22.980   7894.49     1.9064     0.0174     0.6365     0.2298     2.1678     0.9080   367.6800     1.8001     0.2181
 1151   23.000   7895.48     1.8941     0.0184     0.6369     0.2300     2.1684     0.9706   368.0000     1.8004     0.2350
 1152   23.020   7896.48     2.0887     0.0163     0.5962     0.2302     2.3476     0.8010   368.3200     1.9792     0.1952
 1153   23.040   7897.46     2.4693     0.0241     0.5582     0.2304     2.7076     0.9587   368.6400     2.3389     0.1443
 1154   23.060   7898.47     2.9276     0.0330     0.5232     0.2306     3.1542     1.1492   368.9600     2.7853     0.1111
 1155   23.080   7899.50     3.5399     0.0349     0.4732     0.2308     3.7471     1.0272   369.2800     3.3778     0.0779
 1156   23.100   7900.57     4.3238     0.0309     0.4071     0.2310     4.4981     0.7523   369.6000     4.1285     0.0446
 1157   23.120   7901.57     5.1116     0.0306     0.3466     0.2312     5.2704     0.6253   369.9200     4.9005     0.0300
 1158   23.140   7909.17     5.9691     0.0482     0.1944     0.2314     6.0668     0.9092   370.2400     5.6966     0.0009
 1159   23.160   7925.27     6.3053     0.0694     0.0831     0.2316     6.3563     1.3089   370.5600     5.9857    -0.0175
 1160   23.180   7937.37     6.4047     0.0790     0.0526     0.2318     6.4249     1.2260   370.8800     6.0540    -0.0303
 1161   23.200   7938.37     5.6606     0.0778     0.0541     0.2320     5.6809     1.3607   371.2000     5.3097    -0.0346
 1162   23.220   7939.42     4.8526     0.0834     0.0885     0.2322     4.8840     1.7063   371.5200     4.5124    -0.0349
 1163   23.240   7940.42     4.4955     0.0857     0.1868     0.2324     4.5560     1.9008   371.8400     4.1842    -0.0210
 1164   23.260   7941.43     4.2735     0.0795     0.2376     0.2326     4.3702     1.8405   372.1600     3.9980    -0.0006
 1165   23.280   7942.40     4.2861     0.0757     0.2545     0.2328     4.3998     1.7694   372.4800     4.0273     0.0094
 1166   23.300   7943.42     4.4982     0.0606     0.1597     0.2330     4.5730     1.3521   372.8000     4.2002    -0.0131
 1167   23.320   7944.44     4.6131     0.0385     0.1560     0.2332     4.6745     0.8353   373.1200     4.3013    -0.0203
 1168   23.340   7945.45     4.6153     0.0278     0.1863     0.2334     4.6874     0.6016   373.4400     4.3140    -0.0143
 1169   23.360   7946.47     4.7156     0.0280     0.1979     0.2336     4.8085     0.5955   373.7600     4.4347    -0.0028
 1170   23.380   7947.47     4.8076     0.0283     0.1718     0.2338     4.8798     0.5905   374.0800     4.5058    -0.0137
 1171   23.400   7948.46     4.8187     0.0341     0.1717     0.2340     4.8938     0.7082   374.4000     4.5194    -0.0122
 1172   23.420   7949.45     4.8035     0.0426     0.1502     0.2342     4.8651     0.8858   374.7200     4.4904    -0.0195
 1173   23.440   7950.45     4.9955     0.0440     0.1796     0.2344     5.0663     0.9043   375.0400     4.6913    -0.0140
 1174   23.460   7951.51     5.4280     0.0394     0.2038     0.2346     5.5113     0.7284   375.3600     5.1360    -0.0070
 1175   23.480   7952.47     5.8975     0.0385     0.2135     0.2348     5.9860     0.6822   375.6800     5.6103    -0.0043
 1176   23.500   7953.51     6.3944     0.0456     0.1780     0.2350     6.4790     0.7202   376.0000     6.1030    -0.0055
 1177   23.520   7954.47     6.7962     0.0509     0.1132     0.2352     6.8491     0.7514   376.3200     6.4728    -0.0168
 1178   23.540   7955.47     7.1827     0.0505     0.1138     0.2354     7.2298     0.7048   376.6400     6.8531    -0.0180
 1179   23.560   7956.52     7.4069     0.0534     0.0693     0.2356     7.4434     0.7223   376.9600     7.0665    -0.0210
 1180   23.580   7957.57     7.5116     0.0551     0.0799     0.2358     7.5405     0.7355   377.2800     7.1632    -0.0233
 1181   23.600   7958.58     7.7353     0.0604     0.0992     0.2360     7.7733     0.7866   377.6000     7.3957    -0.0197
 1182   23.620   7959.56     8.0588     0.0651     0.1284     0.2362     8.1108     0.8162   377.9200     7.7329    -0.0145
 1183   23.640   7960.56     8.3420     0.0696     0.0952     0.2364     8.3909     0.8419   378.2400     8.0126    -0.0150
 1184   23.660   7961.51     8.5405     0.0757     0.0376     0.2366     8.5589     0.8918   378.5600     8.1804    -0.0236
 1185   23.680   7962.50     8.6707     0.0801     0.0442     0.2368     8.6880     0.9282   378.8800     8.3091    -0.0235
 1186   23.700   7963.45     8.8844     0.0777     0.0749     0.2370     8.9105     0.8836   379.2000     8.5313    -0.0205
 1187   23.720   7964.43     9.3952     0.0744     0.1074     0.2372     9.4361     0.8070   379.5200     9.0566    -0.0155
 1188   23.740   7965.40     9.9955     0.0747     0.1111     0.2374    10.0427     0.7624   379.8400     9.6629    -0.0129
 1189   23.760   7966.37    10.5467     0.0767     0.0754     0.2376    10.5872     0.7416   380.1600    10.2070    -0.0138
 1190   23.780   7967.36    10.9439     0.0821     0.0115     0.2378    10.9555     0.7565   380.4800    10.5750    -0.0199
 1191   23.800   7968.32    11.2331     0.0848     0.0098     0.2380    11.2363     0.7605   380.8000    10.8555    -0.0212
 1192   23.820   7969.27    11.3727     0.0874     0.0081     0.2382    11.3749     0.7711   381.1200    10.9938    -0.0212
 1193   23.840   7970.20    11.5624     0.0870     0.0380     0.2384    11.5737     0.7584   381.4400    11.1922    -0.0189
 1194   23.860   7971.16    12.0258     0.0861     0.0674     0.2386    12.0489     0.7277   381.7600    11.6671    -0.0158
 1195   23.880   7972.12    12.6796     0.0805     0.1053     0.2388    12.7214     0.6490   382.0800    12.3393    -0.0113
 1196   23.900   7973.11    13.5210     0.0836     0.1025     0.2390    13.5664     0.6332   382.4000    13.1840    -0.0099
 1197   23.920   7974.06    14.4703     0.0897     0.0402     0.2392    14.4930     0.6348   382.7200    14.1103    -0.0131
 1198   23.940   7975.03    15.2928     0.1036     0.0140     0.2394    15.3001     0.6905   383.0400    14.9170    -0.0149
 1199   23.960   7975.95    15.7283     0.1203    -0.0025     0.2396    15.7270     0.7724   383.3600    15.3436    -0.0158
 1200   23.980   7976.93    15.8630     0.1331     0.0224     0.2398    15.8669     0.8391   383.6800    15.4832    -0.0149
 1201   24.000   7977.88    15.9113     0.1409     0.0670     0.2400    15.9340     0.8865   384.0000    15.5501    -0.0119
 1202   24.020   7978.85    15.9057     0.1457     0.1172     0.2402    15.9457     0.9154   384.3200    15.5614    -0.0093
 1203   24.040   7979.82    15.8290     0.1480     0.1580     0.2404    15.8917     0.9337   384.6400    15.5070    -0.0059
 1204   24.060   7980.74    15.7691     0.1488     0.1850     0.2406    15.8437     0.9423   384.9600    15.4588    -0.0041
 1205   24.080   7981.72    15.7551     0.1400     0.1942     0.2408    15.8371     0.8889   385.2800    15.4518    -0.0030
 1206   24.100   7982.66    15.9000     0.1275     0.2015     0.2410    15.9847     0.8055   385.6000    15.5991    -0.0025
 1207   24.120   7983.62    16.2944     0.1177     0.2172     0.2412    16.3839     0.7291   385.9200    15.9980    -0.0018
 1208   24.140   7984.57    16.6663     0.1107     0.2322     0.2414    16.7607     0.6679   386.2400    16.3745    -0.0010
 1209   24.160   7985.53    16.9398     0.1071     0.1791     0.2416    17.0293     0.6346   386.5600    16.6427    -0.0017
 1210   24.180   7986.46    16.9378     0.1059     0.1195     0.2418    16.9922     0.6241   386.8800    16.6053    -0.0068
 1211   24.200   7987.47    16.6449     0.1057     0.0777     0.2420    16.6824     0.6309   387.2000    16.2952    -0.0094
 1212   24.220   7988.38    16.5193     0.1084     0.0368     0.2422    16.5435     0.6559   387.5200    16.1560    -0.0114
 1213   24.240   7989.35    16.5795     0.1190     0.0275     0.2424    16.5844     0.7191   387.8400    16.1966    -0.0142
 1214   24.260   7990.33    16.9931     0.1245     0.0527     0.2426    17.0109     0.7425   388.1600    16.6228    -0.0120
 1215   24.280   7991.30    18.2721     0.1311     0.1096     0.2428    18.3103     0.7312   388.4800    17.9218    -0.0085
 1216   24.300   7992.29    20.1933     0.1383     0.1206     0.2430    20.2520     0.7009   388.8000    19.8632    -0.0052
 1217   24.320   7993.28    22.1185     0.1482     0.0893     0.2432    22.1515     0.6812   389.1200    21.7624    -0.0076
 1218   24.340   7994.30    23.7762     0.1647     0.1155     0.2434    23.8325     0.7028   389.4400    23.4431    -0.0047
 1219   24.360   7995.25    25.1221     0.1781     0.0988     0.2436    25.1590     0.7151   389.7600    24.7692    -0.0063
 1220   24.380   7996.23    26.2222     0.1849     0.1578     0.2438    26.2801     0.7111   390.0800    25.8901    -0.0041
 1221   24.400   7997.21    27.1218     0.1885     0.2110     0.2440    27.2028     0.6982   390.4000    26.8124    -0.0019
 1222   24.420   7998.21    27.6134     0.1920     0.2335     0.2442    27.7071     0.6975   390.7200    27.3164    -0.0008
 1223   24.440   7999.17    27.8987     0.1894     0.2259     0.2444    27.9978     0.6806   391.0400    27.6068    -0.0003
 1224   24.460   8000.19    28.2324     0.1861     0.2412     0.2446    28.3333     0.6609   391.3600    27.9420    -0.0002
 1225   24.480   8001.15    28.5464     0.1872     0.2290     0.2448    28.6456     0.6573   391.6800    28.2539    -0.0003
 1226   24.500   8002.16    28.6993     0.1912     0.2477     0.2450    28.8015     0.6668   392.0000    28.4095    -0.0001
 1227   24.520   8003.11    28.6439     0.1941     0.2421     0.2452    28.7451     0.6768   392.3200    28.3528    -0.0001
 1228   24.540   8004.06    28.3531     0.1961     0.2364     0.2454    28.4572     0.6895   392.6400    28.0646     0.0001
 1229   24.560   8005.06    27.8543     0.1979     0.2309     0.2456    27.9548     0.7076   392.9600    27.5619    -0.0002
 1230   24.580   8006.07    27.3335     0.1987     0.2374     0.2458    27.4325     0.7238   393.2800    27.0392    -0.0004
 1231   24.600   8006.98    26.8861     0.2011     0.2444     0.2460    26.9885     0.7455   393.6000    26.5949    -0.0001
 1232   24.620   8007.97    26.5493     0.2024     0.2362     0.2462    26.6488     0.7600   393.9200    26.2549    -0.0003
 1233   24.640   8008.93    26.3463     0.2030     0.2500     0.2464    26.4489     0.7696   394.2400    26.0547    -0.0001
 1234   24.660   8009.92    26.2322     0.2019     0.2333     0.2466    26.3300     0.7686   394.5600    25.9355    -0.0005
 1235   24.680   8010.89    26.1863     0.2045     0.2465     0.2468    26.2906     0.7807   394.8800    25.8957     0.0001
 1236   24.700   8011.88    26.0279     0.2071     0.2481     0.2470    26.1323     0.7937   395.2000    25.7371     0.0001
 1237   24.720   8012.83    25.8101     0.2082     0.2430     0.2472    25.9103     0.8054   395.5200    25.5148    -0.0003
 1238   24.740   8013.82    25.6035     0.2109     0.2464     0.2474    25.7062     0.8213   395.8400    25.3103    -0.0001
 1239   24.760   8014.78    25.3214     0.2136     0.2475     0.2476    25.4251     0.8409   396.1600    25.0289     0.0000
 1240   24.780   8015.80    25.0884     0.2190     0.2455     0.2478    25.1914     0.8716   396.4800    24.7949    -0.0001
 1241   24.800   8016.78    25.1109     0.2263     0.2529     0.2480    25.2143     0.9012   396.8000    24.8175    -0.0001
 1242   24.820   8017.77    25.1658     0.2346     0.2436     0.2482    25.2693     0.9326   397.1200    24.8722    -0.0001
 1243   24.840   8018.71    25.1356     0.2379     0.2554     0.2484    25.2400     0.9466   397.4400    24.8425     0.0000
 1244   24.860   8019.66    25.1029     0.2353     0.2479     0.2486    25.2054     0.9370   397.7600    24.8077    -0.0002
 1245   24.880   8020.67    25.1352     0.2316     0.2491     0.2488    25.2385     0.9213   398.0800    24.8404    -0.0001
 1246   24.900   8021.66    25.1088     0.2299     0.2535     0.2490    25.2167     0.9148   398.4000    24.8183     0.0003
 1247   24.920   8022.62    24.9658     0.2250     0.2602     0.2492    25.0725     0.8996   398.7200    24.6737     0.0002
 1248   24.940   8023.57    24.7495     0.2215     0.2098     0.2494    24.8425     0.8932   399.0400    24.4435    -0.0011
 1249   24.960   8024.54    24.3441     0.2174     0.1963     0.2496    24.4244     0.8892   399.3600    24.0251    -0.0024
 1250   24.980   8025.53    23.9375     0.2162     0.2227     0.2498    24.0259     0.8995   399.6800    23.6262    -0.0017
 1251   25.000   8026.48    23.7254     0.2156     0.2511     0.2500    23.8295     0.9078   400.0000    23.4295    -0.0001
 1252   25.020   8027.48    23.7973     0.2182     0.2533     0.2502    23.9022     0.9119   400.3200    23.5018     0.0000
 1253   25.040   8028.43    24.1537     0.2220     0.2600     0.2504    24.2625     0.9159   400.6400    23.8619     0.0004
 1254   25.060   8029.42    24.5406     0.2259     0.2523     0.2506    24.6492     0.9200   400.9600    24.2482     0.0003
 1255   25.080   8030.40    24.9559     0.2267     0.1803     0.2508    25.0429     0.9098   401.2800    24.6417    -0.0018
 1256   25.100   8031.35    25.2949     0.2267     0.1601     0.2510    25.3620     0.8966   401.6000    24.9604    -0.0037
 1257   25.120   8035.66    25.5373     0.2308     0.1831     0.2512    25.6114     0.9073   401.9200    25.2095    -0.0030
 1258   25.140   8048.81    25.8911     0.2409     0.2026     0.2514    25.9734     0.9470   402.2400    25.5712    -0.0022
 1259   25.160   8061.95    26.2450     0.2556     0.2222     0.2516    26.3354     1.0049   402.5600    25.9329    -0.0014
 1260   25.180   8070.43    26.6918     0.2668     0.2499     0.2518    26.7921     1.0041   402.8800    26.3892    -0.0005
 1261   25.200   8071.42    27.1451     0.2750     0.2669     0.2520    27.2596     1.0161   403.2000    26.8564     0.0008
 1262   25.220   8072.43    27.6104     0.2842     0.2401     0.2522    27.7142     1.0321   403.5200    27.3107    -0.0002
 1263   25.240   8073.38    27.9973     0.2894     0.2404     0.2524    28.0954     1.0351   403.8400    27.6915    -0.0007
 1264   25.260   8074.39    28.1460     0.2896     0.2440     0.2526    28.2495     1.0309   404.1600    27.8454    -0.0002
 1265   25.280   8075.37    28.1896     0.2919     0.2398     0.2528    28.2922     1.0349   404.4800    27.8878    -0.0003
 1266   25.300   8076.35    28.1101     0.2944     0.2645     0.2530    28.2175     1.0470   404.8000    27.8127     0.0001
 1267   25.320   8077.34    27.9604     0.2990     0.2536     0.2532    28.0679     1.0675   405.1200    27.6628     0.0001
 1268   25.340   8078.32    27.6577     0.3089     0.2661     0.2534    27.7666     1.1147   405.4400    27.3612     0.0002
 1269   25.360   8079.32    27.3364     0.3095     0.2497     0.2536    27.4423     1.1294   405.7600    27.0365    -0.0001
 1270   25.380   8080.33    26.9443     0.3076     0.2558     0.2538    27.0514     1.1373   406.0800    26.6453     0.0000
 1271   25.400   8081.31    26.4981     0.2982     0.2557     0.2540    26.6058     1.1213   406.4000    26.1994     0.0001
 1272   25.420   8082.28    25.9078     0.2930     0.2569     0.2542    26.0138     1.1273   406.7200    25.6071    -0.0001
 1273   25.440   8083.24    25.5014     0.2937     0.2553     0.2544    25.6098     1.1476   407.0400    25.2028     0.0001
 1274   25.460   8084.24    25.3438     0.2919     0.2629     0.2546    25.4528     1.1517   407.3600    25.0455     0.0002
 1275   25.480   8085.25    25.4881     0.2883     0.2595     0.2548    25.5948     1.1328   407.6800    25.1871     0.0000
 1276   25.500   8086.23    25.5455     0.2855     0.2674     0.2550    25.6542     1.1170   408.0000    25.2462     0.0001
 1277   25.520   8087.21    25.3928     0.2827     0.2548     0.2552    25.5007     1.1116   408.3200    25.0924     0.0001
 1278   25.540   8088.17    25.2007     0.2838     0.2421     0.2554    25.3044     1.1237   408.6400    24.8958    -0.0003
 1279   25.560   8089.12    25.0001     0.2821     0.2362     0.2556    25.1031     1.1261   408.9600    24.6942    -0.0004
 1280   25.580   8090.12    24.8729     0.2768     0.2479     0.2558    24.9765     1.1123   409.2800    24.5673    -0.0004
 1281   25.600   8091.09    24.8891     0.2721     0.2349     0.2560    24.9908     1.0941   409.6000    24.5812    -0.0006
 1282   25.620   8092.09    24.7958     0.2691     0.2483     0.2562    24.9026     1.0825   409.9200    24.4927    -0.0001
 1283   25.640   8093.04    24.2641     0.2707     0.2578     0.2564    24.3754     1.1074   410.2400    23.9651     0.0004
 1284   25.660   8094.00    23.1225     0.2713     0.2445     0.2566    23.2269     1.1539   410.5600    22.8163    -0.0004
 1285   25.680   8095.00    22.0230     0.2598     0.2386     0.2568    22.1196     1.1639   410.8800    21.7087    -0.0012
 1286   25.700   8095.96    21.1715     0.2465     0.2561     0.2570    21.2780     1.1505   411.2000    20.8668    -0.0002
 1287   25.720   8096.95    20.4725     0.2395     0.2648     0.2572    20.5821     1.1584   411.5200    20.1706     0.0002
 1288   25.740   8097.87    19.9754     0.2369     0.2665     0.2574    20.0886     1.1772   411.8400    19.6767     0.0006
 1289   25.760   8098.83    19.5593     0.2363     0.2473     0.2576    19.6651     1.2006   412.1600    19.2530    -0.0003
 1290   25.780   8099.80    19.2315     0.2290     0.2468     0.2578    19.3349     1.1854   412.4800    18.9224    -0.0006
 1291   25.800   8100.81    19.0734     0.2198     0.2508     0.2580    19.1791     1.1509   412.8000    18.7663    -0.0003
 1292   25.820   8101.77    19.1023     0.2159     0.2490     0.2582    19.2102     1.1321   413.1200    18.7971    -0.0001
 1293   25.840   8102.74    19.2626     0.2144     0.2584     0.2584    19.3651     1.1155   413.4400    18.9516    -0.0008
 1294   25.860   8103.65    19.4745     0.2185     0.2541     0.2586    19.5809     1.1255   413.7600    19.1671    -0.0003
 1295   25.880   8104.60    19.7366     0.2240     0.2468     0.2588    19.8387     1.1375   414.0800    19.4246    -0.0008
 1296   25.900   8105.61    20.0040     0.2136     0.2270     0.2590    20.1026     1.0704   414.4000    19.6882    -0.0012
 1297   25.920   8106.62    20.3318     0.1964     0.2147     0.2592    20.4214     0.9686   414.7200    20.0066    -0.0023
 1298   25.940   8107.61    20.7466     0.1739     0.2476     0.2594    20.8463     0.8429   415.0400    20.4313    -0.0011
 1299   25.960   8108.58    21.5789     0.1601     0.2506     0.2596    21.6865     0.7468   415.3600    21.2711    -0.0002
 1300   25.980   8109.53    22.6839     0.1616     0.1239     0.2598    22.7631     0.7181   415.6800    22.3474    -0.0032
 1301   26.000   8110.52    24.2354     0.1682     0.0339     0.2600    24.2571     0.7010   416.0000    23.8411    -0.0087
 1302   26.020   8111.57    25.8371     0.1741     0.0423     0.2602    25.8529     0.6839   416.3200    25.4366    -0.0088
 1303   26.040   8112.52    26.9371     0.1965     0.0333     0.2604    26.9516     0.7361   416.6400    26.5349    -0.0085
 1304   26.060   8113.50    27.6564     0.2283     0.0332     0.2606    27.6682     0.8296   416.9600    27.2512    -0.0085
 1305   26.080   8114.50    27.4987     0.2462     0.0688     0.2608    27.5172     0.8905   417.2800    27.1000    -0.0080
 1306   26.100   8115.50    27.1300     0.2574     0.1318     0.2610    27.1818     0.9440   417.6000    26.7642    -0.0051
 1307   26.120   8116.42    26.2942     0.2523     0.1252     0.2612    26.3459     0.9532   417.9200    25.9280    -0.0053
 1308   26.140   8117.39    25.2587     0.2392     0.1667     0.2614    25.3222     0.9408   418.2400    24.9039    -0.0044
 1309   26.160   8118.37    24.2791     0.2272     0.1952     0.2616    24.3588     0.9310   418.5600    23.9403    -0.0030
 1310   26.180   8119.35    23.6533     0.2156     0.2230     0.2618    23.7428     0.9106   418.8800    23.3239    -0.0021
 1311   26.200   8120.35    23.6809     0.2037     0.2325     0.2620    23.7758     0.8612   419.2000    23.3566    -0.0015
 1312   26.220   8121.36    24.2753     0.1992     0.2615     0.2622    24.3825     0.8227   419.5200    23.9630    -0.0003
 1313   26.240   8122.37    25.1711     0.1995     0.2342     0.2624    25.2765     0.8015   419.8400    24.8566    -0.0005
 1314   26.260   8123.36    26.4542     0.2050     0.1944     0.2626    26.5372     0.7949   420.1600    26.1170    -0.0025
 1315   26.280   8124.37    28.4338     0.2085     0.1682     0.2628    28.5079     0.7590   420.4800    28.0875    -0.0031
 1316   26.300   8125.36    30.3820     0.2161     0.1740     0.2630    30.4554     0.7308   420.8000    30.0346    -0.0029
 1317   26.320   8126.38    31.9183     0.2327     0.1638     0.2632    31.9855     0.7425   421.1200    31.5644    -0.0033
 1318   26.340   8127.43    32.9268     0.2487     0.1592     0.2634    32.9929     0.7637   421.4400    32.5715    -0.0033
 1319   26.360   8128.50    33.2496     0.2611     0.1473     0.2636    33.3113     0.7878   421.7600    32.8895    -0.0035
 1320   26.380   8129.48    33.3157     0.2740     0.1688     0.2638    33.3821     0.8225   422.0800    32.9600    -0.0032
 1321   26.400   8130.56    33.1415     0.2779     0.2325     0.2640    33.2262     0.8378   422.4000    32.8038    -0.0019
 1322   26.420   8131.56    33.5590     0.2774     0.2688     0.2642    33.6703     0.8315   422.7200    33.2476     0.0000
 1323   26.440   8132.57    33.7479     0.2766     0.2682     0.2644    33.8607     0.8225   423.0400    33.4376     0.0001
 1324   26.460   8133.59    33.7271     0.2724     0.2622     0.2646    33.8456     0.8065   423.3600    33.4222     0.0005
 1325   26.480   8134.57    33.5566     0.2744     0.2506     0.2648    33.6658     0.8166   423.6800    33.2422    -0.0001
 1326   26.500   8135.54    33.4377     0.2749     0.2619     0.2650    33.5417     0.8213   424.0000    33.1177    -0.0005
 1327   26.520   8139.15    33.0289     0.2719     0.2315     0.2652    33.1328     0.8143   424.3200    32.7085    -0.0006
 1328   26.540   8145.47    32.2835     0.2796     0.1857     0.2654    32.3681     0.8374   424.6400    31.9435    -0.0020
 1329   26.560   8150.79    31.6868     0.2868     0.2146     0.2656    31.7638     0.9052   424.9600    31.3388    -0.0026
 1330   26.580   8151.82    31.3489     0.2866     0.2419     0.2658    31.4500     0.9104   425.2800    31.0247    -0.0008
 1331   26.600   8152.79    30.6893     0.2854     0.2593     0.2660    30.7955     0.9273   425.6000    30.3699    -0.0004
 1332   26.620   8153.78    30.1065     0.2804     0.2680     0.2662    30.2155     0.9286   425.9200    29.7896    -0.0002
 1333   26.640   8154.72    29.6891     0.2822     0.2859     0.2664    29.8131     0.9498   426.2400    29.3869     0.0010
 1334   26.660   8155.72    29.4794     0.2859     0.2759     0.2666    29.5930     0.9698   426.5600    29.1664     0.0001
 1335   26.680   8156.71    29.4894     0.2943     0.2593     0.2668    29.5984     0.9981   426.8800    29.1715    -0.0003
 1336   26.700   8157.76    29.7802     0.2956     0.2567     0.2670    29.8899     0.9935   427.2000    29.4627    -0.0002
 1337   26.720   8158.76    30.0827     0.3053     0.2415     0.2672    30.1875     1.0164   427.5200    29.7600    -0.0006
 1338   26.740   8159.73    30.2918     0.3178     0.2193     0.2674    30.3899     1.0497   427.8400    29.9620    -0.0011
 1339   26.760   8160.77    30.3836     0.3271     0.2281     0.2676    30.4857     1.0775   428.1600    30.0576    -0.0008
 1340   26.780   8161.77    30.3811     0.3353     0.2510     0.2678    30.4919     1.1048   428.4800    30.0635    -0.0001
 1341   26.800   8162.77    30.4344     0.3384     0.2536     0.2680    30.5370     1.1108   428.8000    30.1082    -0.0008
 1342   26.820   8163.75    30.2325     0.3308     0.2631     0.2682    30.3376     1.0929   429.1200    29.9085    -0.0006
 1343   26.840   8164.78    30.0054     0.3206     0.2494     0.2684    30.1120     1.0672   429.4400    29.6825    -0.0005
 1344   26.860   8165.73    29.7592     0.3183     0.2032     0.2686    29.8526     1.0683   429.7600    29.4228    -0.0016
 1345   26.880   8166.75    29.5475     0.3152     0.2130     0.2688    29.6388     1.0658   430.0800    29.2087    -0.0018
 1346   26.900   8167.73    29.4728     0.3104     0.2464     0.2690    29.5760     1.0518   430.4000    29.1456    -0.0008
 1347   26.920   8168.72    29.3158     0.3116     0.2789     0.2692    29.4288     1.0616   430.7200    28.9981     0.0000
 1348   26.940   8169.72    29.0875     0.3175     0.2939     0.2694    29.2082     1.0899   431.0400    28.7771     0.0006
 1349   26.960   8170.68    28.8128     0.3251     0.2652     0.2696    28.9224     1.1262   431.3600    28.4910    -0.0003
 1350   26.980   8171.68    28.6652     0.3256     0.2589     0.2698    28.7800     1.1357   431.6800    28.3483     0.0001
 1351   27.000   8172.70    28.7092     0.3234     0.2692     0.2700    28.8208     1.1265   432.0000    28.3888    -0.0001
 1352   27.020   8173.69    28.5684     0.3270     0.2759     0.2702    28.6819     1.1418   432.3200    28.2496     0.0000
 1353   27.040   8174.64    28.1462     0.3273     0.2515     0.2704    28.2605     1.1618   432.6400    27.8279     0.0001
 1354   27.060   8175.65    27.3701     0.3223     0.2466     0.2706    27.4794     1.1730   432.9600    27.0464    -0.0004
 1355   27.080   8176.61    26.5853     0.3173     0.2580     0.2708    26.6906     1.1842   433.2800    26.2573    -0.0008
 1356   27.100   8177.55    26.1329     0.3094     0.2622     0.2710    26.2431     1.1806   433.6000    25.8095    -0.0003
 1357   27.120   8178.52    26.0549     0.2929     0.2571     0.2712    26.1692     1.1247   433.9200    25.7353     0.0000
 1358   27.140   8179.55    26.3414     0.2774     0.2439     0.2714    26.4490     1.0553   434.2400    26.0148    -0.0006
 1359   27.160   8189.03    26.6050     0.2644     0.2001     0.2716    26.6954     1.0032   434.5600    26.2608    -0.0021
 1360   27.180   8198.89    26.8694     0.2585     0.1564     0.2718    26.9414     0.9811   434.8800    26.5065    -0.0038
 1361   27.200   8208.76    27.1337     0.2582     0.1204     0.2720    27.1874     0.9640   435.2000    26.7522    -0.0054
 1362   27.220   8210.92    27.3311     0.2542     0.1011     0.2722    27.3755     0.9311   435.5200    26.9400    -0.0062
 1363   27.240   8211.92    27.3041     0.2609     0.1163     0.2724    27.3501     0.9557   435.8400    26.9143    -0.0060
 1364   27.260   8212.98    27.3395     0.2797     0.1490     0.2726    27.3965     1.0227   436.1600    26.9604    -0.0051
 1365   27.280   8213.98    27.2482     0.2954     0.2261     0.2728    27.3264     1.0836   436.4800    26.8899    -0.0032
 1366   27.300   8214.98    27.2811     0.3089     0.2755     0.2730    27.4015     1.1337   436.8000    26.9647     0.0005
 1367   27.320   8215.93    27.6701     0.3209     0.2645     0.2732    27.7797     1.1608   437.1200    27.3426    -0.0005
 1368   27.340   8216.90    28.1082     0.3213     0.2661     0.2734    28.2174     1.1443   437.4400    27.7799    -0.0005
 1369   27.360   8217.92    28.5148     0.3218     0.2641     0.2736    28.6249     1.1304   437.7600    28.1871    -0.0004
 1370   27.380   8218.97    28.7688     0.3281     0.2679     0.2738    28.8836     1.1421   438.0800    28.4456     0.0000
 1371   27.400   8220.00    28.8451     0.3350     0.2736     0.2740    28.9623     1.1602   438.4000    28.5239     0.0002
 1372   27.420   8220.98    28.9372     0.3390     0.2825     0.2742    29.0568     1.1710   438.7200    28.6180     0.0004
 1373   27.440   8221.94    29.0129     0.3424     0.2693     0.2744    29.1303     1.1807   439.0400    28.6913     0.0002
 1374   27.460   8222.91    29.0729     0.3420     0.2726     0.2746    29.1837     1.1772   439.3600    28.7443    -0.0004
 1375   27.480   8223.89    29.0079     0.3430     0.2702     0.2748    29.1216     1.1823   439.6800    28.6819    -0.0001
 1376   27.500   8224.85    28.9488     0.3391     0.2639     0.2750    29.0666     1.1706   440.0000    28.6266     0.0002
 1377   27.520   8225.88    28.9201     0.3381     0.2727     0.2752    29.0314     1.1690   440.3200    28.5911    -0.0004
 1378   27.540   8226.88    28.9070     0.3388     0.2773     0.2754    29.0230     1.1727   440.6400    28.5824     0.0000
 1379   27.560   8227.91    29.1129     0.3377     0.2762     0.2756    29.2259     1.1641   440.9600    28.7850    -0.0002
 1380   27.580   8228.91    29.6023     0.3307     0.2521     0.2758    29.7116     1.1261   441.2800    29.2703    -0.0005
 1381   27.600   8229.96    30.4456     0.3184     0.2755     0.2760    30.5595     1.0514   441.6000    30.1179    -0.0002
 1382   27.620   8230.96    31.1943     0.3077     0.2835     0.2762    31.3124     0.9878   441.9200    30.8704     0.0002
 1383   27.640   8231.95    31.8516     0.3025     0.2784     0.2764    31.9685     0.9510   442.2400    31.5263     0.0001
 1384   27.660   8233.01    32.4555     0.2959     0.2537     0.2766    32.5631     0.9135   442.5600    32.1206    -0.0006
 1385   27.680   8234.04    32.9375     0.2830     0.2458     0.2768    33.0429     0.8598   442.8800    32.6000    -0.0008
 1386   27.700   8235.03    33.0241     0.2705     0.2463     0.2770    33.1263     0.8192   443.2000    32.6831    -0.0010
 1387   27.720   8235.99    32.8902     0.2634     0.2505     0.2772    32.9913     0.8003   443.5200    32.5478    -0.0011
 1388   27.740   8237.02    32.6311     0.2640     0.2690     0.2774    32.7455     0.8080   443.8400    32.3016    -0.0002
 1389   27.760   8238.05    32.3096     0.2680     0.2645     0.2776    32.4216     0.8272   444.1600    31.9774    -0.0003
 1390   27.780   8239.05    31.8353     0.2666     0.2787     0.2778    31.9500     0.8331   444.4800    31.5055    -0.0001
 1391   27.800   8240.03    30.9729     0.2599     0.2803     0.2780    31.0897     0.8293   444.8000    30.6449     0.0000
 1392   27.820   8240.99    29.7645     0.2537     0.2628     0.2782    29.8802     0.8385   445.1200    29.4351    -0.0001
 1393   27.840   8241.95    28.1307     0.2399     0.2606     0.2784    28.2393     0.8340   445.4400    27.7939    -0.0007
 1394   27.860   8242.90    26.2476     0.2149     0.2424     0.2786    26.3520     0.8016   445.7600    25.9062    -0.0012
 1395   27.880   8243.87    24.2509     0.1868     0.2273     0.2788    24.3493     0.7552   446.0800    23.9033    -0.0019
 1396   27.900   8244.80    22.7800     0.1618     0.2229     0.2790    22.8751     0.7041   446.4000    22.4287    -0.0024
 1397   27.920   8245.76    22.1326     0.1422     0.2245     0.2792    22.2260     0.6425   446.7200    21.7793    -0.0026
 1398   27.940   8246.76    22.4704     0.1277     0.2231     0.2794    22.5623     0.5717   447.0400    22.1153    -0.0027
 1399   27.960   8247.76    23.2457     0.1237     0.2232     0.2796    23.3389     0.5357   447.3600    22.8916    -0.0025
 1400   27.980   8248.72    24.1274     0.1231     0.2313     0.2798    24.2229     0.5160   447.6800    23.7753    -0.0022
 1401   28.000   8249.71    25.3521     0.1234     0.2358     0.2800    25.4531     0.4913   448.0000    25.0051    -0.0016
 1402   28.020   8250.72    26.7016     0.1206     0.2553     0.2802    26.8091     0.4564   448.3200    26.3607    -0.0009
 1403   28.040   8251.72    27.5459     0.1223     0.2791     0.2804    27.6610     0.4462   448.6400    27.2124    -0.0002
 1404   28.060   8252.68    27.4964     0.1288     0.2832     0.2806    27.6147     0.4675   448.9600    27.1657     0.0000
 1405   28.080   8253.63    27.0981     0.1312     0.2797     0.2808    27.2185     0.4819   449.2800    26.7692     0.0002
 1406   28.100   8254.66    26.2958     0.1319     0.2790     0.2810    26.4139     0.4963   449.6000    25.9643     0.0000
 1407   28.120   8255.62    25.3343     0.1311     0.2782     0.2812    25.4516     0.5120   449.9200    25.0016    -0.0001
 1408   28.140   8256.57    24.5751     0.1297     0.2701     0.2814    24.6895     0.5233   450.2400    24.2392    -0.0004
 1409   28.160   8257.53    23.7112     0.1257     0.2752     0.2816    23.8244     0.5255   450.5600    23.3739    -0.0005
 1410   28.180   8258.48    22.5655     0.1209     0.2678     0.2818    22.6778     0.5303   450.8800    22.2269    -0.0007
 1411   28.200   8259.45    21.7339     0.1119     0.2867     0.2820    21.8517     0.5110   451.2000    21.4005    -0.0001
 1412   28.220   8260.45    21.2796     0.1051     0.2831     0.2822    21.3990     0.4917   451.5200    20.9475     0.0001
 1413   28.240   8261.40    21.2919     0.1015     0.2844     0.2824    21.4113     0.4776   451.8400    20.9594     0.0001
 1414   28.260   8262.40    21.5405     0.0990     0.2817     0.2826    21.6590     0.4615   452.1600    21.2068     0.0000
 1415   28.280   8263.40    22.0326     0.0953     0.2856     0.2828    22.1522     0.4357   452.4800    21.6998     0.0001
 1416   28.300   8264.33    22.7577     0.0918     0.2813     0.2830    22.8765     0.4057   452.8000    22.4237     0.0000
 1417   28.320   8265.33    23.4088     0.0905     0.2906     0.2832    23.5299     0.3884   453.1200    23.0768     0.0002
 1418   28.340   8266.30    24.0405     0.0899     0.2924     0.2834    24.1611     0.3764   453.4400    23.7077     0.0002
 1419   28.360   8267.31    24.8639     0.0906     0.2933     0.2836    24.9864     0.3675   453.7600    24.5327     0.0003
 1420   28.380   8268.31    25.9942     0.0971     0.2862     0.2838    26.1142     0.3783   454.0800    25.6601     0.0001
 1421   28.400   8269.31    27.1631     0.1035     0.2898     0.2840    27.2863     0.3853   454.4000    26.8319     0.0004
 1422   28.420   8270.29    27.8538     0.1087     0.2889     0.2842    27.9740     0.3915   454.7200    27.5192     0.0001
 1423   28.440   8271.27    28.1984     0.1117     0.2898     0.2844    28.3210     0.3966   455.0400    27.8660     0.0003
 1424   28.460   8272.21    28.2493     0.1185     0.3007     0.2846    28.3730     0.4193   455.3600    27.9176     0.0004
 1425   28.480   8273.17    28.2782     0.1278     0.2877     0.2848    28.3955     0.4527   455.6800    27.9399    -0.0002
 1426   28.500   8274.18    29.3486     0.1403     0.2882     0.2850    29.4699     0.4882   456.0000    29.0139     0.0001
 1427   28.520   8275.22    31.4356     0.1517     0.2888     0.2852    31.5580     0.4988   456.3200    31.1017     0.0002
 1428   28.540   8276.28    34.1446     0.1685     0.2972     0.2854    34.2673     0.5004   456.6400    33.8106     0.0002
 1429   28.560   8277.30    36.4505     0.1870     0.2951     0.2856    36.5761     0.5226   456.9600    36.1191     0.0004
 1430   28.580   8278.33    38.0447     0.2022     0.2920     0.2858    38.1667     0.5389   457.2800    37.7095     0.0001
 1431   28.600   8279.33    39.1746     0.2112     0.2902     0.2860    39.2974     0.5489   457.6000    38.8398     0.0002
 1432   28.620   8280.33    39.5920     0.2117     0.2883     0.2862    39.7151     0.5446   457.9200    39.2572     0.0002
 1433   28.640   8281.36    39.6561     0.2122     0.2940     0.2864    39.7786     0.5402   458.2400    39.3203     0.0001
 1434   28.660   8282.42    39.6179     0.2130     0.2897     0.2866    39.7391     0.5374   458.5600    39.2805     0.0000
 1435   28.680   8283.41    39.2547     0.2089     0.2939     0.2868    39.3790     0.5300   458.8800    38.9201     0.0002
 1436   28.700   8284.40    38.1137     0.2018     0.2759     0.2870    38.2313     0.5227   459.2000    37.7721    -0.0002
 1437   28.720   8286.73    35.6754     0.1924     0.2713     0.2872    35.7900     0.5085   459.5200    35.3305    -0.0004
 1438   28.740   8289.32    33.0984     0.1798     0.2667     0.2874    33.2110     0.4751   459.8400    32.7512    -0.0006
 1439   28.760   8291.91    30.5213     0.1780     0.2599     0.2876    30.6320     0.5274   460.1600    30.1719    -0.0008
 1440   28.780   8293.28    27.4986     0.1901     0.2589     0.2878    27.6049     0.6735   460.4800    27.1444    -0.0013
 1441   28.800   8294.20    23.9989     0.2056     0.2647     0.2880    24.1097     0.8457   460.8000    23.6489    -0.0010
 1442   28.820   8295.14    20.3436     0.2346     0.2712     0.2882    20.4579     1.0835   461.1200    19.9967    -0.0008
 1443   28.840   8296.10    16.2360     0.2554     0.2915     0.2884    16.3511     1.3886   461.4400    15.8897    -0.0009
 1444   28.860   8296.97    12.3935     0.2412     0.2773     0.2886    12.5105     1.7014   461.7600    12.0488    -0.0009
 1445   28.880   8297.86     9.5425     0.2569     0.3175     0.2888     9.6699     2.4535   462.0800     9.2078     0.0017
 1446   28.900   8298.79     8.0434     0.2458     0.3688     0.2890     8.1875     2.9140   462.4000     7.7251     0.0071
 1447   28.920   8299.76     7.5760     0.2160     0.4357     0.2892     7.7459     2.8107   462.7200     7.2832     0.0158
 1448   28.940   8300.71     6.8086     0.1971     0.7223     0.2894     7.0472     2.6188   463.0400     6.5841     0.0426
 1449   28.960   8301.67     5.8831     0.1772     1.2681     0.2896     6.3556     2.2999   463.3600     5.8922     0.1422
 1450   28.980   8302.61     5.8529     0.1573     1.5676     0.2898     6.4930     1.9811   463.6800     6.0293     0.2048
 1451   29.000   8303.57     7.4659     0.1373     1.4239     0.2900     8.1690     1.6622   464.0000     7.7050     0.1797
 1452   29.020   8304.54     9.8168     0.1174     0.5422     0.2902    10.1740     1.3434   464.3200     9.7097     0.0580
 1453   29.040   8305.80    12.1763     0.0762     0.2823     0.2904    12.3021     0.6381   464.6400    11.8374     0.0008
 1454   29.060   8314.69    12.7309     0.0427     0.2326     0.2906    12.8358     0.3513   464.9600    12.3709    -0.0028
 1455   29.080   8323.59    13.2856     0.0376     0.1829     0.2908    13.3696     0.3090   465.2800    12.9043    -0.0063
 1456   29.100   8332.48    13.8402     0.0317     0.1332     0.2910    13.9033     0.2605   465.6000    13.4377    -0.0099
 1457   29.120   8341.38    14.3948     0.0448     0.0835     0.2912    14.4371     0.3686   465.9200    13.9712    -0.0134
 1458   29.140   8345.63    14.3628     0.0780     0.1308     0.2914    14.4144     0.5363   466.2400    13.9482    -0.0121
 1459   29.160   8346.58    13.6117     0.1151     0.1482     0.2916    13.6760     0.8264   466.5600    13.2094    -0.0105
 1460   29.180   8347.49    12.7161     0.1289     0.2019     0.2918    12.7934     0.9857   466.8800    12.3266    -0.0087
 1461   29.200   8348.46    11.7137     0.1204     0.2899     0.2920    11.8175     0.9942   467.2000    11.3503    -0.0039
 1462   29.220   8349.44    11.0231     0.1452     0.3092     0.2922    11.1566     1.2995   467.5200    10.6891     0.0024
 1463   29.240   8350.36    10.8685     0.1671     0.3079     0.2924    10.9975     1.5448   467.8400    10.5297     0.0014
 1464   29.260   8351.34    10.9141     0.1658     0.2620     0.2926    11.0346     1.5077   468.1600    10.5665    -0.0006
 1465   29.280   8352.27    10.6832     0.1601     0.2160     0.2928    10.7795     1.4996   468.4800    10.3111    -0.0061
 1466   29.300   8353.25    11.7497     0.1554     0.1948     0.2930    11.8370     1.3941   468.8000    11.3682    -0.0075
 1467   29.320   8354.24    13.2575     0.1749     0.2279     0.2932    13.3568     1.3841   469.1200    12.8877    -0.0044
 1468   29.340   8355.17    13.7403     0.2243     0.1101     0.2934    13.7894     1.6426   469.4400    13.3200    -0.0132
 1469   29.360   8356.15    12.9585     0.2265    -0.0926     0.2936    12.9226     1.6766   469.7600    12.4529    -0.0305
 1470   29.380   8357.08    10.3143     0.2229    -0.0388     0.2938    10.2964     2.0288   470.0800     9.8263    -0.0342
 1471   29.400   8357.96     8.0702     0.1903     0.0405     0.2940     8.0702     2.2671   470.4000     7.5998    -0.0387
 1472   29.420   8358.89     6.5161     0.1798     0.1964     0.2942     6.5662     2.5521   470.7200     6.0955    -0.0285
 1473   29.440   8359.90     5.6671     0.1629     0.7068     0.2944     5.8971     2.8215   471.0400     5.4260     0.0470
 1474   29.460   8360.83     6.4991                0.7908     0.2946     6.8319              471.3600     6.3605     0.0789
 1475   29.480   8361.90    12.0131                0.8698     0.2948    12.4399              471.6800    11.9683     0.0610
 1476   29.500   8363.02    23.1742                0.2338     0.2950    23.3293              472.0000    22.8573     0.0037
 1477   29.520   8366.10    36.6626                0.0049     0.2952    36.7198              472.3200    36.2475    -0.0044
 1478   29.540   8367.23    45.2507               -0.0177     0.2954    45.2431              472.6400    44.7704    -0.0070
 1479   29.560   8368.37    50.5533                           0.2956    50.5760              472.9600    50.1031    -0.0048
 
 
