

 Program UNIPLOT                         version 05.36.02
 _______________
 (c) Fugro Netherlands Marine, Nootdorp, The Netherlands


 ASCII representation of data plotted on a graph.

 This ASCII file presents data interpolated to values per fixed depth interval.
 The data are corrected for the depth-offset differences between the various 
 transducers in the penetrometer.

 The records at the start of penetration may include no values or anomalous
 values where a depth offset implies incomplete penetration of a particular
 sensor into the ground.

 The records at the end of penetration may include no values for data channels
 where the transducer did not reach this depth.

 The reference level for test values is (1) the ground surface for onshore tests and (2) the seafloor for nearshore and offshore tests.

 UNICAS data file          : CPT-1035.000                            
 Output using command file : PlotASCII.cmd

 ASCII file created at : date          :26-Apr-2022
                         time          :10:11:38
 Project number                        :20024805                                                                                            
 Date of testing                       :22-Apr-2022                                                                                         
 Location                              :Hong Kong Offshore Wind Farm Project                                                                
 Test name                             :CPT-1035
 Penetrometer                          :F7.5CKE2HAW2/B/3342
 Serial no                             :1701-3342

 Table description:
 Column ID                             :Parameter name
 ___________________________________________________________________________________
 Rec                                   :Record ID, Record ID [-]
 Depth                                 :Depth, Depth [m]
 Time                                  :Time, Time [s]
 Cone                                  :Cone Resistance, Cone Resistance [MPa]
 Friction                              :Sleeve Friction, Sleeve Friction [MPa]
 Pore 2                                :Porewater Pressure, Porewater Pressure at Shoulder [MPa]
 HydroPress                            :Hydrostatic Pressure, Hydrostatic Pressure [MPa]
 qt                                    :Total Cone Resistance, Total Cone Resistance [MPa]
 Fric_ratio                            :Friction Ratio, Friction Ratio [%]
 SigmaVert                             :Vertical stress, Vertical stress [kPa] as specified in ground model
 Qnet                                  :Net Cone Resistance, Net Cone Resistance [MPa], unit weight as specified in ground model
 Bq                                    :Porewater Pressure Ratio, Porewater Pressure Ratio [-], unit weight as specified in ground model


 Data table:
  Rec    Depth      Time       Cone   Friction     Pore 2 HydroPress         qt Fric_ratio  SigmaVert       Qnet         Bq
   No        m         s        MPa        MPa        MPa        MPa        MPa          %        kPa        MPa          -
    1    0.000   2065.66     0.0000                           0.0000     0.0000                0.0000     0.0000           
    2    0.020   2066.71     0.0014                0.0003     0.0002     0.0015                0.3200     0.0012     0.1640
    3    0.040   2067.68     0.0015                0.0002     0.0004     0.0016                0.6400     0.0009    -0.1749
    4    0.060   2068.66     0.0023     0.0004     0.0005     0.0006     0.0025    17.3300     0.9600     0.0016    -0.0463
    5    0.080   2069.66     0.0009     0.0005     0.0007     0.0008     0.0012    49.4686     1.2800    -0.0001     1.4129
    6    0.100   2070.63     0.0040     0.0003     0.0010     0.0010     0.0044     8.5083     1.6000     0.0028    -0.0512
    7    0.120   2071.64     0.0025     0.0004     0.0011     0.0012     0.0030    13.7351     1.9200     0.0011    -0.0883
    8    0.140   2072.63     0.0003     0.0005     0.0014     0.0014     0.0008   150.9072     2.2400    -0.0015     0.1828
    9    0.160   2073.63     0.0034     0.0005     0.0012     0.0016     0.0039    12.0686     2.5600     0.0014    -0.2976
   10    0.180   2074.66     0.0049     0.0002     0.0017     0.0018     0.0056     5.5821     2.8800     0.0027    -0.0271
   11    0.200   2075.66     0.0032     0.0005     0.0019     0.0020     0.0040    15.0663     3.2000     0.0008    -0.1227
   12    0.220   2076.61     0.0047     0.0007     0.0022     0.0022     0.0056    13.6679     3.5200     0.0021    -0.0348
   13    0.240   2077.63     0.0093     0.0006     0.0020     0.0024     0.0101     8.7586     3.8400     0.0063    -0.0632
   14    0.260   2078.61     0.0096     0.0006     0.0015     0.0026     0.0103     7.1536     4.1600     0.0062    -0.1467
   15    0.280   2079.61     0.0099     0.0007     0.0008     0.0028     0.0103     7.6281     4.4800     0.0058    -0.3303
   16    0.300   2080.58     0.0097     0.0010     0.0001     0.0030     0.0098    10.9547     4.8000     0.0050    -0.5593
   17    0.320   2081.54     0.0092     0.0014     0.0010     0.0032     0.0095    14.8788     5.1200     0.0043    -0.6035
   18    0.340   2082.54     0.0102     0.0016     0.0015     0.0034     0.0108    16.1897     5.4400     0.0054    -0.3478
   19    0.360   2083.56     0.0149     0.0012     0.0025     0.0036     0.0158     9.3189     5.7600     0.0100    -0.1470
   20    0.380   2084.53     0.0139     0.0014     0.0024     0.0038     0.0149     9.9163     6.0800     0.0088    -0.1611
   21    0.400   2092.42     0.0140     0.0017     0.0021     0.0040     0.0149    11.2475     6.4000     0.0085    -0.4905
   22    0.420   2112.85     0.0107     0.0017     0.0018     0.0042     0.0115    11.1474     6.7200     0.0048    -1.4287
   23    0.440   2132.18     0.0074     0.0014     0.0017     0.0044     0.0081    16.2966     7.0400     0.0010    -1.4846
   24    0.460   2133.18     0.0083     0.0016     0.0016     0.0046     0.0090    21.6856     7.3600     0.0017    -2.2386
   25    0.480   2134.16     0.0051     0.0018     0.0021     0.0048     0.0061    27.9855     7.6800    -0.0016     1.4515
   26    0.500   2135.16     0.0080     0.0017     0.0034     0.0050     0.0092    21.5493     8.0000     0.0012    -2.0832
   27    0.520   2136.16     0.0091     0.0017     0.0049     0.0052     0.0111    17.2865     8.3200     0.0028    -0.1994
   28    0.540   2137.15     0.0115     0.0015     0.0057     0.0054     0.0136    14.9035     8.6400     0.0050    -0.0857
   29    0.560   2138.11     0.0122     0.0015     0.0068     0.0056     0.0148    12.6625     8.9600     0.0058     0.1186
   30    0.580   2139.09     0.0108     0.0015     0.0066     0.0058     0.0134    12.7864     9.2800     0.0041     0.0907
   31    0.600   2140.08     0.0152     0.0015     0.0065     0.0060     0.0181    11.6514     9.6000     0.0085     0.1111
   32    0.620   2141.04     0.0164     0.0023     0.0061     0.0062     0.0189    13.6391     9.9200     0.0090    -0.0203
   33    0.640   2142.03     0.0195     0.0020     0.0058     0.0064     0.0221    10.2753    10.2400     0.0119    -0.0068
   34    0.660   2143.03     0.0185     0.0019     0.0041     0.0066     0.0203     9.6928    10.5600     0.0097    -0.2391
   35    0.680   2144.01     0.0159     0.0019     0.0045     0.0068     0.0177    11.7822    10.8800     0.0069    -0.3635
   36    0.700   2144.99     0.0190     0.0022     0.0046     0.0070     0.0208    12.0175    11.2000     0.0096    -0.2687
   37    0.720   2145.98     0.0136     0.0021     0.0068     0.0072     0.0161    14.1442    11.5200     0.0045    -0.5237
   38    0.740   2147.00     0.0166     0.0023     0.0081     0.0074     0.0199    13.6526    11.8400     0.0081     0.0515
   39    0.760   2147.95     0.0159     0.0018     0.0084     0.0076     0.0195    11.1529    12.1600     0.0073     0.1125
   40    0.780   2148.96     0.0195     0.0022     0.0083     0.0078     0.0230    10.9921    12.4800     0.0105     0.0627
   41    0.800   2149.93     0.0173     0.0024     0.0081     0.0080     0.0207    12.9852    12.8000     0.0079     0.0230
   42    0.820   2150.89     0.0172     0.0022     0.0081     0.0082     0.0205    12.4384    13.1200     0.0074    -0.0384
   43    0.840   2151.90     0.0141     0.0022     0.0083     0.0084     0.0176    14.9187    13.4400     0.0041    -0.0534
   44    0.860   2152.87     0.0146     0.0022     0.0097     0.0086     0.0186    16.3958    13.7600     0.0048     0.1942
   45    0.880   2153.87     0.0124     0.0021     0.0113     0.0088     0.0170    16.0468    14.0800     0.0029     0.7541
   46    0.900   2154.82     0.0123     0.0016     0.0120     0.0090     0.0173    12.2946    14.4000     0.0029     1.1861
   47    0.920   2155.82     0.0138     0.0019     0.0126     0.0092     0.0190    12.8260    14.7200     0.0043     0.7857
   48    0.940   2156.80     0.0115     0.0018     0.0131     0.0094     0.0169    14.7589    15.0400     0.0018     2.3584
   49    0.960   2157.80     0.0126     0.0022     0.0137     0.0096     0.0185    17.0191    15.3600     0.0031     1.4156
   50    0.980   2158.77     0.0112     0.0018     0.0135     0.0098     0.0170    16.5818    15.6800     0.0013     3.2101
   51    1.000   2159.78     0.0173     0.0017     0.0146     0.0100     0.0232     9.8921    16.0000     0.0072     0.5885
   52    1.020   2160.74     0.0155     0.0021     0.0139     0.0102     0.0215    13.6187    16.3200     0.0051     0.7585
   53    1.040   2161.72     0.0166     0.0021     0.0134     0.0104     0.0223    12.6894    16.6400     0.0056     0.5659
   54    1.060   2162.70     0.0129     0.0020     0.0143     0.0106     0.0187    15.4720    16.9600     0.0018     2.0196
   55    1.080   2163.72     0.0163     0.0022     0.0151     0.0108     0.0225    13.9334    17.2800     0.0053     0.7857
   56    1.100   2164.69     0.0154     0.0022     0.0162     0.0110     0.0219    13.8449    17.6000     0.0043     1.1065
   57    1.120   2165.69     0.0156     0.0022     0.0155     0.0112     0.0224    13.3821    17.9200     0.0044     1.1329
   58    1.140   2166.64     0.0188     0.0022     0.0153     0.0114     0.0252    11.9760    18.2400     0.0069     0.5501
   59    1.160   2167.63     0.0205     0.0022     0.0151     0.0116     0.0267    11.1772    18.5600     0.0082     0.3921
   60    1.180   2168.67     0.0187     0.0024     0.0153     0.0118     0.0248    12.6009    18.8800     0.0059     0.4568
   61    1.200   2169.64     0.0219     0.0020     0.0164     0.0120     0.0289     9.4676    19.2000     0.0097     0.4858
   62    1.220   2170.59     0.0230     0.0021     0.0178     0.0122     0.0304     9.8768    19.5200     0.0109     0.4937
   63    1.240   2171.58     0.0232     0.0025     0.0188     0.0124     0.0310    11.6075    19.8400     0.0111     0.5524
   64    1.260   2172.60     0.0273     0.0023     0.0196     0.0126     0.0354     9.0298    20.1600     0.0153     0.4428
   65    1.280   2173.58     0.0273     0.0020     0.0208     0.0128     0.0361     7.4256    20.4800     0.0156     0.5184
   66    1.300   2174.55     0.0320     0.0024     0.0204     0.0130     0.0406     7.7417    20.8000     0.0198     0.3791
   67    1.320   2175.53     0.0364     0.0024     0.0198     0.0132     0.0449     6.5849    21.1200     0.0238     0.2971
   68    1.340   2176.50     0.0342     0.0024     0.0198     0.0134     0.0424     6.6700    21.4400     0.0210     0.2994
   69    1.360   2177.49     0.0361     0.0028     0.0201     0.0136     0.0445     8.3108    21.7600     0.0228     0.2900
   70    1.380   2178.46     0.0405     0.0025     0.0199     0.0138     0.0488     6.4136    22.0800     0.0267     0.2189
   71    1.400   2179.45     0.0425     0.0027     0.0199     0.0140     0.0510     6.2487    22.4000     0.0286     0.2182
   72    1.420   2180.44     0.0373     0.0028     0.0178     0.0142     0.0451     7.3696    22.7200     0.0224     0.1970
   73    1.440   2181.42     0.0381     0.0031     0.0176     0.0144     0.0455     8.0557    23.0400     0.0225     0.1405
   74    1.460   2182.40     0.0367     0.0027     0.0177     0.0146     0.0442     7.1056    23.3600     0.0208     0.1526
   75    1.480   2183.38     0.0381     0.0026     0.0215     0.0148     0.0466     7.2147    23.6800     0.0229     0.2334
   76    1.500   2184.37     0.0423     0.0030     0.0240     0.0150     0.0522     7.2489    24.0000     0.0282     0.3048
   77    1.520   2185.35     0.0427     0.0028     0.0237     0.0152     0.0526     6.7929    24.3200     0.0283     0.2980
   78    1.540   2186.33     0.0428     0.0030     0.0246     0.0154     0.0531     6.8807    24.6400     0.0285     0.3230
   79    1.560   2187.33     0.0453     0.0031     0.0221     0.0156     0.0552     6.7756    24.9600     0.0302     0.2614
   80    1.580   2188.31     0.0438     0.0029     0.0191     0.0158     0.0519     6.7320    25.2800     0.0267     0.1356
   81    1.600   2189.30     0.0394     0.0029     0.0201     0.0160     0.0474     6.9935    25.6000     0.0218     0.1394
   82    1.620   2190.30     0.0407     0.0031     0.0216     0.0162     0.0497     7.4739    25.9200     0.0237     0.2170
   83    1.640   2191.29     0.0381     0.0027     0.0232     0.0164     0.0475     6.8683    26.2400     0.0212     0.2859
   84    1.660   2192.28     0.0384     0.0029     0.0255     0.0166     0.0488     7.5188    26.5600     0.0223     0.3687
   85    1.680   2193.26     0.0366     0.0024     0.0273     0.0168     0.0479     6.5816    26.8800     0.0210     0.4842
   86    1.700   2194.24     0.0346     0.0024     0.0281     0.0170     0.0459     6.9687    27.2000     0.0187     0.5372
   87    1.720   2195.25     0.0355     0.0027     0.0292     0.0172     0.0476     7.3279    27.5200     0.0201     0.5840
   88    1.740   2196.22     0.0338     0.0023     0.0308     0.0174     0.0466     6.8213    27.8400     0.0187     0.6966
   89    1.760   2197.18     0.0320     0.0021     0.0315     0.0176     0.0450     6.5954    28.1600     0.0168     0.7981
   90    1.780   2198.23     0.0303     0.0020     0.0315     0.0178     0.0435     6.8453    28.4800     0.0151     0.9099
   91    1.800   2199.18     0.0312     0.0021     0.0332     0.0180     0.0448     6.5988    28.8000     0.0160     0.8985
   92    1.820   2200.15     0.0314     0.0025     0.0347     0.0182     0.0458     8.0483    29.1200     0.0167     0.9617
   93    1.840   2201.11     0.0358     0.0022     0.0355     0.0184     0.0504     6.6221    29.4400     0.0210     0.7884
   94    1.860   2202.11     0.0448     0.0023     0.0367     0.0186     0.0601     5.2653    29.7600     0.0304     0.5878
   95    1.880   2203.10     0.0477     0.0025     0.0363     0.0188     0.0629     5.4927    30.0800     0.0328     0.5317
   96    1.900   2204.07     0.0526     0.0023     0.0376     0.0190     0.0682     4.4558    30.4000     0.0378     0.4816
   97    1.920   2205.06     0.0571     0.0022     0.0417     0.0192     0.0739     3.8730    30.7200     0.0432     0.4832
   98    1.940   2206.04     0.0570     0.0022     0.0401     0.0194     0.0741     3.8744    31.0400     0.0430     0.4934
   99    1.960   2207.05     0.0595     0.0027     0.0418     0.0196     0.0766     4.5962    31.3600     0.0452     0.4679
  100    1.980   2207.98     0.0611     0.0026     0.0458     0.0198     0.0798     4.3745    31.6800     0.0481     0.5109
  101    2.000   2209.01     0.0665     0.0029     0.0472     0.0200     0.0863     4.3830    32.0000     0.0543     0.4988
  102    2.020   2209.96     0.0735     0.0027     0.0417     0.0202     0.0920     3.7787    32.3200     0.0597     0.4005
  103    2.040   2210.97     0.0719     0.0029     0.0373     0.0204     0.0882     3.9775    32.6400     0.0555     0.3291
  104    2.060   2211.96     0.0656     0.0031     0.0394     0.0206     0.0815     4.6768    32.9600     0.0485     0.3550
  105    2.080   2212.92     0.0633     0.0031     0.0439     0.0208     0.0812     5.0002    33.2800     0.0479     0.4515
  106    2.100   2213.90     0.0652     0.0031     0.0468     0.0210     0.0844     4.8588    33.6000     0.0508     0.4832
  107    2.120   2214.93     0.0691     0.0033     0.0515     0.0212     0.0901     4.8993    33.9200     0.0562     0.5133
  108    2.140   2215.91     0.0737     0.0036     0.0541     0.0214     0.0962     4.8992    34.2400     0.0620     0.5182
  109    2.160   2216.91     0.0754     0.0033     0.0533     0.0216     0.0981     4.3854    34.5600     0.0635     0.5101
  110    2.180   2217.88     0.0748     0.0030     0.0519     0.0218     0.0964     4.0338    34.8800     0.0615     0.4791
  111    2.200   2218.88     0.0753     0.0033     0.0515     0.0220     0.0972     4.2574    35.2000     0.0620     0.4867
  112    2.220   2219.84     0.0760     0.0036     0.0526     0.0222     0.0977     4.7592    35.5200     0.0622     0.4753
  113    2.240   2220.84     0.0772     0.0035     0.0561     0.0224     0.1003     4.4735    35.8400     0.0644     0.5035
  114    2.260   2221.83     0.0724     0.0037     0.0553     0.0226     0.0961     5.0318    36.1600     0.0599     0.5643
  115    2.280   2222.80     0.0721     0.0034     0.0545     0.0228     0.0951     4.7358    36.4800     0.0586     0.5451
  116    2.300   2223.79     0.0727     0.0033     0.0539     0.0230     0.0953     4.4427    36.8000     0.0585     0.5256
  117    2.320   2224.79     0.0724     0.0037     0.0557     0.0232     0.0956     5.1005    37.1200     0.0584     0.5468
  118    2.340   2225.76     0.0772     0.0033     0.0568     0.0234     0.1010     4.2928    37.4400     0.0636     0.5238
  119    2.360   2226.77     0.0805     0.0032     0.0611     0.0236     0.1056     3.9918    37.7600     0.0678     0.5306
  120    2.380   2227.71     0.0832     0.0036     0.0639     0.0238     0.1095     4.4225    38.0800     0.0714     0.5415
  121    2.400   2228.72     0.0888     0.0036     0.0653     0.0240     0.1161     4.1451    38.4000     0.0777     0.5305
  122    2.420   2229.70     0.0963     0.0038     0.0657     0.0242     0.1238     4.0687    38.7200     0.0850     0.4841
  123    2.440   2230.69     0.0986     0.0039     0.0617     0.0244     0.1257     3.9924    39.0400     0.0867     0.4622
  124    2.460   2231.69     0.0944     0.0039     0.0564     0.0246     0.1192     4.1003    39.3600     0.0798     0.4303
  125    2.480   2232.66     0.0890     0.0034     0.0533     0.0248     0.1113     3.7200    39.6800     0.0717     0.3957
  126    2.500   2233.64     0.0870     0.0035     0.0541     0.0250     0.1097     3.9966    40.0000     0.0697     0.4177
  127    2.520   2245.74     0.0841     0.0033     0.0540     0.0252     0.1068     3.7707    40.3200     0.0665     0.4355
  128    2.540   2257.96     0.0812     0.0027     0.0540     0.0254     0.1039     3.1597    40.6400     0.0633     0.4535
  129    2.560   2266.93     0.0765     0.0025     0.0516     0.0256     0.0988     3.1655    40.9600     0.0579     0.4758
  130    2.580   2267.91     0.0715     0.0025     0.0440     0.0258     0.0910     3.5896    41.2800     0.0498     0.4160
  131    2.600   2268.93     0.0737     0.0021     0.0396     0.0260     0.0907     2.8263    41.6000     0.0491     0.2960
  132    2.620   2269.92     0.0699     0.0025     0.0388     0.0262     0.0867     3.6376    41.9200     0.0447     0.3089
  133    2.640   2270.88     0.0710     0.0025     0.0352     0.0264     0.0863     3.4362    42.2400     0.0441     0.2303
  134    2.660   2271.87     0.0658     0.0024     0.0296     0.0266     0.0789     3.7552    42.5600     0.0364     0.1284
  135    2.680   2272.84     0.0714     0.0025     0.0315     0.0268     0.0844     3.5659    42.8800     0.0415     0.0979
  136    2.700   2273.82     0.0768     0.0024     0.0364     0.0270     0.0909     3.1213    43.2000     0.0477     0.1404
  137    2.720   2274.82     0.0775     0.0023     0.0409     0.0272     0.0944     2.9975    43.5200     0.0509     0.2542
  138    2.740   2275.80     0.0749     0.0025     0.0354     0.0274     0.0908     3.2889    43.8400     0.0470     0.2234
  139    2.760   2276.77     0.0734     0.0024     0.0327     0.0276     0.0880     3.2082    44.1600     0.0438     0.1614
  140    2.780   2277.77     0.0717     0.0024     0.0354     0.0278     0.0838     3.3025    44.4800     0.0393     0.0314
  141    2.800   2278.70     0.0608     0.0025     0.0333     0.0280     0.0755     4.0367    44.8000     0.0307     0.2284
  142    2.820   2279.70     0.0761     0.0023     0.0337     0.0282     0.0901     3.2248    45.1200     0.0449     0.1126
  143    2.840   2280.67     0.0864     0.0020     0.0392     0.0284     0.1024     2.3780    45.4400     0.0570     0.1725
  144    2.860   2281.65     0.0847     0.0023     0.0361     0.0286     0.1014     2.6757    45.7600     0.0556     0.2011
  145    2.880   2282.62     0.0886     0.0026     0.0350     0.0288     0.1017     2.9500    46.0800     0.0556     0.0420
  146    2.900   2283.60     0.1026     0.0026     0.0419     0.0290     0.1196     2.5973    46.4000     0.0732     0.1558
  147    2.920   2284.60     0.1108     0.0029     0.0458     0.0292     0.1300     2.6625    46.7200     0.0833     0.1970
  148    2.940   2285.57     0.1185     0.0031     0.0486     0.0294     0.1384     2.7213    47.0400     0.0914     0.1975
  149    2.960   2286.57     0.1145     0.0035     0.0483     0.0296     0.1344     3.0641    47.3600     0.0871     0.2040
  150    2.980   2287.53     0.1197     0.0039     0.0518     0.0298     0.1409     3.3081    47.6800     0.0932     0.2203
  151    3.000   2288.52     0.1189     0.0040     0.0544     0.0300     0.1418     3.3632    48.0000     0.0938     0.2606
  152    3.020   2289.51     0.1246     0.0043     0.0502     0.0302     0.1464     3.3853    48.3200     0.0981     0.2225
  153    3.040   2290.45     0.1203     0.0043     0.0458     0.0304     0.1397     3.5394    48.6400     0.0911     0.1751
  154    3.060   2291.43     0.1165     0.0045     0.0462     0.0306     0.1361     3.7296    48.9600     0.0872     0.1858
  155    3.080   2292.40     0.1075     0.0043     0.0468     0.0308     0.1268     3.9336    49.2800     0.0775     0.1950
  156    3.100   2293.39     0.1002     0.0043     0.0511     0.0310     0.1210     4.2911    49.6000     0.0714     0.2608
  157    3.120   2294.38     0.0970     0.0041     0.0551     0.0312     0.1195     4.1980    49.9200     0.0695     0.3201
  158    3.140   2295.37     0.1012     0.0038     0.0624     0.0314     0.1263     3.8173    50.2400     0.0760     0.3731
  159    3.160   2296.32     0.1061     0.0039     0.0697     0.0316     0.1344     3.7513    50.5600     0.0839     0.4258
  160    3.180   2297.34     0.1152     0.0041     0.0741     0.0318     0.1458     3.5776    50.8800     0.0949     0.4304
  161    3.200   2298.32     0.1173     0.0038     0.0713     0.0320     0.1479     3.2653    51.2000     0.0967     0.4218
  162    3.220   2299.31     0.1166     0.0038     0.0725     0.0322     0.1464     3.2828    51.5200     0.0949     0.4086
  163    3.240   2300.26     0.1183     0.0038     0.0741     0.0324     0.1493     3.2087    51.8400     0.0974     0.4253
  164    3.260   2301.26     0.1208     0.0038     0.0743     0.0326     0.1520     3.1905    52.1600     0.0999     0.4174
  165    3.280   2302.23     0.1224     0.0037     0.0748     0.0328     0.1536     2.9689    52.4800     0.1011     0.4103
  166    3.300   2303.21     0.1162     0.0034     0.0742     0.0330     0.1475     2.8816    52.8000     0.0947     0.4386
  167    3.320   2304.17     0.1125     0.0040     0.0732     0.0332     0.1431     3.4770    53.1200     0.0900     0.4420
  168    3.340   2305.17     0.1076     0.0035     0.0713     0.0334     0.1373     3.2402    53.4400     0.0839     0.4453
  169    3.360   2306.19     0.1102     0.0038     0.0733     0.0336     0.1408     3.5031    53.7600     0.0870     0.4508
  170    3.380   2307.11     0.1082     0.0035     0.0746     0.0338     0.1391     3.2472    54.0800     0.0850     0.4690
  171    3.400   2308.11     0.1059     0.0033     0.0760     0.0340     0.1375     3.1044    54.4000     0.0831     0.4963
  172    3.420   2309.08     0.1063     0.0029     0.0795     0.0342     0.1392     2.7677    54.7200     0.0845     0.5218
  173    3.440   2310.06     0.1085     0.0031     0.0811     0.0344     0.1423     2.9072    55.0400     0.0873     0.5295
  174    3.460   2311.05     0.1114     0.0033     0.0800     0.0346     0.1453     2.9603    55.3600     0.0899     0.5120
  175    3.480   2312.04     0.1114     0.0035     0.0793     0.0348     0.1448     3.1540    55.6800     0.0891     0.5018
  176    3.500   2313.06     0.1112     0.0035     0.0721     0.0350     0.1426     3.1611    56.0000     0.0866     0.4589
  177    3.520   2314.02     0.1130     0.0036     0.0652     0.0352     0.1411     3.1876    56.3200     0.0848     0.3758
  178    3.540   2315.01     0.1124     0.0035     0.0639     0.0354     0.1392     3.0931    56.6400     0.0825     0.3444
  179    3.560   2315.96     0.1175     0.0039     0.0667     0.0356     0.1449     3.3848    56.9600     0.0880     0.3384
  180    3.580   2316.95     0.1281     0.0039     0.0697     0.0358     0.1570     3.1098    57.2800     0.0997     0.3317
  181    3.600   2317.93     0.1345     0.0032     0.0688     0.0360     0.1638     2.4325    57.6000     0.1062     0.3184
  182    3.620   2318.89     0.1355     0.0037     0.0663     0.0362     0.1636     2.7376    57.9200     0.1057     0.2904
  183    3.640   2319.86     0.1346     0.0037     0.0706     0.0364     0.1632     2.7732    58.2400     0.1049     0.3017
  184    3.660   2320.86     0.1330     0.0037     0.0770     0.0366     0.1645     2.7834    58.5600     0.1060     0.3623
  185    3.680   2321.82     0.1346     0.0035     0.0815     0.0368     0.1684     2.6070    58.8800     0.1095     0.3971
  186    3.700   2322.83     0.1410     0.0031     0.0836     0.0370     0.1761     2.2233    59.2000     0.1169     0.3990
  187    3.720   2323.80     0.1445     0.0033     0.0841     0.0372     0.1800     2.3292    59.5200     0.1205     0.3926
  188    3.740   2324.76     0.1469     0.0036     0.0838     0.0374     0.1822     2.4602    59.8400     0.1224     0.3807
  189    3.760   2325.76     0.1454     0.0039     0.0818     0.0376     0.1800     2.6412    60.1600     0.1198     0.3730
  190    3.780   2326.71     0.1457     0.0038     0.0746     0.0378     0.1786     2.6063    60.4800     0.1181     0.3419
  191    3.800   2327.71     0.1387     0.0038     0.0673     0.0380     0.1678     2.7293    60.8000     0.1070     0.2926
  192    3.820   2328.68     0.1324     0.0040     0.0664     0.0382     0.1599     2.9386    61.1200     0.0987     0.2752
  193    3.840   2329.70     0.1307     0.0040     0.0714     0.0384     0.1596     3.1215    61.4400     0.0981     0.3095
  194    3.860   2330.63     0.1436     0.0036     0.0769     0.0386     0.1744     2.6084    61.7600     0.1126     0.3073
  195    3.880   2331.65     0.1568     0.0027     0.0820     0.0388     0.1910     1.7513    62.0800     0.1290     0.3305
  196    3.900   2332.62     0.1657     0.0026     0.0780     0.0390     0.2008     1.6144    62.4000     0.1384     0.3221
  197    3.920   2333.60     0.1679     0.0027     0.0715     0.0392     0.1982     1.5811    62.7200     0.1355     0.2429
  198    3.940   2334.57     0.1665     0.0032     0.0665     0.0394     0.1956     1.9034    63.0400     0.1326     0.2249
  199    3.960   2335.54     0.1639     0.0039     0.0606     0.0396     0.1901     2.3523    63.3600     0.1267     0.1802
  200    3.980   2336.49     0.1709     0.0039     0.0542     0.0398     0.1944     2.2825    63.6800     0.1307     0.1237
  201    4.000   2337.47     0.1776     0.0046     0.0570     0.0400     0.2008     2.6205    64.0000     0.1368     0.1105
  202    4.020   2338.44     0.1912     0.0046     0.0616     0.0402     0.2166     2.4716    64.3200     0.1523     0.1328
  203    4.040   2339.47     0.2054     0.0054     0.0656     0.0404     0.2323     2.6306    64.6400     0.1677     0.1412
  204    4.060   2340.43     0.2107     0.0056     0.0672     0.0406     0.2390     2.6604    64.9600     0.1741     0.1539
  205    4.080   2341.42     0.2124     0.0063     0.0616     0.0408     0.2393     2.9900    65.2800     0.1740     0.1336
  206    4.100   2342.39     0.2143     0.0061     0.0555     0.0410     0.2384     2.8432    65.6000     0.1728     0.0949
  207    4.120   2343.39     0.2153     0.0063     0.0503     0.0412     0.2371     2.9579    65.9200     0.1712     0.0620
  208    4.140   2344.37     0.2101     0.0063     0.0516     0.0414     0.2314     3.0273    66.2400     0.1651     0.0558
  209    4.160   2345.35     0.2140     0.0059     0.0587     0.0416     0.2376     2.7933    66.5600     0.1710     0.0844
  210    4.180   2346.29     0.2194     0.0055     0.0660     0.0418     0.2464     2.4973    66.8800     0.1795     0.1258
  211    4.200   2347.31     0.2240     0.0055     0.0608     0.0420     0.2503     2.4382    67.2000     0.1831     0.1128
  212    4.220   2348.29     0.2252     0.0053     0.0562     0.0422     0.2493     2.3500    67.5200     0.1817     0.0837
  213    4.240   2349.27     0.2308     0.0059     0.0531     0.0424     0.2536     2.5970    67.8400     0.1858     0.0646
  214    4.260   2350.24     0.2283     0.0069     0.0506     0.0426     0.2499     3.0323    68.1600     0.1817     0.0482
  215    4.280   2351.25     0.2260     0.0072     0.0506     0.0428     0.2470     3.1629    68.4800     0.1785     0.0395
  216    4.300   2352.24     0.2190     0.0060     0.0546     0.0430     0.2416     2.7523    68.8000     0.1728     0.0624
  217    4.320   2353.25     0.2171     0.0054     0.0589     0.0432     0.2411     2.4278    69.1200     0.1720     0.0806
  218    4.340   2355.37     0.2103     0.0052     0.0654     0.0434     0.2366     2.4685    69.4400     0.1672     0.1149
  219    4.360   2374.10     0.2084     0.0050     0.0736     0.0436     0.2381     2.3673    69.7600     0.1684     0.1610
  220    4.380   2390.77     0.2069     0.0047     0.0768     0.0438     0.2395     2.2883    70.0800     0.1694     0.1999
  221    4.400   2391.77     0.2087     0.0053     0.0691     0.0440     0.2393     2.5729    70.4000     0.1689     0.1702
  222    4.420   2392.79     0.2151     0.0054     0.0658     0.0442     0.2430     2.5047    70.7200     0.1723     0.1297
  223    4.440   2393.74     0.2177     0.0051     0.0629     0.0444     0.2447     2.3448    71.0400     0.1736     0.1143
  224    4.460   2394.75     0.2202     0.0056     0.0593     0.0446     0.2456     2.5577    71.3600     0.1742     0.0907
  225    4.480   2395.77     0.2226     0.0063     0.0583     0.0448     0.2471     2.8106    71.6800     0.1754     0.0779
  226    4.500   2396.77     0.2237     0.0063     0.0570     0.0450     0.2479     2.8065    72.0000     0.1759     0.0719
  227    4.520   2397.75     0.2240     0.0065     0.0526     0.0452     0.2467     2.8919    72.3200     0.1743     0.0502
  228    4.540   2398.72     0.2288     0.0066     0.0483     0.0454     0.2498     2.8762    72.6400     0.1771     0.0260
  229    4.560   2399.70     0.2258     0.0067     0.0448     0.0456     0.2452     2.9657    72.9600     0.1722     0.0036
  230    4.580   2400.67     0.2226     0.0067     0.0422     0.0458     0.2406     2.9874    73.2800     0.1673    -0.0178
  231    4.600   2401.69     0.2235     0.0066     0.0424     0.0460     0.2410     2.9483    73.6000     0.1674    -0.0270
  232    4.620   2402.68     0.2220     0.0069     0.0461     0.0462     0.2404     3.1006    73.9200     0.1665    -0.0135
  233    4.640   2403.67     0.2269     0.0068     0.0520     0.0464     0.2480     3.0091    74.2400     0.1737     0.0224
  234    4.660   2404.65     0.2185     0.0065     0.0567     0.0466     0.2418     2.9561    74.5600     0.1673     0.0535
  235    4.680   2405.67     0.2096     0.0064     0.0603     0.0468     0.2344     3.0188    74.8800     0.1595     0.0766
  236    4.700   2406.63     0.2095     0.0060     0.0641     0.0470     0.2360     2.8460    75.2000     0.1608     0.1006
  237    4.720   2407.63     0.2066     0.0058     0.0658     0.0472     0.2339     2.8157    75.5200     0.1583     0.1121
  238    4.740   2408.59     0.2030     0.0056     0.0693     0.0474     0.2316     2.7536    75.8400     0.1558     0.1330
  239    4.760   2409.63     0.2010     0.0053     0.0724     0.0476     0.2312     2.5987    76.1600     0.1550     0.1558
  240    4.780   2410.61     0.2024     0.0054     0.0737     0.0478     0.2334     2.6567    76.4800     0.1569     0.1658
  241    4.800   2411.58     0.2071     0.0054     0.0741     0.0480     0.2383     2.6104    76.8000     0.1615     0.1622
  242    4.820   2412.52     0.2044     0.0051     0.0763     0.0482     0.2360     2.4856    77.1200     0.1589     0.1702
  243    4.840   2413.50     0.1968     0.0052     0.0755     0.0484     0.2288     2.6236    77.4400     0.1514     0.1829
  244    4.860   2414.50     0.1985     0.0051     0.0757     0.0486     0.2302     2.5517    77.7600     0.1524     0.1759
  245    4.880   2415.46     0.1965     0.0051     0.0768     0.0488     0.2286     2.5281    78.0800     0.1505     0.1830
  246    4.900   2416.43     0.1925     0.0046     0.0785     0.0490     0.2253     2.3838    78.4000     0.1469     0.1975
  247    4.920   2417.43     0.1862     0.0045     0.0773     0.0492     0.2191     2.4119    78.7200     0.1404     0.2077
  248    4.940   2418.39     0.1838     0.0040     0.0763     0.0494     0.2156     2.1637    79.0400     0.1366     0.1925
  249    4.960   2419.37     0.1790     0.0036     0.0777     0.0496     0.2115     2.0293    79.3600     0.1321     0.2090
  250    4.980   2420.31     0.1751     0.0036     0.0799     0.0498     0.2081     2.0616    79.6800     0.1284     0.2247
  251    5.000   2421.28     0.1800     0.0035     0.0835     0.0500     0.2145     1.9640    80.0000     0.1345     0.2382
  252    5.020   2422.29     0.1798     0.0036     0.0866     0.0502     0.2156     1.9775    80.3200     0.1353     0.2586
  253    5.040   2423.27     0.1811     0.0033     0.0897     0.0504     0.2185     1.8180    80.6400     0.1379     0.2800
  254    5.060   2424.21     0.1791     0.0035     0.0911     0.0506     0.2171     1.9519    80.9600     0.1362     0.2932
  255    5.080   2425.19     0.1760     0.0037     0.0935     0.0508     0.2149     2.1083    81.2800     0.1336     0.3119
  256    5.100   2426.13     0.1797     0.0038     0.0961     0.0510     0.2198     2.1341    81.6000     0.1382     0.3211
  257    5.120   2427.12     0.1793     0.0043     0.0992     0.0512     0.2205     2.3912    81.9200     0.1385     0.3385
  258    5.140   2428.13     0.1769     0.0047     0.1014     0.0514     0.2193     2.6651    82.2400     0.1370     0.3604
  259    5.160   2429.05     0.1790     0.0045     0.1032     0.0516     0.2222     2.5238    82.5600     0.1396     0.3669
  260    5.180   2430.08     0.1796     0.0045     0.1057     0.0518     0.2235     2.5134    82.8800     0.1406     0.3753
  261    5.200   2431.08     0.1848     0.0041     0.1076     0.0520     0.2299     2.2432    83.2000     0.1467     0.3774
  262    5.220   2432.06     0.1882     0.0045     0.1100     0.0522     0.2342     2.4005    83.5200     0.1507     0.3798
  263    5.240   2432.99     0.1882     0.0045     0.1099     0.0524     0.2341     2.3996    83.8400     0.1503     0.3792
  264    5.260   2434.00     0.1895     0.0048     0.1115     0.0526     0.2361     2.5829    84.1600     0.1519     0.3846
  265    5.280   2434.98     0.1894     0.0049     0.1128     0.0528     0.2370     2.5789    84.4800     0.1526     0.3968
  266    5.300   2435.92     0.1937     0.0052     0.1097     0.0530     0.2401     2.6681    84.8000     0.1553     0.3700
  267    5.320   2436.92     0.1915     0.0045     0.1079     0.0532     0.2370     2.3467    85.1200     0.1518     0.3622
  268    5.340   2437.88     0.1927     0.0047     0.1073     0.0534     0.2379     2.4228    85.4400     0.1524     0.3553
  269    5.360   2438.86     0.1893     0.0047     0.1090     0.0536     0.2347     2.4566    85.7600     0.1490     0.3658
  270    5.380   2439.83     0.1879     0.0047     0.1137     0.0538     0.2350     2.4977    86.0800     0.1489     0.3923
  271    5.400   2440.81     0.1894     0.0044     0.1179     0.0540     0.2385     2.3580    86.4000     0.1521     0.4133
  272    5.420   2441.80     0.1934     0.0043     0.1170     0.0542     0.2426     2.2080    86.7200     0.1559     0.4045
  273    5.440   2442.81     0.1913     0.0042     0.1195     0.0544     0.2411     2.1856    87.0400     0.1541     0.4167
  274    5.460   2443.78     0.1954     0.0042     0.1231     0.0546     0.2465     2.1546    87.3600     0.1592     0.4219
  275    5.480   2444.76     0.1949     0.0039     0.1243     0.0548     0.2470     2.0079    87.6800     0.1593     0.4340
  276    5.500   2445.65     0.1941     0.0042     0.1240     0.0550     0.2465     2.1813    88.0000     0.1585     0.4409
  277    5.520   2446.62     0.1971     0.0043     0.1234     0.0552     0.2491     2.1675    88.3200     0.1608     0.4272
  278    5.540   2447.59     0.1946     0.0042     0.1227     0.0554     0.2463     2.1512    88.6400     0.1576     0.4285
  279    5.560   2448.56     0.1928     0.0042     0.1215     0.0556     0.2443     2.1478    88.9600     0.1553     0.4311
  280    5.580   2449.56     0.1908     0.0043     0.1186     0.0558     0.2408     2.2639    89.2800     0.1515     0.4167
  281    5.600   2450.56     0.1897     0.0042     0.1205     0.0560     0.2399     2.2206    89.6000     0.1503     0.4222
  282    5.620   2451.57     0.1891     0.0044     0.1234     0.0562     0.2406     2.3341    89.9200     0.1507     0.4400
  283    5.640   2452.54     0.1894     0.0046     0.1219     0.0564     0.2410     2.4590    90.2400     0.1508     0.4410
  284    5.660   2453.54     0.1906     0.0044     0.1207     0.0566     0.2414     2.3083    90.5600     0.1508     0.4269
  285    5.680   2454.51     0.1912     0.0043     0.1219     0.0568     0.2421     2.2451    90.8800     0.1512     0.4253
  286    5.700   2455.57     0.1890     0.0041     0.1239     0.0570     0.2407     2.1465    91.2000     0.1495     0.4431
  287    5.720   2456.54     0.1876     0.0042     0.1250     0.0572     0.2401     2.2399    91.5200     0.1486     0.4561
  288    5.740   2457.50     0.1876     0.0042     0.1260     0.0574     0.2404     2.2174    91.8400     0.1486     0.4594
  289    5.760   2458.35     0.1876     0.0043     0.1247     0.0576     0.2403     2.2723    92.1600     0.1481     0.4573
  290    5.780   2459.14     0.1903     0.0044     0.1263     0.0578     0.2430     2.3081    92.4800     0.1505     0.4494
  291    5.800   2459.99     0.1888     0.0043     0.1260     0.0580     0.2424     2.2788    92.8000     0.1496     0.4647
  292    5.820   2460.97     0.1906     0.0040     0.1243     0.0582     0.2425     2.0785    93.1200     0.1493     0.4375
  293    5.840   2461.94     0.1897     0.0043     0.1277     0.0584     0.2428     2.2609    93.4400     0.1494     0.4560
  294    5.860   2462.86     0.1927     0.0045     0.1297     0.0586     0.2470     2.3544    93.7600     0.1532     0.4609
  295    5.880   2463.88     0.1888     0.0046     0.1289     0.0588     0.2431     2.4567    94.0800     0.1490     0.4728
  296    5.900   2464.84     0.1858     0.0047     0.1310     0.0590     0.2405     2.5321    94.4000     0.1461     0.4878
  297    5.920   2465.81     0.1830     0.0043     0.1322     0.0592     0.2384     2.3776    94.7200     0.1437     0.5073
  298    5.940   2466.78     0.1854     0.0044     0.1320     0.0594     0.2409     2.3819    95.0400     0.1459     0.4994
  299    5.960   2467.72     0.1863     0.0044     0.1325     0.0596     0.2418     2.3896    95.3600     0.1465     0.4963
  300    5.980   2468.80     0.1822     0.0045     0.1347     0.0598     0.2385     2.4553    95.6800     0.1428     0.5195
  301    6.000   2469.82     0.1853     0.0043     0.1372     0.0600     0.2427     2.3083    96.0000     0.1467     0.5224
  302    6.020   2470.74     0.1887     0.0042     0.1367     0.0602     0.2460     2.2345    96.3200     0.1497     0.5101
  303    6.040   2471.72     0.2010     0.0042     0.1374     0.0604     0.2584     2.1140    96.6400     0.1618     0.4718
  304    6.060   2472.75     0.2095     0.0043     0.1329     0.0606     0.2662     2.0506    96.9600     0.1692     0.4394
  305    6.080   2473.71     0.2170     0.0044     0.1304     0.0608     0.2719     2.0248    97.2800     0.1746     0.4007
  306    6.100   2474.72     0.2155     0.0046     0.1264     0.0610     0.2694     2.1168    97.6000     0.1718     0.3919
  307    6.120   2475.72     0.2149     0.0043     0.1206     0.0612     0.2663     2.0207    97.9200     0.1684     0.3640
  308    6.140   2476.67     0.2159     0.0047     0.1172     0.0614     0.2649     2.1801    98.2400     0.1667     0.3324
  309    6.160   2477.69     0.2106     0.0044     0.1170     0.0616     0.2598     2.0652    98.5600     0.1613     0.3444
  310    6.180   2478.66     0.2081     0.0047     0.1177     0.0618     0.2575     2.2508    98.8800     0.1586     0.3516
  311    6.200   2479.67     0.2030     0.0053     0.1153     0.0620     0.2517     2.6130    99.2000     0.1525     0.3539
  312    6.220   2480.59     0.2025     0.0057     0.1174     0.0622     0.2512     2.8044    99.5200     0.1517     0.3540
  313    6.240   2481.62     0.2010     0.0055     0.1216     0.0624     0.2517     2.6886    99.8400     0.1518     0.3827
  314    6.260   2482.58     0.2016     0.0056     0.1253     0.0626     0.2536     2.8522   100.1600     0.1535     0.3996
  315    6.280   2491.25     0.2083     0.0051     0.1262     0.0628     0.2613     2.4619   100.4800     0.1608     0.3949
  316    6.300   2512.14     0.2076     0.0052     0.1259     0.0630     0.2606     2.4923   100.8000     0.1598     0.3945
  317    6.320   2531.28     0.2074     0.0052     0.1169     0.0632     0.2595     2.5095   101.1200     0.1584     0.3836
  318    6.340   2532.25     0.2045     0.0052     0.1316     0.0634     0.2586     2.5405   101.4400     0.1571     0.4155
  319    6.360   2533.24     0.2079     0.0052     0.1370     0.0636     0.2648     2.5235   101.7600     0.1631     0.4409
  320    6.380   2534.15     0.2034     0.0053     0.1406     0.0638     0.2617     2.5852   102.0800     0.1596     0.4692
  321    6.400   2535.16     0.2051     0.0055     0.1412     0.0640     0.2649     2.6782   102.4000     0.1625     0.4818
  322    6.420   2536.15     0.2103     0.0054     0.1393     0.0642     0.2687     2.5930   102.7200     0.1660     0.4507
  323    6.440   2537.12     0.2106     0.0053     0.1392     0.0644     0.2693     2.5400   103.0400     0.1662     0.4529
  324    6.460   2538.09     0.2133     0.0059     0.1368     0.0646     0.2710     2.7709   103.3600     0.1677     0.4346
  325    6.480   2539.08     0.2099     0.0056     0.1346     0.0648     0.2668     2.6953   103.6800     0.1631     0.4335
  326    6.500   2540.00     0.2140     0.0057     0.1346     0.0650     0.2703     2.6829   104.0000     0.1663     0.4152
  327    6.520   2541.00     0.2108     0.0054     0.1382     0.0652     0.2683     2.5458   104.3200     0.1640     0.4374
  328    6.540   2541.97     0.2106     0.0060     0.1398     0.0654     0.2691     2.8474   104.6400     0.1645     0.4488
  329    6.560   2542.94     0.2098     0.0064     0.1418     0.0656     0.2693     3.0003   104.9600     0.1643     0.4627
  330    6.580   2543.94     0.2111     0.0067     0.1402     0.0658     0.2703     3.1531   105.2800     0.1651     0.4560
  331    6.600   2544.90     0.2129     0.0068     0.1366     0.0660     0.2705     3.2158   105.6000     0.1649     0.4314
  332    6.620   2545.85     0.2110     0.0065     0.1383     0.0662     0.2687     3.0243   105.9200     0.1628     0.4377
  333    6.640   2550.46     0.2071     0.0064     0.1405     0.0664     0.2661     3.0566   106.2400     0.1599     0.4640
  334    6.660   2570.30     0.2061     0.0059     0.1402     0.0666     0.2650     2.8343   106.5600     0.1585     0.4652
  335    6.680   2590.15     0.2051     0.0057     0.1399     0.0668     0.2639     2.7264   106.8800     0.1570     0.4663
  336    6.700   2610.00     0.2041     0.0052     0.1405     0.0670     0.2628     2.5472   107.2000     0.1556     0.4674
  337    6.720   2614.65     0.2038     0.0052     0.1459     0.0672     0.2644     2.5324   107.5200     0.1569     0.4917
  338    6.740   2615.32     0.2048     0.0049     0.1488     0.0674     0.2671     2.4315   107.8400     0.1593     0.5082
  339    6.760   2615.96     0.2034     0.0046     0.1527     0.0676     0.2669     2.2536   108.1600     0.1587     0.5259
  340    6.780   2616.59     0.2071     0.0045     0.1575     0.0678     0.2727     2.1994   108.4800     0.1642     0.5374
  341    6.800   2617.25     0.2132     0.0046     0.1599     0.0680     0.2802     2.1611   108.8000     0.1714     0.5337
  342    6.820   2617.87     0.2131     0.0045     0.1584     0.0682     0.2801     2.1094   109.1200     0.1710     0.5334
  343    6.840   2618.52     0.2193     0.0046     0.1523     0.0684     0.2844     2.0905   109.4400     0.1750     0.4945
  344    6.860   2619.15     0.2164     0.0051     0.1422     0.0686     0.2778     2.3123   109.7600     0.1680     0.4605
  345    6.880   2619.81     0.2168     0.0057     0.1403     0.0688     0.2750     2.5958   110.0800     0.1650     0.4242
  346    6.900   2620.45     0.2184     0.0062     0.1443     0.0690     0.2784     2.8617   110.4000     0.1680     0.4399
  347    6.920   2621.09     0.2253     0.0060     0.1425     0.0692     0.2850     2.7000   110.7200     0.1743     0.4188
  348    6.940   2621.72     0.2287     0.0066     0.1435     0.0694     0.2892     2.8574   111.0400     0.1782     0.4191
  349    6.960   2628.99     0.2270     0.0063     0.1412     0.0696     0.2867     2.8082   111.3600     0.1753     0.4143
  350    6.980   2648.81     0.2330     0.0061     0.1386     0.0698     0.2916     2.7113   111.6800     0.1799     0.3886
  351    7.000   2668.63     0.2390     0.0058     0.1359     0.0700     0.2965     2.5750   112.0000     0.1845     0.3628
  352    7.020   2676.30     0.2412     0.0064     0.1371     0.0702     0.2984     2.6519   112.3200     0.1861     0.3546
  353    7.040   2677.29     0.2416     0.0065     0.1351     0.0704     0.2992     2.6688   112.6400     0.1866     0.3579
  354    7.060   2678.28     0.2382     0.0066     0.1385     0.0706     0.2951     2.7704   112.9600     0.1821     0.3566
  355    7.080   2679.28     0.2338     0.0064     0.1471     0.0708     0.2945     2.7480   113.2800     0.1813     0.4071
  356    7.100   2680.25     0.2270     0.0064     0.1502     0.0710     0.2895     2.7911   113.6000     0.1759     0.4421
  357    7.120   2681.29     0.2264     0.0057     0.1586     0.0712     0.2919     2.5350   113.9200     0.1780     0.4759
  358    7.140   2682.25     0.2219     0.0060     0.1646     0.0714     0.2901     2.6950   114.2400     0.1759     0.5169
  359    7.160   2683.22     0.2275     0.0061     0.1685     0.0716     0.2976     2.6758   114.5600     0.1830     0.5210
  360    7.180   2684.23     0.2277     0.0059     0.1717     0.0718     0.2994     2.5993   114.8800     0.1845     0.5355
  361    7.200   2685.22     0.2234     0.0059     0.1741     0.0720     0.2964     2.6539   115.2000     0.1812     0.5610
  362    7.220   2686.20     0.2240     0.0060     0.1763     0.0722     0.2974     2.6926   115.5200     0.1819     0.5639
  363    7.240   2687.20     0.2293     0.0058     0.1779     0.0724     0.3038     2.5342   115.8400     0.1880     0.5588
  364    7.260   2688.20     0.2309     0.0057     0.1744     0.0726     0.3045     2.4736   116.1600     0.1884     0.5450
  365    7.280   2689.20     0.2362     0.0060     0.1761     0.0728     0.3099     2.5714   116.4800     0.1935     0.5318
  366    7.300   2690.17     0.2317     0.0062     0.1697     0.0730     0.3041     2.6519   116.8000     0.1873     0.5308
  367    7.320   2691.20     0.2283     0.0060     0.1680     0.0732     0.2989     2.6127   117.1200     0.1818     0.5218
  368    7.340   2692.16     0.2281     0.0059     0.1694     0.0734     0.2989     2.5945   117.4400     0.1814     0.5242
  369    7.360   2693.14     0.2268     0.0059     0.1738     0.0736     0.2989     2.5860   117.7600     0.1812     0.5413
  370    7.380   2694.14     0.2326     0.0056     0.1790     0.0738     0.3071     2.4285   118.0800     0.1890     0.5484
  371    7.400   2695.11     0.2339     0.0055     0.1787     0.0740     0.3093     2.3744   118.4000     0.1909     0.5536
  372    7.420   2696.14     0.2291     0.0056     0.1765     0.0742     0.3040     2.4324   118.7200     0.1852     0.5611
  373    7.440   2697.11     0.2342     0.0059     0.1733     0.0744     0.3076     2.5177   119.0400     0.1886     0.5321
  374    7.460   2698.07     0.2357     0.0057     0.1731     0.0746     0.3084     2.4108   119.3600     0.1890     0.5206
  375    7.480   2699.04     0.2360     0.0061     0.1746     0.0748     0.3091     2.5628   119.6800     0.1894     0.5239
  376    7.500   2700.04     0.2364     0.0059     0.1771     0.0750     0.3103     2.4978   120.0000     0.1903     0.5314
  377    7.520   2701.04     0.2399     0.0056     0.1751     0.0752     0.3137     2.3614   120.3200     0.1934     0.5200
  378    7.540   2702.04     0.2391     0.0058     0.1776     0.0754     0.3132     2.4240   120.6400     0.1926     0.5241
  379    7.560   2703.01     0.2395     0.0061     0.1787     0.0756     0.3145     2.5282   120.9600     0.1936     0.5322
  380    7.580   2704.01     0.2385     0.0062     0.1789     0.0758     0.3138     2.5657   121.2800     0.1925     0.5380
  381    7.600   2704.98     0.2376     0.0060     0.1785     0.0760     0.3125     2.5088   121.6000     0.1909     0.5359
  382    7.620   2705.95     0.2341     0.0058     0.1769     0.0762     0.3087     2.4687   121.9200     0.1868     0.5438
  383    7.640   2706.97     0.2344     0.0059     0.1804     0.0764     0.3094     2.4978   122.2400     0.1872     0.5460
  384    7.660   2707.96     0.2376     0.0059     0.1866     0.0766     0.3150     2.5051   122.5600     0.1925     0.5605
  385    7.680   2708.96     0.2388     0.0059     0.1909     0.0768     0.3184     2.4972   122.8800     0.1955     0.5761
  386    7.700   2709.94     0.2428     0.0060     0.1913     0.0770     0.3236     2.4869   123.2000     0.2004     0.5758
  387    7.720   2710.96     0.2472     0.0064     0.1869     0.0772     0.3263     2.5700   123.5200     0.2028     0.5486
  388    7.740   2711.94     0.2559     0.0069     0.1835     0.0774     0.3333     2.7085   123.8400     0.2094     0.5101
  389    7.760   2712.93     0.2588     0.0073     0.1838     0.0776     0.3358     2.8372   124.1600     0.2116     0.4994
  390    7.780   2713.95     0.2617     0.0074     0.1847     0.0778     0.3392     2.8173   124.4800     0.2147     0.4965
  391    7.800   2714.93     0.2637     0.0070     0.1872     0.0780     0.3424     2.6727   124.8000     0.2176     0.5028
  392    7.820   2715.90     0.2623     0.0069     0.1881     0.0782     0.3413     2.6316   125.1200     0.2161     0.5082
  393    7.840   2716.90     0.2609     0.0069     0.1887     0.0784     0.3396     2.6553   125.4400     0.2142     0.5094
  394    7.860   2717.88     0.2606     0.0071     0.1939     0.0786     0.3412     2.7166   125.7600     0.2154     0.5260
  395    7.880   2718.85     0.2618     0.0066     0.2019     0.0788     0.3454     2.5045   126.0800     0.2193     0.5485
  396    7.900   2719.85     0.2655     0.0068     0.2058     0.0790     0.3513     2.5847   126.4000     0.2249     0.5567
  397    7.920   2720.84     0.2723     0.0071     0.2075     0.0792     0.3593     2.6076   126.7200     0.2326     0.5497
  398    7.940   2721.83     0.2757     0.0071     0.2070     0.0794     0.3627     2.5960   127.0400     0.2357     0.5425
  399    7.960   2722.81     0.2840     0.0072     0.2028     0.0796     0.3705     2.5196   127.3600     0.2432     0.5198
  400    7.980   2723.80     0.2887     0.0073     0.1958     0.0798     0.3721     2.5375   127.6800     0.2445     0.4858
  401    8.000   2724.81     0.2870     0.0074     0.1900     0.0800     0.3678     2.5650   128.0000     0.2398     0.4680
  402    8.020   2725.79     0.2793     0.0076     0.1869     0.0802     0.3583     2.7047   128.3200     0.2300     0.4695
  403    8.040   2726.79     0.2725     0.0077     0.1879     0.0804     0.3508     2.7973   128.6400     0.2222     0.4780
  404    8.060   2727.75     0.2645     0.0068     0.1917     0.0806     0.3448     2.5718   128.9600     0.2159     0.5122
  405    8.080   2728.74     0.2613     0.0068     0.1977     0.0808     0.3435     2.6119   129.2800     0.2143     0.5364
  406    8.100   2729.72     0.2602     0.0063     0.2011     0.0810     0.3437     2.4294   129.6000     0.2141     0.5503
  407    8.120   2730.74     0.2555     0.0064     0.2097     0.0812     0.3424     2.5148   129.9200     0.2124     0.5914
  408    8.140   2731.71     0.2579     0.0061     0.2150     0.0814     0.3475     2.3835   130.2400     0.2173     0.6079
  409    8.160   2732.71     0.2672     0.0066     0.2173     0.0816     0.3586     2.5411   130.5600     0.2280     0.5961
  410    8.180   2733.71     0.2674     0.0072     0.2048     0.0818     0.3559     2.7309   130.8800     0.2250     0.5730
  411    8.200   2734.71     0.2676     0.0076     0.1954     0.0820     0.3501     2.8547   131.2000     0.2189     0.5226
  412    8.220   2735.71     0.2613     0.0077     0.1909     0.0822     0.3423     2.9005   131.5200     0.2108     0.5252
  413    8.240   2736.66     0.2632     0.0078     0.1885     0.0824     0.3421     2.9626   131.8400     0.2102     0.5009
  414    8.260   2745.83     0.2610     0.0075     0.1941     0.0826     0.3416     2.8586   132.1600     0.2095     0.5224
  415    8.280   2762.95     0.2576     0.0076     0.2004     0.0828     0.3409     2.8910   132.4800     0.2084     0.5541
  416    8.300   2780.07     0.2543     0.0072     0.2044     0.0830     0.3401     2.7912   132.8000     0.2073     0.5857
  417    8.320   2782.55     0.2583     0.0073     0.2034     0.0832     0.3436     2.8238   133.1200     0.2105     0.5702
  418    8.340   2783.60     0.2614     0.0068     0.2082     0.0834     0.3476     2.6237   133.4400     0.2142     0.5697
  419    8.360   2784.56     0.2607     0.0071     0.2097     0.0836     0.3492     2.7440   133.7600     0.2154     0.5896
  420    8.380   2785.51     0.2617     0.0071     0.2054     0.0838     0.3489     2.7100   134.0800     0.2148     0.5758
  421    8.400   2786.53     0.2695     0.0066     0.2008     0.0840     0.3540     2.4539   134.4000     0.2196     0.5339
  422    8.420   2787.51     0.2718     0.0061     0.2026     0.0842     0.3565     2.2489   134.7200     0.2218     0.5294
  423    8.440   2788.47     0.2753     0.0067     0.1991     0.0844     0.3594     2.4265   135.0400     0.2243     0.5164
  424    8.460   2789.47     0.2742     0.0067     0.1937     0.0846     0.3565     2.4580   135.3600     0.2212     0.5038
  425    8.480   2790.41     0.2762     0.0066     0.2004     0.0848     0.3591     2.4057   135.6800     0.2235     0.5039
  426    8.500   2791.40     0.2820     0.0065     0.2085     0.0850     0.3690     2.3124   136.0000     0.2330     0.5237
  427    8.520   2792.41     0.2827     0.0067     0.2050     0.0852     0.3691     2.3636   136.3200     0.2328     0.5176
  428    8.540   2793.42     0.2795     0.0058     0.2007     0.0854     0.3643     2.0620   136.6400     0.2277     0.5125
  429    8.560   2794.40     0.2804     0.0058     0.1979     0.0856     0.3644     2.0656   136.9600     0.2274     0.5027
  430    8.580   2795.38     0.2905     0.0057     0.2026     0.0858     0.3744     1.9669   137.2800     0.2371     0.4807
  431    8.600   2796.38     0.2975     0.0054     0.2111     0.0860     0.3850     1.8254   137.6000     0.2474     0.4948
  432    8.620   2797.37     0.3076     0.0055     0.2090     0.0862     0.3971     1.7927   137.9200     0.2591     0.4892
  433    8.640   2798.35     0.3136     0.0057     0.1965     0.0864     0.3993     1.8379   138.2400     0.2611     0.4510
  434    8.660   2799.35     0.3110     0.0062     0.1940     0.0866     0.3929     1.9891   138.5600     0.2543     0.4259
  435    8.680   2800.32     0.3045     0.0063     0.1844     0.0868     0.3835     2.0985   138.8800     0.2447     0.4144
  436    8.700   2801.32     0.3068     0.0064     0.1874     0.0870     0.3855     2.0921   139.2000     0.2463     0.4081
  437    8.720   2802.32     0.3121     0.0065     0.1921     0.0872     0.3917     2.0802   139.5200     0.2521     0.4051
  438    8.740   2803.29     0.3107     0.0064     0.1961     0.0874     0.3933     2.0655   139.8400     0.2535     0.4313
  439    8.760   2804.31     0.3103     0.0066     0.1990     0.0876     0.3924     2.1036   140.1600     0.2523     0.4284
  440    8.780   2805.30     0.2967     0.0068     0.2028     0.0878     0.3812     2.3016   140.4800     0.2407     0.4714
  441    8.800   2806.27     0.3000     0.0066     0.2014     0.0880     0.3858     2.2027   140.8000     0.2450     0.4754
  442    8.820   2807.27     0.3017     0.0064     0.2109     0.0882     0.3888     2.1181   141.1200     0.2477     0.4812
  443    8.840   2808.26     0.3105     0.0062     0.2157     0.0884     0.4011     1.9927   141.4400     0.2597     0.4902
  444    8.860   2809.22     0.3095     0.0063     0.2160     0.0886     0.3990     2.0414   141.7600     0.2573     0.4844
  445    8.880   2810.20     0.3072     0.0066     0.2240     0.0888     0.4006     2.1581   142.0800     0.2586     0.5168
  446    8.900   2811.17     0.3180     0.0069     0.2173     0.0890     0.4107     2.1651   142.4000     0.2683     0.4906
  447    8.920   2812.17     0.3138     0.0065     0.2188     0.0892     0.4054     2.0838   142.7200     0.2627     0.4911
  448    8.940   2813.17     0.3090     0.0070     0.2126     0.0894     0.3982     2.2550   143.0400     0.2552     0.4824
  449    8.960   2814.14     0.3029     0.0069     0.2179     0.0896     0.3934     2.2473   143.3600     0.2500     0.5035
  450    8.980   2815.12     0.3037     0.0068     0.2234     0.0898     0.3971     2.2354   143.6800     0.2534     0.5231
  451    9.000   2816.12     0.2913     0.0065     0.2286     0.0900     0.3867     2.2306   144.0000     0.2427     0.5648
  452    9.020   2817.10     0.2857     0.0060     0.2343     0.0902     0.3832     2.1035   144.3200     0.2389     0.5950
  453    9.040   2818.12     0.2740     0.0060     0.2398     0.0904     0.3742     2.1551   144.6400     0.2296     0.6452
  454    9.060   2819.07     0.2734     0.0054     0.2442     0.0906     0.3752     1.9902   144.9600     0.2302     0.6593
  455    9.080   2820.03     0.2692     0.0046     0.2495     0.0908     0.3732     1.7179   145.2800     0.2279     0.6877
  456    9.100   2821.05     0.2715     0.0048     0.2562     0.0910     0.3781     1.7598   145.6000     0.2325     0.7001
  457    9.120   2822.05     0.2737     0.0052     0.2607     0.0912     0.3826     1.8940   145.9200     0.2367     0.7108
  458    9.140   2823.03     0.2785     0.0057     0.2643     0.0914     0.3892     2.0539   146.2400     0.2430     0.7091
  459    9.160   2824.02     0.2902     0.0064     0.2674     0.0916     0.4015     2.2259   146.5600     0.2549     0.6803
  460    9.180   2825.05     0.3124     0.0068     0.2682     0.0918     0.4266     2.1963   146.8800     0.2797     0.6437
  461    9.200   2826.02     0.3127     0.0069     0.2562     0.0920     0.4224     2.2043   147.2000     0.2752     0.6153
  462    9.220   2826.99     0.3115     0.0069     0.2457     0.0922     0.4157     2.2107   147.5200     0.2682     0.5818
  463    9.240   2828.01     0.3021     0.0067     0.2402     0.0924     0.4034     2.1981   147.8400     0.2556     0.5828
  464    9.260   2829.00     0.2924     0.0057     0.2355     0.0926     0.3920     1.9523   148.1600     0.2439     0.5927
  465    9.280   2829.97     0.2867     0.0043     0.2356     0.0928     0.3851     1.4676   148.4800     0.2366     0.5979
  466    9.300   2830.96     0.2803     0.0001     0.2420     0.0930     0.3811     0.0291   148.8000     0.2323     0.6325
  467    9.320   2831.97     0.2787    -0.0071     0.2520     0.0932     0.3828    -2.5460   149.1200     0.2337     0.6616
  468    9.340   2832.95     0.2878    -0.0107     0.2664     0.0934     0.3974    -3.7609   149.4400     0.2480     0.6758
  469    9.360   2833.94     0.3307    -0.0121     0.2828     0.0936     0.4474    -3.7579   149.7600     0.2976     0.6190
  470    9.380   2834.94     0.4105    -0.0099     0.2767     0.0938     0.5301    -2.6889   150.0800     0.3800     0.5069
  471    9.400   2835.91     0.5825    -0.0054     0.2227     0.0940     0.6873    -1.0147   150.4000     0.5369     0.2938
  472    9.420   2836.87     1.0722    -0.0050     0.1144     0.0942     1.1307    -0.6529   150.7200     0.9800     0.0501
  473    9.440   2837.90     1.7174    -0.0031     0.0973     0.0944     1.7609    -0.2241   151.0400     1.6098     0.0060
  474    9.460   2839.03     2.5858    -0.0007     0.0424     0.0946     2.6206    -0.0318   151.3600     2.4693    -0.0048
  475    9.480   2841.61     3.1235     0.0033     0.0378     0.0948     3.1434     0.1049   151.6800     2.9917    -0.0158
  476    9.500   2842.76     4.4408     0.0088     0.0299     0.0950     4.4426     0.1993   152.0000     4.2906    -0.0212
  477    9.520   2845.06     5.0126     0.0067     0.0278     0.0952     5.0257     0.1444   152.3200     4.8734    -0.0132
  478    9.540   2846.05     5.6755     0.0040     0.0439     0.0954     5.6904     0.0733   152.6400     5.5377    -0.0109
  479    9.560   2847.07     5.9739     0.0046     0.0388     0.0956     5.9923     0.0763   152.9600     5.8394    -0.0089
  480    9.580   2848.07     6.1417     0.0088     0.0175     0.0958     6.1539     0.1437   153.2800     6.0006    -0.0111
  481    9.600   2849.05     6.3175     0.0110    -0.0227     0.0960     6.3146     0.1776   153.6000     6.1610    -0.0167
  482    9.620   2850.07     6.4252     0.0110    -0.0415     0.0962     6.4072     0.1708   153.9200     6.2532    -0.0222
  483    9.640   2851.07     6.2107     0.0198    -0.0560     0.0964     6.1902     0.3190   154.2400     6.0360    -0.0241
  484    9.660   2852.07     6.4240     0.0402    -0.0469     0.0966     6.4024     0.6277   154.5600     6.2479    -0.0237
  485    9.680   2853.08     6.5121     0.0706    -0.0258     0.0968     6.4981     1.0844   154.8800     6.3433    -0.0205
  486    9.700   2854.12     6.5272     0.0956     0.0008     0.0970     6.5235     1.4631   155.2000     6.3683    -0.0166
  487    9.720   2855.11     6.3059     0.1019     0.0226     0.0972     6.3111     1.6053   155.5200     6.1556    -0.0138
  488    9.740   2856.10     6.0735     0.0908     0.0506     0.0974     6.0893     1.4871   155.8400     5.9334    -0.0101
  489    9.760   2857.08     5.6256     0.0728     0.0735     0.0976     5.6535     1.2792   156.1600     5.4973    -0.0057
  490    9.780   2858.09     5.1064     0.0576     0.0506     0.0978     5.1307     1.1133   156.4800     4.9742    -0.0081
  491    9.800   2859.08     5.1204     0.0428     0.0078     0.0980     5.1333     0.8382   156.8000     4.9765    -0.0135
  492    9.820   2860.08     5.4162     0.0307    -0.0205     0.0982     5.4118     0.5728   157.1200     5.2547    -0.0207
  493    9.840   2861.10     5.0769     0.0307    -0.0240     0.0984     5.0640     0.5875   157.4400     4.9066    -0.0263
  494    9.860   2862.07     4.0708     0.0375    -0.0456     0.0986     4.0586     0.8685   157.7600     3.9008    -0.0329
  495    9.880   2863.06     3.3679     0.0463    -0.0738     0.0988     3.3400     1.3201   158.0800     3.1819    -0.0521
  496    9.900   2864.05     2.7079     0.0402    -0.0725     0.0990     2.6747     1.3898   158.4000     2.5163    -0.0710
  497    9.920   2865.00     1.9866     0.0301    -0.0529     0.0992     1.9616     1.2592   158.7200     1.8029    -0.0887
  498    9.940   2866.00     1.4512     0.0200    -0.0235     0.0994     1.4371     1.1287   159.0400     1.2781    -0.1042
  499    9.960   2866.95     1.0927     0.0101     0.0222     0.0996     1.0936     0.8605   159.3600     0.9343    -0.1038
  500    9.980   2867.95     0.9087     0.0099     0.1169     0.0998     0.9412     1.0322   159.6800     0.7815    -0.0285
  501   10.000   2868.94     1.0977     0.0136     0.2031     0.1000     1.1766     1.3146   160.0000     1.0166     0.0853
  502   10.020   2870.85     2.3951     0.0116     0.1599     0.1002     2.4685     0.8148   160.3200     2.3081     0.0709
  503   10.040   2873.07     3.9752     0.0174     0.1166     0.1004     4.0305     0.6686   160.6400     3.8698     0.0368
  504   10.060   2875.28     5.5553     0.0233     0.0749     0.1006     5.5924     0.5223   160.9600     5.4314     0.0027
  505   10.080   2876.55     7.8502     0.0294     0.0339     0.1008     7.8719     0.3949   161.2800     7.7106    -0.0063
  506   10.100   2880.40     8.9161     0.0380     0.0729     0.1010     8.9438     0.4089   161.6000     8.7822    -0.0040
  507   10.120   2881.50    10.5656     0.0484     0.0741     0.1012    10.5955     0.4629   161.9200    10.4336    -0.0029
  508   10.140   2883.48    11.4785     0.0612     0.0824     0.1014    11.5120     0.5711   162.2400    11.3497    -0.0020
  509   10.160   2885.59    12.3680     0.0716     0.0908     0.1016    12.4049     0.6130   162.5600    12.2423    -0.0013
  510   10.180   2887.69    13.2573     0.0811     0.0963     0.1018    13.2977     0.6283   162.8800    13.1349    -0.0005
  511   10.200   2888.97    14.3147     0.0905     0.0910     0.1020    14.3535     0.6437   163.2000    14.1903    -0.0007
  512   10.220   2890.00    15.3863     0.1010     0.0906     0.1022    15.4237     0.6675   163.5200    15.2602    -0.0009
  513   10.240   2891.04    16.2021     0.1130     0.0818     0.1024    16.2387     0.7046   163.8400    16.0749    -0.0009
  514   10.260   2897.73    16.7772     0.1160     0.0791     0.1026    16.8097     0.6967   164.1600    16.6456    -0.0015
  515   10.280   2914.24    17.1381     0.1024     0.0840     0.1028    17.1726     0.6151   164.4800    17.0081    -0.0012
  516   10.300   2930.75    17.4989     0.0828     0.0889     0.1030    17.5356     0.4974   164.8000    17.3708    -0.0009
  517   10.320   2943.88    17.8588     0.0724     0.0844     0.1032    17.8960     0.4097   165.1200    17.7309    -0.0008
  518   10.340   2944.90    18.2200     0.0691     0.0836     0.1034    18.2557     0.3813   165.4400    18.0903    -0.0010
  519   10.360   2945.85    18.5762     0.0657     0.0879     0.1036    18.6118     0.3562   165.7600    18.4461    -0.0010
  520   10.380   2946.82    19.0748     0.0603     0.0889     0.1038    19.1098     0.3212   166.0800    18.9437    -0.0011
  521   10.400   2947.77    19.8153     0.0560     0.0926     0.1040    19.8555     0.2871   166.4000    19.6891    -0.0004
  522   10.420   2948.75    20.2798     0.0551     0.0923     0.1042    20.3205     0.2750   166.7200    20.1538    -0.0004
  523   10.440   2949.66    20.7363     0.0598     0.0591     0.1044    20.7753     0.2910   167.0400    20.6083    -0.0006
  524   10.460   2950.61    20.7571     0.0616     0.0097     0.1046    20.7572     0.2969   167.3600    20.5898    -0.0051
  525   10.480   2951.57    20.6647     0.0625     0.0368     0.1048    20.6775     0.3006   167.6800    20.5098    -0.0036
  526   10.500   2952.50    20.2391     0.0649     0.0328     0.1050    20.2546     0.3178   168.0000    20.0866    -0.0034
  527   10.520   2953.43    19.5923     0.0662     0.0459     0.1052    19.6082     0.3344   168.3200    19.4399    -0.0035
  528   10.540   2954.38    18.6664     0.0679     0.0630     0.1054    18.6909     0.3589   168.6400    18.5222    -0.0025
  529   10.560   2955.30    17.5678     0.0669     0.0762     0.1056    17.5971     0.3773   168.9600    17.4281    -0.0021
  530   10.580   2956.27    16.6717     0.0626     0.0884     0.1058    16.7079     0.3732   169.2800    16.5386    -0.0012
  531   10.600   2957.26    16.1482     0.0588     0.0949     0.1060    16.1873     0.3623   169.6000    16.0177    -0.0008
  532   10.620   2958.23    15.8993     0.0531     0.0966     0.1062    15.9396     0.3330   169.9200    15.7696    -0.0007
  533   10.640   2959.24    15.8794     0.0473     0.0948     0.1064    15.9186     0.2978   170.2400    15.7484    -0.0008
  534   10.660   2960.25    15.9370     0.0436     0.0998     0.1066    15.9752     0.2740   170.5600    15.8047    -0.0010
  535   10.680   2961.25    15.9879     0.0405     0.0901     0.1068    16.0276     0.2534   170.8800    15.8567    -0.0008
  536   10.700   2962.20    15.8064     0.0392     0.0922     0.1070    15.8446     0.2469   171.2000    15.6734    -0.0010
  537   10.720   2963.16    15.3013     0.0409     0.0692     0.1072    15.3348     0.2657   171.5200    15.1632    -0.0018
  538   10.740   2964.12    14.3212     0.0446     0.0744     0.1074    14.3468     0.3084   171.8400    14.1750    -0.0033
  539   10.760   2965.12    13.4611     0.0490     0.0952     0.1076    13.4983     0.3626   172.1600    13.3262    -0.0014
  540   10.780   2966.12    12.8840     0.0560     0.1094     0.1078    12.9292     0.4335   172.4800    12.7568     0.0000
  541   10.800   2967.12    12.5373     0.0563     0.1109     0.1080    12.5841     0.4469   172.8000    12.4113     0.0003
  542   10.820   2968.11    12.5043     0.0541     0.1069     0.1082    12.5486     0.4323   173.1200    12.3755    -0.0002
  543   10.840   2969.12    12.7000     0.0578     0.1050     0.1084    12.7441     0.4592   173.4400    12.5707    -0.0003
  544   10.860   2970.13    13.2897     0.0580     0.0964     0.1086    13.3317     0.4478   173.7600    13.1579    -0.0007
  545   10.880   2971.20    14.7728     0.0505     0.0833     0.1088    14.8099     0.3441   174.0800    14.6358    -0.0014
  546   10.900   2972.22    16.4230     0.0425     0.0598     0.1090    16.4511     0.2675   174.4000    16.2767    -0.0026
  547   10.920   2973.21    19.8663     0.0346     0.0254     0.1092    19.8829     0.1930   174.7200    19.7082    -0.0035
  548   10.940   2974.21    23.7810     0.0267    -0.1259     0.1094    23.7615     0.1185   175.0400    23.5865    -0.0066
  549   10.960   2975.26    27.5571     0.0260    -0.1716     0.1096    27.5020     0.0973   175.3600    27.3266    -0.0088
  550   10.980   2976.22    30.4282     0.0336    -0.2281     0.1098    30.3399     0.1129   175.6800    30.1643    -0.0106
  551   11.000   2979.59    31.5031     0.0440    -0.1669     0.1100    31.4226     0.1402   176.0000    31.2466    -0.0097
  552   11.020   2984.77    31.7228     0.0572    -0.0949     0.1102    31.6725     0.1821   176.3200    31.4962    -0.0073
  553   11.040   2989.94    31.9425     0.0628    -0.0229     0.1104    31.9224     0.2001   176.6400    31.7458    -0.0050
  554   11.060   2993.16    31.6362     0.0619     0.0220     0.1106    31.6399     0.1940   176.9600    31.4630    -0.0032
  555   11.080   2994.11    30.6642     0.0625     0.0624     0.1108    30.6907     0.2018   177.2800    30.5135    -0.0016
  556   11.100   2995.06    29.8883     0.0662     0.1008     0.1110    29.9246     0.2196   177.6000    29.7470    -0.0008
  557   11.120   2995.99    29.4667     0.0661     0.1031     0.1112    29.5120     0.2243   177.9200    29.3341    -0.0001
  558   11.140   2996.98    29.9491     0.0714     0.1045     0.1114    29.9927     0.2403   178.2400    29.8145    -0.0003
  559   11.160   2997.93    31.2849     0.0784     0.0965     0.1116    31.3235     0.2542   178.5600    31.1449    -0.0006
  560   11.180   2998.93    32.5865     0.0859     0.1035     0.1118    32.6289     0.2669   178.8800    32.4500    -0.0003
  561   11.200   2999.91    33.1159     0.0891     0.1018     0.1120    33.1611     0.2697   179.2000    32.9819    -0.0001
  562   11.220   3000.86    32.8104     0.0949     0.0978     0.1122    32.8515     0.2880   179.5200    32.6720    -0.0004
  563   11.240   3001.81    32.3022     0.0992     0.0952     0.1124    32.3432     0.3051   179.8400    32.1634    -0.0005
  564   11.260   3002.76    31.7200     0.1072     0.0923     0.1126    31.7573     0.3355   180.1600    31.5772    -0.0008
  565   11.280   3003.72    30.6452     0.1166     0.0940     0.1128    30.6865     0.3735   180.4800    30.5060    -0.0005
  566   11.300   3004.68    29.0849     0.1176     0.0893     0.1130    29.1226     0.3974   180.8000    28.9418    -0.0008
  567   11.320   3005.61    27.4796     0.1015     0.1016     0.1132    27.5239     0.3615   181.1200    27.3428    -0.0003
  568   11.340   3006.54    26.4139     0.0870     0.0977     0.1134    26.4544     0.3266   181.4400    26.2729    -0.0006
  569   11.360   3007.48    26.1133     0.0839     0.1010     0.1136    26.1562     0.3219   181.7600    25.9745    -0.0004
  570   11.380   3008.46    26.6290     0.0765     0.1062     0.1138    26.6716     0.2896   182.0800    26.4896    -0.0005
  571   11.400   3009.43    27.6024     0.0803     0.0864     0.1140    27.6413     0.2942   182.4000    27.4589    -0.0008
  572   11.420   3010.41    28.3532     0.0874     0.0929     0.1142    28.3907     0.3113   182.7200    28.2080    -0.0009
  573   11.440   3011.36    28.7676     0.0875     0.1052     0.1144    28.8094     0.3046   183.0400    28.6264    -0.0005
  574   11.460   3012.31    28.9993     0.0885     0.0069     0.1146    29.0210     0.3068   183.3600    28.8377    -0.0022
  575   11.480   3013.28    29.5199     0.0891    -0.0009     0.1148    29.5228     0.3044   183.6800    29.3391    -0.0037
  576   11.500   3014.27    29.3626     0.0925     0.0221     0.1150    29.3647     0.3130   184.0000    29.1807    -0.0038
  577   11.520   3015.21    28.7698     0.0969     0.0976     0.1152    28.8011     0.3335   184.3200    28.6167    -0.0014
  578   11.540   3016.16    28.2503     0.0953     0.0941     0.1154    28.2935     0.3352   184.6400    28.1089    -0.0004
  579   11.560   3017.10    28.1718     0.0970     0.1042     0.1156    28.2137     0.3443   184.9600    28.0287    -0.0006
  580   11.580   3018.06    27.7394     0.0950     0.0926     0.1158    27.7788     0.3388   185.2800    27.5936    -0.0008
  581   11.600   3018.98    26.5475     0.0953     0.0977     0.1160    26.5886     0.3512   185.6000    26.4030    -0.0007
  582   11.620   3019.91    24.9332     0.0994     0.1066     0.1162    24.9752     0.3873   185.9200    24.7893    -0.0006
  583   11.640   3020.86    23.3302     0.1045     0.1209     0.1164    23.3772     0.4368   186.2400    23.1910    -0.0002
  584   11.660   3021.80    22.2803     0.1069     0.1208     0.1166    22.3290     0.4712   186.5600    22.1425     0.0000
  585   11.680   3022.79    21.6539     0.1132     0.1098     0.1168    21.7039     0.5169   186.8800    21.5170     0.0001
  586   11.700   3023.71    21.2384     0.1239     0.1240     0.1170    21.2878     0.5794   187.2000    21.1006     0.0000
  587   11.720   3024.66    20.7756     0.1362     0.1166     0.1172    20.8276     0.6495   187.5200    20.6401     0.0003
  588   11.740   3025.59    20.2367     0.1460     0.1183     0.1174    20.2871     0.7150   187.8400    20.0993     0.0001
  589   11.760   3026.53    20.1383     0.1503     0.1136     0.1176    20.1885     0.7474   188.1600    20.0004     0.0001
  590   11.780   3027.48    20.4113     0.1530     0.1141     0.1178    20.4558     0.7544   188.4800    20.2673    -0.0006
  591   11.800   3028.44    20.7287     0.1598     0.1183     0.1180    20.7793     0.7744   188.8000    20.5905     0.0001
  592   11.820   3029.43    21.1429     0.1694     0.1042     0.1182    21.1909     0.8085   189.1200    21.0017    -0.0002
  593   11.840   3030.37    21.6564     0.1706     0.0675     0.1184    21.6895     0.7952   189.4400    21.5000    -0.0018
  594   11.860   3031.35    22.2126     0.1676     0.0750     0.1186    22.2416     0.7604   189.7600    22.0518    -0.0022
  595   11.880   3032.27    22.6365     0.1653     0.0928     0.1188    22.6698     0.7351   190.0800    22.4797    -0.0018
  596   11.900   3033.23    22.9925     0.1665     0.1091     0.1190    23.0343     0.7275   190.4000    22.8439    -0.0009
  597   11.920   3034.21    23.2036     0.1681     0.1087     0.1192    23.2489     0.7265   190.7200    23.0582    -0.0005
  598   11.940   3035.17    23.3171     0.1681     0.0955     0.1194    23.3586     0.7219   191.0400    23.1675    -0.0009
  599   11.960   3036.11    23.5794     0.1645     0.1097     0.1196    23.6239     0.7019   191.3600    23.4325    -0.0006
  600   11.980   3037.07    23.7600     0.1611     0.1101     0.1198    23.8076     0.6789   191.6800    23.6160    -0.0003
  601   12.000   3038.03    23.7281     0.1561     0.1161     0.1200    23.7756     0.6568   192.0000    23.5836    -0.0003
  602   12.020   3039.02    23.6984     0.1501     0.1180     0.1202    23.7470     0.6342   192.3200    23.5547    -0.0002
  603   12.040   3039.99    24.1571     0.1480     0.1208     0.1204    24.2083     0.6185   192.6400    24.0156     0.0001
  604   12.060   3040.93    24.9061     0.1469     0.1224     0.1206    24.9569     0.5976   192.9600    24.7639     0.0000
  605   12.080   3041.88    25.7769     0.1449     0.1019     0.1208    25.8244     0.5696   193.2800    25.6311    -0.0003
  606   12.100   3042.86    26.2865     0.1399     0.0922     0.1210    26.3288     0.5349   193.6000    26.1352    -0.0008
  607   12.120   3043.81    26.1149     0.1328     0.1005     0.1212    26.1567     0.5053   193.9200    25.9628    -0.0008
  608   12.140   3044.71    25.1841     0.1321     0.0940     0.1214    25.2253     0.5140   194.2400    25.0310    -0.0009
  609   12.160   3045.72    23.8327     0.1310     0.0958     0.1216    23.8712     0.5375   194.5600    23.6766    -0.0013
  610   12.180   3046.60    22.5436     0.1289     0.1144     0.1218    22.5884     0.5634   194.8800    22.3935    -0.0007
  611   12.200   3047.58    21.3668     0.1269     0.1202     0.1220    21.4171     0.5894   195.2000    21.2219    -0.0001
  612   12.220   3048.49    20.4782     0.1270     0.1201     0.1222    20.5284     0.6067   195.5200    20.3329    -0.0001
  613   12.240   3049.45    19.7128     0.1285     0.1250     0.1224    19.7654     0.6454   195.8400    19.5695     0.0001
  614   12.260   3053.57    19.0398     0.1296     0.1211     0.1226    19.0912     0.6686   196.1600    18.8951     0.0000
  615   12.280   3071.80    18.0914     0.1306     0.1174     0.1228    18.1413     0.6799   196.4800    17.9448    -0.0003
  616   12.300   3090.04    17.1430     0.1334     0.1137     0.1230    17.1913     0.6942   196.8000    16.9945    -0.0005
  617   12.320   3101.60    16.4732     0.1402     0.1170     0.1232    16.5212     0.8470   197.1200    16.3241    -0.0005
  618   12.340   3102.57    16.4118     0.1360     0.1219     0.1234    16.4623     0.8283   197.4400    16.2649    -0.0002
  619   12.360   3103.53    16.4900     0.1347     0.1256     0.1236    16.5426     0.8187   197.7600    16.3448     0.0001
  620   12.380   3104.50    16.4809     0.1312     0.1297     0.1238    16.5347     0.7955   198.0800    16.3367     0.0003
  621   12.400   3105.44    16.2240     0.1293     0.1236     0.1240    16.2772     0.7903   198.4000    16.0788     0.0002
  622   12.420   3106.36    15.5238     0.1198     0.1149     0.1242    15.5730     0.7583   198.7200    15.3742    -0.0005
  623   12.440   3107.27    14.4916     0.1086     0.1053     0.1244    14.5381     0.7337   199.0400    14.3390    -0.0010
  624   12.460   3108.24    13.1241     0.0956     0.1032     0.1246    13.1670     0.7087   199.3600    12.9676    -0.0017
  625   12.480   3109.20    11.7680     0.0890     0.1019     0.1248    11.8127     0.7397   199.6800    11.6130    -0.0016
  626   12.500   3110.21    10.2324     0.0919     0.1020     0.1250    10.2714     0.8753   200.0000    10.0714    -0.0032
  627   12.520   3111.15     9.0394     0.1043     0.1121     0.1252     9.0809     1.1455   200.3200     8.8806    -0.0030
  628   12.540   3112.13     8.0176     0.1151     0.1148     0.1254     8.0659     1.4255   200.6400     7.8652    -0.0013
  629   12.560   3113.13     7.0491     0.1270     0.1191     0.1256     7.0965     1.6906   200.9600     6.8955    -0.0019
  630   12.580   3114.15     6.2403     0.1245     0.1260     0.1258     6.2919     1.8899   201.2800     6.0906    -0.0005
  631   12.600   3115.13     5.9866     0.1225     0.1334     0.1260     6.0424     2.0244   201.6000     5.8408     0.0012
  632   12.620   3116.15     7.0163     0.1233     0.1349     0.1262     7.0722     1.7948   201.9200     6.8703     0.0010
  633   12.640   3117.18     8.8703     0.1220     0.1331     0.1264     8.9272     1.3935   202.2400     8.7249     0.0010
  634   12.660   3118.23    10.5017     0.1213     0.1330     0.1266    10.5559     1.1830   202.5600    10.3533     0.0002
  635   12.680   3119.25    11.5273     0.1174    -0.0063     0.1268    11.5467     1.0282   202.8800    11.3438    -0.0071
  636   12.700   3120.25    11.7212     0.1040    -0.0587     0.1270    11.7002     0.8901   203.2000    11.4970    -0.0154
  637   12.720   3121.23    12.0257     0.0897    -0.0444     0.1272    12.0019     0.7488   203.5200    11.7984    -0.0156
  638   12.740   3122.23    11.9470     0.0845     0.0025     0.1274    11.9404     0.7013   203.8400    11.7365    -0.0122
  639   12.760   3123.18    10.0836     0.0765     0.0352     0.1276    10.0965     0.7386   204.1600     9.8924    -0.0098
  640   12.780   3124.20     8.4573     0.0644     0.0518     0.1278     8.4762     0.7400   204.4800     8.2717    -0.0100
  641   12.800   3125.21     7.4875     0.0517     0.0682     0.1280     7.5139     0.6750   204.8000     7.3091    -0.0089
  642   12.820   3126.15     6.5227     0.0440     0.0769     0.1282     6.5544     0.6542   205.1200     6.3493    -0.0083
  643   12.840   3127.14     5.7722     0.0437     0.0879     0.1284     5.8067     0.7467   205.4400     5.6012    -0.0083
  644   12.860   3128.14     5.0405     0.0546     0.1073     0.1286     5.0823     1.0761   205.7600     4.8765    -0.0060
  645   12.880   3129.11     4.4885     0.0676     0.1214     0.1288     4.5361     1.4963   206.0800     4.3300    -0.0035
  646   12.900   3130.12     4.2091     0.0682     0.1345     0.1290     4.2640     1.5986   206.4000     4.0576     0.0004
  647   12.920   3131.10     4.4941     0.0760     0.1379     0.1292     4.5520     1.7722   206.7200     4.3453     0.0020
  648   12.940   3132.11     6.1017     0.0890     0.1372     0.1294     6.1595     1.7466   207.0400     5.9524     0.0014
  649   12.960   3133.14     8.6756     0.0895     0.1343     0.1296     8.7330     1.1773   207.3600     8.5256     0.0008
  650   12.980   3134.19    10.5324     0.0887     0.0969     0.1298    10.5798     0.8597   207.6800    10.3721    -0.0016
  651   13.000   3135.19    12.6705     0.0902     0.0418     0.1300    12.7000     0.7218   208.0000    12.4920    -0.0048
  652   13.020   3136.24    15.3184     0.0955     0.0292     0.1302    15.3208     0.6332   208.3200    15.1125    -0.0083
  653   13.040   3137.26    17.6019     0.0989     0.0837     0.1304    17.6312     0.5760   208.6400    17.4226    -0.0035
  654   13.060   3138.26    20.1498     0.1108     0.1052     0.1306    20.1901     0.5650   208.9600    19.9811    -0.0018
  655   13.080   3139.28    22.6918     0.1204     0.1327     0.1308    22.7447     0.5423   209.2800    22.5354    -0.0002
  656   13.100   3140.21    24.8035     0.1271     0.1293     0.1310    24.8551     0.5191   209.6000    24.6455    -0.0003
  657   13.120   3141.21    26.4424     0.1360     0.1336     0.1312    26.4993     0.5185   209.9200    26.2894     0.0002
  658   13.140   3142.21    27.6373     0.1411     0.1313     0.1314    27.6929     0.5136   210.2400    27.4827     0.0000
  659   13.160   3143.21    28.8669     0.1437     0.1375     0.1316    28.9229     0.5000   210.5600    28.7123     0.0001
  660   13.180   3144.16    30.0588     0.1463     0.1337     0.1318    30.1177     0.4865   210.8800    29.9068     0.0003
  661   13.200   3145.16    31.4425     0.1489     0.1344     0.1320    31.4983     0.4729   211.2000    31.2871     0.0000
  662   13.220   3146.16    33.0776     0.1515     0.1278     0.1322    33.1306     0.4593   211.5200    32.9191    -0.0002
  663   13.240   3147.22    34.8473     0.1688     0.1315     0.1324    34.9029     0.4911   211.8400    34.6910     0.0000
  664   13.260   3151.37    35.1490     0.1666     0.1288     0.1326    35.2035     0.4782   212.1600    34.9914    -0.0001
  665   13.280   3155.52    35.4509     0.1725     0.1261     0.1328    35.5042     0.4950   212.4800    35.2917    -0.0002
  666   13.300   3159.68    35.7526     0.1754     0.1235     0.1330    35.8049     0.5034   212.8000    35.5921    -0.0002
  667   13.320   3163.83    36.0545     0.1763     0.1208     0.1332    36.1056     0.5060   213.1200    35.8925    -0.0003
  668   13.340   3167.50    33.6779     0.1745     0.1225     0.1334    33.7356     0.5360   213.4400    33.5221     0.0001
  669   13.360   3168.52    34.7708     0.1606     0.1087     0.1336    34.8190     0.4605   213.7600    34.6052    -0.0005
  670   13.380   3169.49    33.9285     0.1420     0.1074     0.1338    33.9723     0.4161   214.0800    33.7583    -0.0009
  671   13.400   3170.47    33.4802     0.1335     0.1169     0.1340    33.5273     0.3933   214.4000    33.3129    -0.0007
  672   13.420   3171.45    33.2786     0.1251     0.1118     0.1342    33.3261     0.3705   214.7200    33.1113    -0.0006
  673   13.440   3172.44    33.5806     0.1166     0.1226     0.1344    33.6283     0.3478   215.0400    33.4133    -0.0006
  674   13.460   3173.44    34.3157     0.1164     0.1181     0.1346    34.3659     0.3436   215.3600    34.1505    -0.0004
  675   13.480   3174.45    35.3387     0.1176     0.1211     0.1348    35.3885     0.3375   215.6800    35.1729    -0.0005
  676   13.500   3176.17    35.2608     0.1184     0.1200     0.1350    35.3114     0.3328   216.0000    35.0954    -0.0004
  677   13.520   3178.12    34.8268     0.1207     0.1189     0.1352    34.8769     0.3392   216.3200    34.6606    -0.0005
  678   13.540   3180.06    34.3927     0.1175     0.1178     0.1354    34.4423     0.3302   216.6400    34.2257    -0.0005
  679   13.560   3181.63    33.1961     0.1160     0.1345     0.1356    33.2493     0.3423   216.9600    33.0323    -0.0003
  680   13.580   3182.61    30.8549     0.1143     0.1312     0.1358    30.9102     0.3621   217.2800    30.6929    -0.0001
  681   13.600   3183.50    28.9687     0.1016     0.1410     0.1360    29.0252     0.3434   217.6000    28.8076     0.0000
  682   13.620   3184.47    27.2692     0.0958     0.1426     0.1362    27.3311     0.3472   217.9200    27.1132     0.0004
  683   13.640   3185.42    26.8251     0.0988     0.1481     0.1364    26.8851     0.3684   218.2400    26.6669     0.0002
  684   13.660   3186.43    27.3384     0.1016     0.1471     0.1366    27.3977     0.3735   218.5600    27.1792     0.0002
  685   13.680   3187.40    28.7760     0.1089     0.1311     0.1368    28.8341     0.3808   218.8800    28.6152     0.0001
  686   13.700   3188.38    30.2797     0.1131     0.1362     0.1370    30.3339     0.3759   219.2000    30.1147    -0.0003
  687   13.720   3189.36    32.0244     0.1179     0.1362     0.1372    32.0824     0.3700   219.5200    31.8629     0.0000
  688   13.740   3190.33    33.1909     0.1231     0.1366     0.1374    33.2482     0.3717   219.8400    33.0284     0.0000
  689   13.760   3191.40    34.6414     0.1317     0.1424     0.1376    34.7014     0.3832   220.1600    34.4812     0.0002
  690   13.780   3192.36    36.3142     0.1403     0.1168     0.1378    36.3710     0.3883   220.4800    36.1506    -0.0001
  691   13.800   3193.38    37.5694     0.1486     0.1153     0.1380    37.6230     0.3983   220.8000    37.4022    -0.0003
  692   13.820   3194.40    38.3607     0.1545     0.1298     0.1382    38.4166     0.4032   221.1200    38.1955    -0.0001
  693   13.840   3195.36    38.2021     0.1577     0.1386     0.1384    38.2579     0.4105   221.4400    38.0365    -0.0001
  694   13.860   3196.37    37.2115     0.1806     0.1321     0.1386    37.2688     0.4819   221.7600    37.0470    -0.0001
  695   13.880   3197.35    36.0474     0.1974     0.1282     0.1388    36.0998     0.5435   222.0800    35.8777    -0.0004
  696   13.900   3198.31    34.8933     0.2005     0.1458     0.1390    34.9528     0.5705   222.4000    34.7304     0.0001
  697   13.920   3199.26    33.9042     0.1994     0.1390     0.1392    33.9609     0.5854   222.7200    33.7382    -0.0001
  698   13.940   3200.24    33.5557     0.2061     0.1295     0.1394    33.6185     0.6128   223.0400    33.3955     0.0003
  699   13.960   3201.23    33.2450     0.2194     0.1557     0.1396    33.3026     0.6582   223.3600    33.0793    -0.0001
  700   13.980   3202.22    33.0897     0.2376     0.1470     0.1398    33.1542     0.7178   223.6800    32.9305     0.0004
  701   14.000   3203.20    33.0117     0.2494     0.1581     0.1400    33.0795     0.7553   224.0000    32.8555     0.0006
  702   14.020   3204.14    33.3258     0.2536     0.1363     0.1402    33.3803     0.7613   224.3200    33.1559    -0.0003
  703   14.040   3205.13    33.6457     0.2609     0.1462     0.1404    33.7101     0.7765   224.6400    33.4855     0.0004
  704   14.060   3206.13    33.9548     0.2701     0.1412     0.1406    34.0130     0.7968   224.9600    33.7881    -0.0001
  705   14.080   3207.09    34.0542     0.2831     0.1274     0.1408    34.1078     0.8313   225.2800    33.8825    -0.0004
  706   14.100   3208.06    34.0106     0.2887     0.1473     0.1410    34.0714     0.8485   225.6000    33.8458     0.0001
  707   14.120   3209.05    34.0088     0.2850     0.1476     0.1412    34.0700     0.8373   225.9200    33.8440     0.0001
  708   14.140   3210.05    33.9272     0.2847     0.1506     0.1414    33.9907     0.8392   226.2400    33.7644     0.0003
  709   14.160   3211.02    33.8785     0.2796     0.1382     0.1416    33.9390     0.8234   226.5600    33.7124     0.0001
  710   14.180   3212.05    33.9843     0.2729     0.1428     0.1418    34.0443     0.8027   226.8800    33.8174     0.0000
  711   14.200   3213.05    33.9922     0.2681     0.1460     0.1420    34.0539     0.7879   227.2000    33.8267     0.0001
  712   14.220   3214.04    34.1075     0.2718     0.1332     0.1422    34.1643     0.7977   227.5200    33.9368    -0.0002
  713   14.240   3215.00    34.3969     0.2741     0.1536     0.1424    34.4597     0.7994   227.8400    34.2319     0.0002
  714   14.260   3232.93    34.6449     0.2810     0.1534     0.1426    34.7086     0.8109   228.1600    34.4804     0.0003
  715   14.280   3282.98    34.6158     0.2850     0.1584     0.1428    34.6816     0.8224   228.4800    34.4531     0.0004
  716   14.300   3333.02    34.5867     0.2858     0.1604     0.1430    34.6546     0.8250   228.8000    34.4258     0.0005
  717   14.320   3346.49    35.0467     0.2841     0.1459     0.1432    35.1093     0.8150   229.1200    34.8802     0.0002
  718   14.340   3347.45    35.6512     0.2810     0.1348     0.1434    35.7086     0.7911   229.4400    35.4791    -0.0002
  719   14.360   3348.46    36.2907     0.2789     0.1328     0.1436    36.3487     0.7708   229.7600    36.1190    -0.0002
  720   14.380   3349.44    36.7867     0.2807     0.1399     0.1438    36.8423     0.7650   230.0800    36.6122    -0.0003
  721   14.400   3350.38    37.2932     0.2781     0.1409     0.1440    37.3526     0.7463   230.4000    37.1222    -0.0001
  722   14.420   3351.37    37.8748     0.2786     0.1409     0.1442    37.9341     0.7382   230.7200    37.7034    -0.0001
  723   14.440   3352.35    38.3719     0.2790     0.1385     0.1444    38.4289     0.7301   231.0400    38.1978    -0.0002
  724   14.460   3353.37    38.7629     0.2802     0.1483     0.1446    38.8247     0.7236   231.3600    38.5933     0.0001
  725   14.480   3354.37    39.0756     0.2761     0.1329     0.1448    39.1318     0.7074   231.6800    38.9001    -0.0003
  726   14.500   3355.35    39.5562     0.2780     0.1303     0.1450    39.6159     0.7043   232.0000    39.3839    -0.0001
  727   14.520   3357.74    39.7575     0.2814     0.1223     0.1452    39.8101     0.7083   232.3200    39.5778    -0.0005
  728   14.540   3360.70    39.8049     0.2833     0.1143     0.1454    39.8540     0.7133   232.6400    39.6214    -0.0007
  729   14.560   3363.35    39.7866     0.2790     0.1263     0.1456    39.8351     0.7007   232.9600    39.6021    -0.0008
  730   14.580   3364.35    39.2976     0.2750     0.1392     0.1458    39.3517     0.6981   233.2800    39.1184    -0.0004
  731   14.600   3365.34    38.9625     0.2760     0.1618     0.1460    39.0277     0.7087   233.6000    38.7941     0.0002
  732   14.620   3366.34    39.1011     0.2784     0.1600     0.1462    39.1685     0.7126   233.9200    38.9346     0.0004
  733   14.640   3367.35    39.1186     0.2749     0.1692     0.1464    39.1864     0.7026   234.2400    38.9522     0.0004
  734   14.660   3368.36    39.0694     0.2655     0.1154     0.1466    39.1205     0.6788   234.5600    38.8859    -0.0006
  735   14.680   3369.35    38.9465     0.2546     0.1290     0.1468    39.0031     0.6533   234.8800    38.7682    -0.0003
  736   14.700   3370.33    38.8668     0.2622     0.1422     0.1470    38.9290     0.6748   235.2000    38.6937     0.0000
  737   14.720   3371.33    38.6608     0.2724     0.1402     0.1472    38.7216     0.7035   235.5200    38.4860    -0.0001
  738   14.740   3372.28    38.1342     0.2771     0.1465     0.1474    38.1961     0.7246   235.8400    37.9603     0.0000
  739   14.760   3373.28    37.5263     0.2815     0.1427     0.1476    37.5893     0.7485   236.1600    37.3531     0.0001
  740   14.780   3374.26    37.0626     0.2741     0.1429     0.1478    37.1236     0.7370   236.4800    36.8871    -0.0001
  741   14.800   3375.28    36.7143     0.2591     0.1554     0.1480    36.7814     0.7035   236.8000    36.5446     0.0003
  742   14.820   3376.24    36.3399     0.2415     0.1276     0.1482    36.4004     0.6627   237.1200    36.1633    -0.0001
  743   14.840   3377.23    36.0851     0.2215     0.1395     0.1484    36.1352     0.6106   237.4400    35.8978    -0.0008
  744   14.860   3378.18    35.4702     0.1975     0.1298     0.1486    35.5239     0.5497   237.7600    35.2862    -0.0006
  745   14.880   3379.16    34.3262     0.1806     0.1252     0.1488    34.3767     0.5180   238.0800    34.1386    -0.0008
  746   14.900   3380.14    32.9179     0.1608     0.1250     0.1490    32.9713     0.4803   238.4000    32.7329    -0.0007
  747   14.920   3381.08    31.4635     0.1421     0.1085     0.1492    31.5104     0.4413   238.7200    31.2717    -0.0012
  748   14.940   3382.02    30.0238     0.1234     0.1182     0.1494    30.0721     0.4022   239.0400    29.8331    -0.0011
  749   14.960   3382.92    28.6781     0.1059     0.1275     0.1496    28.7292     0.3666   239.3600    28.4898    -0.0010
  750   14.980   3383.89    27.3682     0.1043     0.1286     0.1498    27.4208     0.3782   239.6800    27.1811    -0.0009
  751   15.000   3384.86    26.4965     0.1054     0.1191     0.1500    26.5439     0.3970   240.0000    26.3039    -0.0014
  752   15.020   3386.99    26.3436     0.0913     0.1149     0.1502    26.3924     0.3460   240.3200    26.1521    -0.0013
  753   15.040   3389.69    26.3012     0.0867     0.1107     0.1504    26.3483     0.3288   240.6400    26.1076    -0.0015
  754   15.060   3392.38    26.2588     0.0867     0.1079     0.1506    26.3041     0.3287   240.9600    26.0632    -0.0016
  755   15.080   3393.85    25.6817     0.0835     0.1081     0.1508    25.7323     0.3225   241.2800    25.4910    -0.0012
  756   15.100   3394.80    24.7974     0.0814     0.1187     0.1510    24.8504     0.3242   241.6000    24.6088    -0.0010
  757   15.120   3395.78    24.1855     0.0760     0.1468     0.1512    24.2406     0.3118   241.9200    23.9987    -0.0008
  758   15.140   3396.76    24.1255     0.0719     0.1485     0.1514    24.1876     0.2975   242.2400    23.9453    -0.0002
  759   15.160   3397.68    23.8318     0.0712     0.1440     0.1516    23.8869     0.2981   242.5600    23.6443    -0.0009
  760   15.180   3398.65    23.7759     0.0727     0.1556     0.1518    23.8407     0.3061   242.8800    23.5979     0.0001
  761   15.200   3399.61    24.3542     0.0695     0.1441     0.1520    24.4165     0.2885   243.2000    24.1733    -0.0001
  762   15.220   3400.56    25.5817     0.0663     0.1497     0.1522    25.6401     0.2623   243.5200    25.3966    -0.0005
  763   15.240   3401.56    26.1713     0.0661     0.1525     0.1524    26.2355     0.2531   243.8400    25.9917     0.0000
  764   15.260   3402.51    26.1363     0.0680     0.1565     0.1526    26.2022     0.2604   244.1600    25.9581     0.0002
  765   15.280   3403.47    26.1296     0.0706     0.1493     0.1528    26.1953     0.2707   244.4800    25.9508     0.0001
  766   15.300   3404.45    26.6738     0.0687     0.1414     0.1530    26.7306     0.2598   244.8000    26.4857    -0.0007
  767   15.320   3405.40    27.3374     0.0738     0.1531     0.1532    27.3999     0.2722   245.1200    27.1548    -0.0002
  768   15.340   3406.38    27.2609     0.0819     0.1529     0.1534    27.3223     0.2993   245.4400    27.0769    -0.0003
  769   15.360   3407.33    26.6604     0.0856     0.1374     0.1536    26.7203     0.3170   245.7600    26.4745    -0.0004
  770   15.380   3408.28    26.0692     0.0833     0.1386     0.1538    26.1280     0.3176   246.0800    25.8820    -0.0005
  771   15.400   3409.23    25.7949     0.0841     0.1380     0.1540    25.8594     0.3245   246.4000    25.6130     0.0000
  772   15.420   3410.15    25.2580     0.0856     0.1530     0.1542    25.3212     0.3341   246.7200    25.0745    -0.0001
  773   15.440   3411.10    24.0015     0.0860     0.1503     0.1544    24.0661     0.3500   247.0400    23.8190     0.0000
  774   15.460   3412.04    22.5963     0.0880     0.1547     0.1546    22.6610     0.3799   247.3600    22.4136     0.0000
  775   15.480   3413.01    21.7455     0.0864     0.1556     0.1548    21.8109     0.3931   247.6800    21.5632     0.0000
  776   15.500   3413.96    21.3181     0.0813     0.1438     0.1550    21.3787     0.3796   248.0000    21.1307    -0.0005
  777   15.520   3414.89    21.0795     0.0778     0.1524     0.1552    21.1427     0.3675   248.3200    20.8943    -0.0002
  778   15.540   3415.84    21.0555     0.0751     0.1568     0.1554    21.1202     0.3570   248.6400    20.8716    -0.0001
  779   15.560   3416.79    21.3063     0.0745     0.1500     0.1556    21.3698     0.3517   248.9600    21.1208    -0.0002
  780   15.580   3417.73    21.8063     0.0745     0.1499     0.1558    21.8711     0.3447   249.2800    21.6218    -0.0001
  781   15.600   3418.71    22.0526     0.0749     0.1560     0.1560    22.1164     0.3412   249.6000    21.8668    -0.0002
  782   15.620   3419.67    22.0335     0.0719     0.1609     0.1562    22.1025     0.3264   249.9200    21.8526     0.0004
  783   15.640   3420.60    21.6400     0.0666     0.1611     0.1564    21.7065     0.3055   250.2400    21.4563     0.0001
  784   15.660   3421.56    21.1611     0.0622     0.1593     0.1566    21.2298     0.2911   250.5600    20.9792     0.0003
  785   15.680   3422.53    20.7181     0.0650     0.1632     0.1568    20.7857     0.3108   250.8800    20.5348     0.0002
  786   15.700   3423.47    20.6034     0.0695     0.1647     0.1570    20.6722     0.3383   251.2000    20.4210     0.0003
  787   15.720   3424.41    20.8604     0.0719     0.1626     0.1572    20.9273     0.3464   251.5200    20.6758     0.0001
  788   15.740   3425.41    21.6808     0.0730     0.1613     0.1574    21.7476     0.3425   251.8400    21.4958     0.0001
  789   15.760   3426.36    22.4296     0.0761     0.1634     0.1576    22.4969     0.3431   252.1600    22.2448     0.0001
  790   15.780   3427.32    22.5488     0.0775     0.1622     0.1578    22.6161     0.3430   252.4800    22.3636     0.0001
  791   15.800   3428.25    22.3619     0.0782     0.1646     0.1580    22.4299     0.3487   252.8000    22.1771     0.0002
  792   15.820   3429.23    22.5170     0.0781     0.1602     0.1582    22.5851     0.3485   253.1200    22.3320     0.0002
  793   15.840   3430.14    22.9671     0.0771     0.1633     0.1584    23.0352     0.3381   253.4400    22.7818     0.0002
  794   15.860   3431.13    23.3660     0.0785     0.1657     0.1586    23.4350     0.3377   253.7600    23.1813     0.0003
  795   15.880   3432.08    23.5627     0.0838     0.1652     0.1588    23.6316     0.3561   254.0800    23.3775     0.0002
  796   15.900   3433.05    23.5881     0.0894     0.1634     0.1590    23.6569     0.3791   254.4000    23.4025     0.0002
  797   15.920   3433.99    23.7198     0.0963     0.1657     0.1592    23.7887     0.4082   254.7200    23.5340     0.0002
  798   15.940   3434.98    24.4694     0.1022     0.1703     0.1594    24.5413     0.4229   255.0400    24.2862     0.0005
  799   15.960   3435.94    25.3975     0.1063     0.1562     0.1596    25.4654     0.4222   255.3600    25.2100     0.0001
  800   15.980   3436.88    26.1805     0.1103     0.1562     0.1598    26.2480     0.4255   255.6800    25.9924     0.0000
  801   16.000   3437.87    26.9352     0.1155     0.1568     0.1600    27.0000     0.4325   256.0000    26.7440    -0.0002
  802   16.020   3438.84    27.5844     0.1168     0.1404     0.1602    27.6493     0.4261   256.3200    27.3930    -0.0002
  803   16.040   3439.80    27.5446     0.1128     0.1379     0.1604    27.6005     0.4083   256.6400    27.3439    -0.0010
  804   16.060   3440.79    27.0067     0.1044     0.1440     0.1606    27.0649     0.3839   256.9600    26.8080    -0.0008
  805   16.080   3441.71    26.4027     0.0937     0.1551     0.1608    26.4655     0.3523   257.2800    26.2082    -0.0004
  806   16.100   3442.71    25.7650     0.0849     0.1589     0.1610    25.8304     0.3266   257.6000    25.5728    -0.0002
  807   16.120   3443.62    25.1121     0.0770     0.1573     0.1612    25.1782     0.3040   257.9200    24.9203    -0.0002
  808   16.140   3444.57    24.8039     0.0676     0.1561     0.1614    24.8672     0.2726   258.2400    24.6090    -0.0004
  809   16.160   3445.56    25.0798     0.0668     0.1564     0.1616    25.1463     0.2676   258.5600    24.8877    -0.0001
  810   16.180   3446.52    25.5308     0.0688     0.1637     0.1618    25.5985     0.2723   258.8800    25.3396     0.0000
  811   16.200   3447.50    25.5704     0.0707     0.1640     0.1620    25.6393     0.2769   259.2000    25.3801     0.0001
  812   16.220   3448.45    25.3874     0.0731     0.1673     0.1622    25.4574     0.2864   259.5200    25.1979     0.0002
  813   16.240   3449.42    24.9729     0.0714     0.1658     0.1624    25.0439     0.2837   259.8400    24.7840     0.0003
  814   16.260   3453.11    24.6117     0.0717     0.1647     0.1626    24.6809     0.2905   260.1600    24.4207     0.0001
  815   16.280   3468.52    24.7607     0.0752     0.1645     0.1628    24.8298     0.3059   260.4800    24.5694     0.0001
  816   16.300   3483.92    24.9098     0.0784     0.1643     0.1630    24.9788     0.3189   260.8000    24.7180     0.0001
  817   16.320   3492.19    25.1588     0.0786     0.1638     0.1632    25.2274     0.3139   261.1200    24.9662     0.0000
  818   16.340   3493.19    25.4026     0.0787     0.1682     0.1634    25.4710     0.3110   261.4400    25.2096     0.0000
  819   16.360   3494.12    25.2165     0.0817     0.1636     0.1636    25.2846     0.3231   261.7600    25.0228    -0.0001
  820   16.380   3495.07    24.9570     0.0834     0.1629     0.1638    25.0268     0.3333   262.0800    24.7647     0.0001
  821   16.400   3496.03    24.8533     0.0806     0.1676     0.1640    24.9217     0.3240   262.4000    24.6593     0.0000
  822   16.420   3496.96    24.6125     0.0759     0.1561     0.1642    24.6810     0.3072   262.7200    24.4182    -0.0001
  823   16.440   3497.91    24.2320     0.0722     0.1640     0.1644    24.3003     0.2953   263.0400    24.0373    -0.0001
  824   16.460   3498.89    23.4418     0.0712     0.1646     0.1646    23.5124     0.2994   263.3600    23.2490     0.0001
  825   16.480   3499.82    22.4884     0.0724     0.1606     0.1648    22.5591     0.3151   263.6800    22.2954     0.0002
  826   16.500   3500.78    21.5957     0.0695     0.1620     0.1650    21.6649     0.3163   264.0000    21.4009     0.0000
  827   16.520   3501.74    20.7756     0.0648     0.1638     0.1652    20.8421     0.3064   264.3200    20.5778    -0.0003
  828   16.540   3502.66    19.7743     0.0603     0.1685     0.1654    19.8410     0.2991   264.6400    19.5764    -0.0003
  829   16.560   3503.62    19.2261     0.0572     0.1661     0.1656    19.2959     0.2943   264.9600    19.0310     0.0000
  830   16.580   3504.54    18.8331     0.0567     0.1655     0.1658    18.9027     0.2976   265.2800    18.6375     0.0000
  831   16.600   3505.48    18.3653     0.0562     0.1717     0.1660    18.4363     0.3019   265.6000    18.1707     0.0002
  832   16.620   3506.44    18.0656     0.0552     0.1657     0.1662    18.1367     0.3045   265.9200    17.8708     0.0002
  833   16.640   3507.38    17.9897     0.0543     0.1671     0.1664    18.0606     0.3013   266.2400    17.7944     0.0001
  834   16.660   3508.31    17.7079     0.0514     0.1713     0.1666    17.7795     0.2873   266.5600    17.5130     0.0002
  835   16.680   3509.26    17.0212     0.0548     0.1726     0.1668    17.0935     0.3176   266.8800    16.8267     0.0003
  836   16.700   3510.21    16.0807     0.0563     0.1697     0.1670    16.1512     0.3451   267.2000    15.8840     0.0001
  837   16.720   3511.14    14.9025     0.0546     0.1651     0.1672    14.9719     0.3610   267.5200    14.7044    -0.0001
  838   16.740   3512.10    13.5901     0.0544     0.1685     0.1674    13.6605     0.3943   267.8400    13.3927     0.0000
  839   16.760   3513.05    12.1191     0.0552     0.1731     0.1676    12.1913     0.4492   268.1600    11.9231     0.0004
  840   16.780   3514.04    10.0141     0.0602     0.1702     0.1678    10.0860     0.5866   268.4800     9.8175     0.0004
  841   16.800   3515.03     8.1854     0.0659     0.1653     0.1680     8.2556     0.7849   268.8000     7.9868    -0.0001
  842   16.820   3516.05     6.0906     0.0794     0.1697     0.1682     6.1611     1.2511   269.1200     5.8920     0.0000
  843   16.840   3517.05     4.4564     0.0925     0.1731     0.1684     4.5286     1.9935   269.4400     4.2592     0.0008
  844   16.860   3518.03     3.1684     0.0959     0.1732     0.1686     3.2410     2.8552   269.7600     2.9712     0.0014
  845   16.880   3519.00     2.4024     0.0923     0.1758     0.1688     2.4760     3.7011   270.0800     2.2060     0.0030
  846   16.900   3520.00     1.9741     0.0853     0.1771     0.1690     2.0483     4.1839   270.4000     1.7779     0.0043
  847   16.920   3520.97     1.6848     0.0751     0.1781     0.1692     1.7593     4.2974   270.7200     1.4886     0.0056
  848   16.940   3521.98     1.2392     0.0600     0.1931     0.1694     1.3167     4.6342   271.0400     1.0456     0.0148
  849   16.960   3522.99     0.9761     0.0450     0.2537     0.1696     1.0684     4.4310   271.3600     0.7971     0.0640
  850   16.980   3523.97     0.8186     0.0270     0.4844     0.1698     0.9868     3.2462   271.6800     0.7151     0.3214
  851   17.000   3524.96     0.7665     0.0161     0.5816     0.1700     1.0058     2.0796   272.0000     0.7338     0.5449
  852   17.020   3525.96     0.7414     0.0137     0.6039     0.1702     0.9931     1.8405   272.3200     0.7208     0.5954
  853   17.040   3526.93     0.7224     0.0127     0.6190     0.1704     0.9817     1.7542   272.6400     0.7090     0.6303
  854   17.060   3527.95     0.7168     0.0128     0.6105     0.1706     0.9747     1.7822   272.9600     0.7017     0.6317
  855   17.080   3528.92     0.7152     0.0135     0.6221     0.1708     0.9738     1.8873   273.2800     0.7005     0.6352
  856   17.100   3529.88     0.7118     0.0141     0.6268     0.1710     0.9753     1.9877   273.6000     0.7017     0.6503
  857   17.120   3530.92     0.7066     0.0150     0.6324     0.1712     0.9722     2.1222   273.9200     0.6983     0.6602
  858   17.140   3531.94     0.7050     0.0152     0.6172     0.1714     0.9650     2.1542   274.2400     0.6907     0.6481
  859   17.160   3532.94     0.6902     0.0168     0.6177     0.1716     0.9489     2.4262   274.5600     0.6744     0.6592
  860   17.180   3533.95     0.6801     0.0299     0.6231     0.1718     0.9418     4.3915   274.8800     0.6669     0.6767
  861   17.200   3534.92     0.6721     0.0364     0.6264     0.1720     0.9349     5.3927   275.2000     0.6597     0.6877
  862   17.220   3535.91     0.6612     0.0341     0.6283     0.1722     0.9252     5.1435   275.5200     0.6497     0.7025
  863   17.240   3536.88     0.6537     0.0343     0.6211     0.1724     0.9157     5.2511   275.8400     0.6398     0.7053
  864   17.260   3537.87     0.6684     0.0350     0.6180     0.1726     0.9302     5.2450   276.1600     0.6541     0.6894
  865   17.280   6942.10     0.8865     0.0336     0.4827     0.1728     1.1089     4.9917   276.4800     0.8324     0.4782
  866   17.300  10864.36     1.0935     0.0318     0.4102     0.1730     1.2679     2.8835   276.8000     0.9911     0.2448
  867   17.320  10865.39     0.9573     0.0295     0.4217     0.1732     1.1289     3.0381   277.1200     0.8518     0.2767
  868   17.340  10866.37     0.8963     0.0281     0.4834     0.1734     1.0905     3.0933   277.4400     0.8130     0.3554
  869   17.360  10867.36     0.8405     0.0256     0.5258     0.1736     1.0552     3.0021   277.7600     0.7774     0.4344
  870   17.380  10868.35     0.8073     0.0215     0.5489     0.1738     1.0347     2.6554   278.0800     0.7567     0.4860
  871   17.400  10869.35     0.7987     0.0185     0.5472     0.1740     1.0278     2.3126   278.4000     0.7494     0.4958
  872   17.420  10870.31     0.7938     0.0172     0.5570     0.1742     1.0254     2.1690   278.7200     0.7467     0.5053
  873   17.440  10871.26     0.7911     0.0172     0.5555     0.1744     1.0250     2.1729   279.0400     0.7460     0.5129
  874   17.460  10872.27     0.7932     0.0171     0.5638     0.1746     1.0278     2.1513   279.3600     0.7485     0.5130
  875   17.480  10873.28     0.7884     0.0166     0.5632     0.1748     1.0274     2.1005   279.6800     0.7477     0.5273
  876   17.500  10874.27     0.7861     0.0160     0.5718     0.1750     1.0258     2.0317   280.0000     0.7458     0.5308
  877   17.520  10875.29     0.7812     0.0154     0.5636     0.1752     1.0188     1.9689   280.3200     0.7385     0.5286
  878   17.540  10876.25     0.7705     0.0155     0.5801     0.1754     1.0096     2.0032   280.6400     0.7290     0.5403
  879   17.560  10877.20     0.7802     0.0153     0.5972     0.1756     1.0301     1.9642   280.9600     0.7491     0.5599
  880   17.580  10878.19     0.7833     0.0148     0.6094     0.1758     1.0398     1.8949   281.2800     0.7586     0.5734
  881   17.600  10879.21     0.7948     0.0152     0.5978     0.1760     1.0441     1.9147   281.6000     0.7625     0.5476
  882   17.620  10880.16     0.8015     0.0156     0.6056     0.1762     1.0578     1.9427   281.9200     0.7759     0.5594
  883   17.640  10881.15     0.7953     0.0152     0.5861     0.1764     1.0432     1.9164   282.2400     0.7609     0.5436
  884   17.660  10882.17     0.8100     0.0164     0.6002     0.1766     1.0587     2.0297   282.5600     0.7762     0.5355
  885   17.680  10883.20     0.8083     0.0164     0.5918     0.1768     1.0579     2.0299   282.8800     0.7750     0.5387
  886   17.700  10884.16     0.8038     0.0166     0.5910     0.1770     1.0508     2.0682   283.2000     0.7676     0.5356
  887   17.720  10885.17     0.7917     0.0165     0.5827     0.1772     1.0396     2.0780   283.5200     0.7561     0.5464
  888   17.740  10886.19     0.7993     0.0166     0.5961     0.1774     1.0476     2.0875   283.8400     0.7638     0.5418
  889   17.760  10887.19     0.8014     0.0164     0.5964     0.1776     1.0526     2.0445   284.1600     0.7685     0.5473
  890   17.780  10888.19     0.7932     0.0168     0.6019     0.1778     1.0439     2.1162   284.4800     0.7595     0.5520
  891   17.800  10889.17     0.8108     0.0173     0.6052     0.1780     1.0643     2.1417   284.8000     0.7795     0.5461
  892   17.820  10890.15     0.8106     0.0175     0.6082     0.1782     1.0664     2.1528   285.1200     0.7813     0.5515
  893   17.840  10891.10     0.8060     0.0173     0.5910     0.1784     1.0576     2.1495   285.4400     0.7721     0.5446
  894   17.860  10892.09     0.8143     0.0174     0.5833     0.1786     1.0610     2.1343   285.7600     0.7753     0.5274
  895   17.880  10893.06     0.8258     0.0175     0.6053     0.1788     1.0755     2.1266   286.0800     0.7894     0.5263
  896   17.900  10894.04     0.8316     0.0176     0.6027     0.1790     1.0871     2.1174   286.4000     0.8007     0.5362
  897   17.920  10895.03     0.8377     0.0179     0.6063     0.1792     1.0914     2.1409   286.7200     0.8047     0.5278
  898   17.940  10896.05     0.8399     0.0179     0.5829     0.1794     1.0878     2.1274   287.0400     0.8008     0.5131
  899   17.960  10897.03     0.8376     0.0176     0.5874     0.1796     1.0830     2.0923   287.3600     0.7956     0.5086
  900   17.980  10898.01     0.8382     0.0176     0.5920     0.1798     1.0871     2.1052   287.6800     0.7995     0.5165
  901   18.000  10899.01     0.8391     0.0176     0.5680     0.1800     1.0817     2.0912   288.0000     0.7937     0.5009
  902   18.020  10900.01     0.8383     0.0181     0.5546     0.1802     1.0714     2.1579   288.3200     0.7831     0.4786
  903   18.040  10900.99     0.8377     0.0178     0.5716     0.1804     1.0763     2.1137   288.6400     0.7876     0.4922
  904   18.060  10901.99     0.8231     0.0183     0.5755     0.1806     1.0642     2.1926   288.9600     0.7752     0.5075
  905   18.080  10902.98     0.8224     0.0188     0.5683     0.1808     1.0616     2.2714   289.2800     0.7723     0.5031
  906   18.100  10903.95     0.8238     0.0190     0.5796     0.1810     1.0634     2.3133   289.6000     0.7738     0.5033
  907   18.120  10904.93     0.8245     0.0191     0.5815     0.1812     1.0687     2.3243   289.9200     0.7788     0.5140
  908   18.140  10905.90     0.8369     0.0188     0.5941     0.1814     1.0840     2.2650   290.2400     0.7938     0.5126
  909   18.160  10915.12     0.8366     0.0187     0.6086     0.1816     1.0901     2.2359   290.5600     0.7995     0.5277
  910   18.180  10927.62     0.8339     0.0186     0.6231     0.1818     1.0935     2.2222   290.8800     0.8026     0.5435
  911   18.200  10940.12     0.8312     0.0182     0.6362     0.1820     1.0969     2.1795   291.2000     0.8057     0.5592
  912   18.220  10942.57     0.8188     0.0176     0.6296     0.1822     1.0854     2.1442   291.5200     0.7939     0.5700
  913   18.240  10943.57     0.8212     0.0170     0.6336     0.1824     1.0865     2.0713   291.8400     0.7946     0.5652
  914   18.260  10944.57     0.8165     0.0162     0.6466     0.1826     1.0859     1.9801   292.1600     0.7937     0.5779
  915   18.280  10945.54     0.8226     0.0166     0.6312     0.1828     1.0907     2.0168   292.4800     0.7982     0.5706
  916   18.300  10946.56     0.8330     0.0164     0.6433     0.1830     1.1021     1.9718   292.8000     0.8093     0.5657
  917   18.320  10947.56     0.8330     0.0164     0.6331     0.1832     1.0991     1.9743   293.1200     0.8060     0.5587
  918   18.340  10948.57     0.8289     0.0164     0.6351     0.1834     1.0949     1.9693   293.4400     0.8015     0.5614
  919   18.360  10949.56     0.8299     0.0166     0.6395     0.1836     1.0997     2.0064   293.7600     0.8059     0.5691
  920   18.380  10950.52     0.8293     0.0168     0.6419     0.1838     1.0969     2.0305   294.0800     0.8028     0.5647
  921   18.400  10951.51     0.8344     0.0170     0.6501     0.1840     1.1070     2.0377   294.4000     0.8126     0.5723
  922   18.420  10952.53     0.8360     0.0172     0.6492     0.1842     1.1095     2.0571   294.7200     0.8148     0.5731
  923   18.440  10953.52     0.8424     0.0173     0.6440     0.1844     1.1118     2.0562   295.0400     0.8168     0.5597
  924   18.460  10954.50     0.8443     0.0177     0.6509     0.1846     1.1179     2.1002   295.3600     0.8225     0.5676
  925   18.480  10955.49     0.8444     0.0175     0.6513     0.1848     1.1176     2.0670   295.6800     0.8219     0.5666
  926   18.500  10956.52     0.8498     0.0180     0.6648     0.1850     1.1284     2.1184   296.0000     0.8324     0.5745
  927   18.520  10957.49     0.8532     0.0178     0.6521     0.1852     1.1294     2.0874   296.3200     0.8331     0.5670
  928   18.540  10958.45     0.8550     0.0180     0.6629     0.1854     1.1300     2.1056   296.6400     0.8333     0.5632
  929   18.560  10959.47     0.8565     0.0179     0.6607     0.1856     1.1363     2.0967   296.9600     0.8394     0.5726
  930   18.580  10960.46     0.8588     0.0176     0.6408     0.1858     1.1298     2.0544   297.2800     0.8325     0.5519
  931   18.600  10961.42     0.8583     0.0175     0.6516     0.1860     1.1314     2.0369   297.6000     0.8338     0.5568
  932   18.620  10962.44     0.8613     0.0175     0.6534     0.1862     1.1349     2.0338   297.9200     0.8370     0.5560
  933   18.640  10963.44     0.8570     0.0171     0.6576     0.1864     1.1308     1.9968   298.2400     0.8325     0.5589
  934   18.660  10964.45     0.8517     0.0172     0.6706     0.1866     1.1326     2.0138   298.5600     0.8340     0.5782
  935   18.680  10965.45     0.8494     0.0173     0.6667     0.1868     1.1307     2.0304   298.8800     0.8318     0.5805
  936   18.700  10966.49     0.8454     0.0173     0.6566     0.1870     1.1216     2.0531   299.2000     0.8224     0.5724
  937   18.720  10967.50     0.8434     0.0170     0.6692     0.1872     1.1229     2.0145   299.5200     0.8233     0.5809
  938   18.740  10968.47     0.8452     0.0169     0.6783     0.1874     1.1286     1.9992   299.8400     0.8288     0.5879
  939   18.760  10969.48     0.8578     0.0167     0.6765     0.1876     1.1419     1.9464   300.1600     0.8417     0.5807
  940   18.780  10970.47     0.8536     0.0161     0.6890     0.1878     1.1414     1.8848   300.4800     0.8409     0.5917
  941   18.800  10971.45     0.8535     0.0160     0.6844     0.1880     1.1432     1.8733   300.8000     0.8424     0.5956
  942   18.820  10972.48     0.8552     0.0161     0.6754     0.1882     1.1391     1.8744   301.1200     0.8380     0.5820
  943   18.840  10973.47     0.8483     0.0159     0.6716     0.1884     1.1320     1.8767   301.4400     0.8306     0.5864
  944   18.860  10974.42     0.8481     0.0161     0.6788     0.1886     1.1303     1.9002   301.7600     0.8285     0.5834
  945   18.880  10975.43     0.8556     0.0161     0.6785     0.1888     1.1401     1.8829   302.0800     0.8380     0.5830
  946   18.900  10976.42     0.8534     0.0159     0.6836     0.1890     1.1389     1.8579   302.4000     0.8365     0.5866
  947   18.920  10977.39     0.8548     0.0158     0.6742     0.1892     1.1373     1.8547   302.7200     0.8346     0.5792
  948   18.940  10978.39     0.8619     0.0161     0.6647     0.1894     1.1428     1.8713   303.0400     0.8397     0.5709
  949   18.960  10979.39     0.8562     0.0161     0.6559     0.1896     1.1335     1.8819   303.3600     0.8302     0.5670
  950   18.980  10980.38     0.8562     0.0167     0.6474     0.1898     1.1350     1.9459   303.6800     0.8313     0.5700
  951   19.000  10981.42     0.8589     0.0168     0.6604     0.1900     1.1341     1.9587   304.0000     0.8301     0.5604
  952   19.020  10982.39     0.8636     0.0167     0.6563     0.1902     1.1392     1.9379   304.3200     0.8349     0.5581
  953   19.040  10983.36     0.8650     0.0167     0.6570     0.1904     1.1374     1.9285   304.6400     0.8328     0.5502
  954   19.060  10984.37     0.8558     0.0169     0.6602     0.1906     1.1340     1.9686   304.9600     0.8291     0.5691
  955   19.080  10985.35     0.8565     0.0167     0.6662     0.1908     1.1338     1.9575   305.2800     0.8285     0.5664
  956   19.100  10986.33     0.8636     0.0166     0.6685     0.1910     1.1449     1.9190   305.6000     0.8393     0.5704
  957   19.120  10987.35     0.8744     0.0170     0.6545     0.1912     1.1504     1.9492   305.9200     0.8445     0.5517
  958   19.140  10988.33     0.8945     0.0175     0.6327     0.1914     1.1646     1.9665   306.2400     0.8584     0.5262
  959   19.160  10989.35     0.9007     0.0175     0.6414     0.1916     1.1665     1.9375   306.5600     0.8600     0.5131
  960   19.180  10990.35     0.8825     0.0178     0.6280     0.1918     1.1434     2.0141   306.8800     0.8365     0.5134
  961   19.200  10991.32     0.8759     0.0184     0.6396     0.1920     1.1456     2.0976   307.2000     0.8384     0.5369
  962   19.220  10992.34     0.8614     0.0182     0.6580     0.1922     1.1288     2.1162   307.5200     0.8213     0.5411
  963   19.240  10993.32     0.8597     0.0184     0.6900     0.1924     1.1469     2.1360   307.8400     0.8391     0.5859
  964   19.260  10994.31     0.8642     0.0177     0.6982     0.1926     1.1568     2.0479   308.1600     0.8486     0.5941
  965   19.280  10995.34     0.8565     0.0175     0.6988     0.1928     1.1505     2.0410   308.4800     0.8420     0.6023
  966   19.300  10996.31     0.8662     0.0173     0.7069     0.1930     1.1616     2.0012   308.8000     0.8528     0.5985
  967   19.320  10997.30     0.8694     0.0178     0.7078     0.1932     1.1680     2.0432   309.1200     0.8588     0.6027
  968   19.340  10998.31     0.8651     0.0172     0.6950     0.1934     1.1597     1.9917   309.4400     0.8502     0.5973
  969   19.360  10999.29     0.8724     0.0175     0.6937     0.1936     1.1626     2.0060   309.7600     0.8529     0.5834
  970   19.380  11000.25     0.8746     0.0179     0.7000     0.1938     1.1674     2.0459   310.0800     0.8573     0.5873
  971   19.400  11001.26     0.8709     0.0178     0.7014     0.1940     1.1659     2.0432   310.4000     0.8555     0.5944
  972   19.420  11002.23     0.8653     0.0175     0.6911     0.1942     1.1566     2.0151   310.7200     0.8459     0.5905
  973   19.440  11003.21     0.8651     0.0167     0.6908     0.1944     1.1538     1.9333   311.0400     0.8427     0.5849
  974   19.460  11004.22     0.8600     0.0173     0.6950     0.1946     1.1513     2.0077   311.3600     0.8399     0.5939
  975   19.480  11005.22     0.8604     0.0170     0.7039     0.1948     1.1546     1.9780   311.6800     0.8429     0.5999
  976   19.500  11006.28     0.8535     0.0166     0.7079     0.1950     1.1508     1.9443   312.0000     0.8388     0.6113
  977   19.520  11007.25     0.8520     0.0163     0.7074     0.1952     1.1495     1.9075   312.3200     0.8372     0.6128
  978   19.540  11008.23     0.8667     0.0160     0.7017     0.1954     1.1612     1.8534   312.6400     0.8485     0.5959
  979   19.560  11009.25     0.8625     0.0163     0.7055     0.1956     1.1578     1.8919   312.9600     0.8449     0.6008
  980   19.580  11010.19     0.8556     0.0163     0.7024     0.1958     1.1509     1.9050   313.2800     0.8376     0.6057
  981   19.600  11011.18     0.8635     0.0166     0.6995     0.1960     1.1574     1.9256   313.6000     0.8438     0.5969
  982   19.620  11012.15     0.8692     0.0165     0.7029     0.1962     1.1641     1.8989   313.9200     0.8502     0.5951
  983   19.640  11013.18     0.8728     0.0164     0.7023     0.1964     1.1680     1.8825   314.2400     0.8537     0.5931
  984   19.660  11014.20     0.8801     0.0166     0.6985     0.1966     1.1737     1.8854   314.5600     0.8591     0.5847
  985   19.680  11015.18     0.8861     0.0165     0.6944     0.1968     1.1789     1.8587   314.8800     0.8640     0.5791
  986   19.700  11016.19     0.8811     0.0169     0.6938     0.1970     1.1714     1.9121   315.2000     0.8562     0.5771
  987   19.720  11017.17     0.8770     0.0172     0.6951     0.1972     1.1692     1.9628   315.5200     0.8536     0.5840
  988   19.740  11018.19     0.8747     0.0175     0.6943     0.1974     1.1666     1.9949   315.8400     0.8507     0.5847
  989   19.760  11019.19     0.8834     0.0175     0.6935     0.1976     1.1757     1.9792   316.1600     0.8595     0.5796
  990   19.780  11020.18     0.8872     0.0177     0.6875     0.1978     1.1770     2.0038   316.4800     0.8605     0.5720
  991   19.800  11021.13     0.8901     0.0175     0.6876     0.1980     1.1790     1.9680   316.8000     0.8622     0.5681
  992   19.820  11022.13     0.8966     0.0174     0.6900     0.1982     1.1853     1.9468   317.1200     0.8682     0.5635
  993   19.840  11023.11     0.8967     0.0173     0.6962     0.1984     1.1884     1.9325   317.4400     0.8709     0.5697
  994   19.860  11024.11     0.8831     0.0167     0.6995     0.1986     1.1766     1.8860   317.7600     0.8588     0.5824
  995   19.880  11025.09     0.8892     0.0169     0.7007     0.1988     1.1828     1.8998   318.0800     0.8648     0.5786
  996   19.900  11026.12     0.8930     0.0169     0.7037     0.1990     1.1884     1.8973   318.4000     0.8700     0.5797
  997   19.920  11027.09     0.8904     0.0172     0.7019     0.1992     1.1861     1.9254   318.7200     0.8674     0.5821
  998   19.940  11028.08     0.8988     0.0181     0.6904     0.1994     1.1911     1.9994   319.0400     0.8721     0.5694
  999   19.960  11029.08     0.9177     0.0189     0.6725     0.1996     1.2016     2.0734   319.3600     0.8822     0.5399
 1000   19.980  11030.07     0.9138     0.0193     0.6879     0.1998     1.1997     2.1023   319.6800     0.8801     0.5464
 1001   20.000  11031.07     0.9148     0.0199     0.7012     0.2000     1.2085     2.1797   320.0000     0.8885     0.5618
 1002   20.020  11032.04     0.9109     0.0206     0.7003     0.2002     1.2054     2.2544   320.3200     0.8850     0.5660
 1003   20.040  11046.79     0.9138     0.0203     0.6956     0.2004     1.2066     2.2292   320.6400     0.8860     0.5608
 1004   20.060  11063.94     0.9174     0.0203     0.6909     0.2006     1.2082     2.2334   320.9600     0.8873     0.5545
 1005   20.080  11081.08     0.9209     0.0199     0.6911     0.2008     1.2098     2.1667   321.2800     0.8886     0.5482
 1006   20.100  11082.75     0.9174     0.0195     0.7057     0.2010     1.2133     2.1241   321.6000     0.8917     0.5646
 1007   20.120  11083.71     0.9150     0.0186     0.7097     0.2012     1.2112     2.0314   321.9200     0.8892     0.5666
 1008   20.140  11084.71     0.9099     0.0177     0.7174     0.2014     1.2107     1.9465   322.2400     0.8884     0.5794
 1009   20.160  11085.75     0.9022     0.0178     0.7176     0.2016     1.2035     1.9779   322.5600     0.8810     0.5855
 1010   20.180  11086.75     0.9162     0.0173     0.7215     0.2018     1.2185     1.8990   322.8800     0.8957     0.5785
 1011   20.200  11087.70     0.9141     0.0168     0.7319     0.2020     1.2218     1.8357   323.2000     0.8986     0.5904
 1012   20.220  11088.71     0.9082     0.0169     0.7298     0.2022     1.2150     1.8591   323.5200     0.8915     0.5926
 1013   20.240  11089.68     0.9106     0.0171     0.7308     0.2024     1.2168     1.8776   323.8400     0.8929     0.5897
 1014   20.260  11090.68     0.9117     0.0170     0.7302     0.2026     1.2188     1.8586   324.1600     0.8946     0.5907
 1015   20.280  11091.67     0.9104     0.0169     0.7274     0.2028     1.2162     1.8558   324.4800     0.8917     0.5891
 1016   20.300  11092.69     0.9075     0.0170     0.7212     0.2030     1.2108     1.8753   324.8000     0.8860     0.5858
 1017   20.320  11093.68     0.8988     0.0168     0.7238     0.2032     1.2025     1.8722   325.1200     0.8774     0.5925
 1018   20.340  11094.71     0.8941     0.0167     0.7284     0.2034     1.1992     1.8646   325.4400     0.8737     0.5985
 1019   20.360  11095.64     0.8907     0.0173     0.7311     0.2036     1.1982     1.9401   325.7600     0.8725     0.6060
 1020   20.380  11096.62     0.8974     0.0164     0.7338     0.2038     1.2046     1.8282   326.0800     0.8786     0.6007
 1021   20.400  11097.61     0.8994     0.0159     0.7365     0.2040     1.2081     1.7645   326.4000     0.8817     0.6023
 1022   20.420  11098.62     0.8915     0.0161     0.7349     0.2042     1.2009     1.8015   326.7200     0.8742     0.6093
 1023   20.440  11099.62     0.9002     0.0166     0.7342     0.2044     1.2075     1.8511   327.0400     0.8805     0.5989
 1024   20.460  11100.60     0.8981     0.0169     0.7406     0.2046     1.2083     1.8773   327.3600     0.8809     0.6061
 1025   20.480  11101.58     0.8904     0.0171     0.7437     0.2048     1.2028     1.9252   327.6800     0.8751     0.6158
 1026   20.500  11102.56     0.8952     0.0169     0.7427     0.2050     1.2071     1.8994   328.0000     0.8791     0.6117
 1027   20.520  11103.57     0.9100     0.0168     0.7464     0.2052     1.2227     1.8433   328.3200     0.8944     0.6031
 1028   20.540  11104.57     0.9081     0.0164     0.7556     0.2054     1.2245     1.8069   328.6400     0.8958     0.6115
 1029   20.560  11105.56     0.9079     0.0164     0.7606     0.2056     1.2260     1.8051   328.9600     0.8971     0.6151
 1030   20.580  11106.54     0.9114     0.0162     0.7719     0.2058     1.2344     1.7777   329.2800     0.9051     0.6222
 1031   20.600  11107.53     0.9082     0.0154     0.7714     0.2060     1.2332     1.6954   329.6000     0.9036     0.6285
 1032   20.620  11108.53     0.8973     0.0157     0.7581     0.2062     1.2170     1.7453   329.9200     0.8871     0.6258
 1033   20.640  11109.51     0.9003     0.0160     0.7545     0.2064     1.2174     1.7837   330.2400     0.8872     0.6185
 1034   20.660  11110.53     0.9139     0.0163     0.7556     0.2066     1.2319     1.7875   330.5600     0.9013     0.6109
 1035   20.680  11111.52     0.9161     0.0163     0.7471     0.2068     1.2309     1.7832   330.8800     0.9000     0.6031
 1036   20.700  11112.53     0.9230     0.0160     0.7413     0.2070     1.2348     1.7400   331.2000     0.9036     0.5925
 1037   20.720  11113.51     0.9268     0.0166     0.7374     0.2072     1.2372     1.7865   331.5200     0.9057     0.5875
 1038   20.740  11114.50     0.9286     0.0164     0.7491     0.2074     1.2403     1.7607   331.8400     0.9085     0.5887
 1039   20.760  11115.51     0.9188     0.0166     0.7521     0.2076     1.2351     1.8108   332.1600     0.9029     0.6040
 1040   20.780  11116.49     0.9129     0.0162     0.7504     0.2078     1.2286     1.7663   332.4800     0.8961     0.6069
 1041   20.800  11117.46     0.9087     0.0158     0.7476     0.2080     1.2229     1.7396   332.8000     0.8901     0.6068
 1042   20.820  11118.48     0.9075     0.0162     0.7541     0.2082     1.2232     1.7838   333.1200     0.8901     0.6106
 1043   20.840  11119.46     0.9136     0.0159     0.7582     0.2084     1.2314     1.7380   333.4400     0.8979     0.6104
 1044   20.860  11120.46     0.9012     0.0157     0.7640     0.2086     1.2222     1.7425   333.7600     0.8884     0.6254
 1045   20.880  11121.45     0.8992     0.0152     0.7648     0.2088     1.2194     1.6881   334.0800     0.8854     0.6253
 1046   20.900  11122.46     0.9068     0.0160     0.7723     0.2090     1.2295     1.7767   334.4000     0.8951     0.6247
 1047   20.920  11123.42     0.9181     0.0163     0.7778     0.2092     1.2440     1.7779   334.7200     0.9093     0.6234
 1048   20.940  11124.41     0.9187     0.0163     0.7774     0.2094     1.2454     1.7783   335.0400     0.9104     0.6246
 1049   20.960  11125.39     0.9337     0.0166     0.7750     0.2096     1.2598     1.7839   335.3600     0.9244     0.6130
 1050   20.980  11126.41     0.9683     0.0167     0.7750     0.2098     1.2939     1.7377   335.6800     0.9582     0.5901
 1051   21.000  11127.41     0.9746     0.0171     0.7764     0.2100     1.3013     1.7453   336.0000     0.9653     0.5883
 1052   21.020  11128.41     0.9731     0.0174     0.7587     0.2102     1.2947     1.7834   336.3200     0.9584     0.5796
 1053   21.040  11129.38     0.9644     0.0179     0.7613     0.2104     1.2827     1.8494   336.6400     0.9460     0.5786
 1054   21.060  11130.36     0.9512     0.0182     0.7726     0.2106     1.2738     1.9097   336.9600     0.9368     0.5950
 1055   21.080  11131.35     0.9530     0.0181     0.7767     0.2108     1.2785     1.9051   337.2800     0.9413     0.5994
 1056   21.100  11132.37     0.9529     0.0178     0.7754     0.2110     1.2790     1.8632   337.6000     0.9414     0.6006
 1057   21.120  11133.35     0.9540     0.0169     0.7774     0.2112     1.2800     1.7764   337.9200     0.9421     0.5996
 1058   21.140  11134.41     0.9581     0.0168     0.7856     0.2114     1.2863     1.7548   338.2400     0.9480     0.6011
 1059   21.160  11135.40     0.9671     0.0167     0.7916     0.2116     1.2985     1.7277   338.5600     0.9599     0.6015
 1060   21.180  11136.40     0.9728     0.0169     0.7958     0.2118     1.3068     1.7312   338.8800     0.9680     0.6028
 1061   21.200  11137.39     0.9706     0.0165     0.7947     0.2120     1.3044     1.6976   339.2000     0.9652     0.6039
 1062   21.220  11138.37     0.9642     0.0160     0.7876     0.2122     1.2958     1.6578   339.5200     0.9563     0.6035
 1063   21.240  11139.36     0.9616     0.0162     0.7859     0.2124     1.2918     1.6893   339.8400     0.9520     0.6028
 1064   21.260  11140.36     0.9663     0.0167     0.7861     0.2126     1.2966     1.7223   340.1600     0.9564     0.5999
 1065   21.280  11141.34     0.9611     0.0169     0.7818     0.2128     1.2894     1.7538   340.4800     0.9490     0.5996
 1066   21.300  11142.35     0.9563     0.0175     0.7840     0.2130     1.2854     1.8347   340.8000     0.9446     0.6041
 1067   21.320  11143.34     0.9686     0.0176     0.7838     0.2132     1.2979     1.8245   341.1200     0.9568     0.5966
 1068   21.340  11144.33     0.9637     0.0176     0.7797     0.2134     1.2920     1.8188   341.4400     0.9505     0.5977
 1069   21.360  11145.27     0.9631     0.0178     0.7750     0.2136     1.2900     1.8527   341.7600     0.9482     0.5956
 1070   21.380  11146.30     0.9731     0.0177     0.7762     0.2138     1.2980     1.8190   342.0800     0.9559     0.5855
 1071   21.400  11147.30     0.9705     0.0174     0.7905     0.2140     1.2990     1.7931   342.4000     0.9566     0.5939
 1072   21.420  11148.28     0.9737     0.0171     0.7982     0.2142     1.3089     1.7626   342.7200     0.9662     0.6043
 1073   21.440  11149.32     0.9841     0.0174     0.7965     0.2144     1.3191     1.7690   343.0400     0.9760     0.5974
 1074   21.460  11150.25     0.9921     0.0172     0.8064     0.2146     1.3292     1.7363   343.3600     0.9858     0.5964
 1075   21.480  11151.24     0.9856     0.0174     0.7984     0.2148     1.3239     1.7636   343.6800     0.9802     0.6026
 1076   21.500  11152.20     0.9796     0.0174     0.7947     0.2150     1.3132     1.7745   344.0000     0.9692     0.5977
 1077   21.520  11153.20     0.9812     0.0172     0.7964     0.2152     1.3158     1.7522   344.3200     0.9715     0.5985
 1078   21.540  11154.22     0.9894     0.0171     0.8103     0.2154     1.3280     1.7263   344.6400     0.9833     0.6009
 1079   21.560  11155.23     0.9925     0.0167     0.8126     0.2156     1.3343     1.6860   344.9600     0.9893     0.6046
 1080   21.580  11156.21     0.9885     0.0171     0.8174     0.2158     1.3304     1.7302   345.2800     0.9851     0.6073
 1081   21.600  11157.18     0.9909     0.0174     0.8151     0.2160     1.3328     1.7576   345.6000     0.9872     0.6058
 1082   21.620  11158.19     1.0008     0.0174     0.8221     0.2162     1.3449     1.7398   345.9200     0.9990     0.6036
 1083   21.640  11159.17     0.9991     0.0173     0.8197     0.2164     1.3446     1.7351   346.2400     0.9984     0.6072
 1084   21.660  11160.18     1.0059     0.0173     0.8230     0.2166     1.3509     1.7282   346.5600     1.0044     0.6022
 1085   21.680  11161.18     1.0069     0.0173     0.8212     0.2168     1.3520     1.7177   346.8800     1.0052     0.6018
 1086   21.700  11162.16     1.0010     0.0176     0.8221     0.2170     1.3463     1.7534   347.2000     0.9991     0.6057
 1087   21.720  11163.14     1.0168     0.0179     0.8311     0.2172     1.3637     1.7633   347.5200     1.0162     0.5991
 1088   21.740  11164.14     1.0261     0.0174     0.8429     0.2174     1.3779     1.6982   347.8400     1.0300     0.6021
 1089   21.760  11165.11     1.0227     0.0174     0.8395     0.2176     1.3772     1.6984   348.1600     1.0290     0.6088
 1090   21.780  11166.13     1.0291     0.0172     0.8310     0.2178     1.3784     1.6759   348.4800     1.0300     0.5960
 1091   21.800  11167.15     1.0369     0.0172     0.8338     0.2180     1.3878     1.6577   348.8000     1.0390     0.5944
 1092   21.820  11168.15     1.0547     0.0174     0.8375     0.2182     1.4053     1.6520   349.1200     1.0562     0.5837
 1093   21.840  11169.19     1.0680     0.0174     0.8373     0.2184     1.4204     1.6295   349.4400     1.0710     0.5796
 1094   21.860  11170.16     1.0587     0.0172     0.8414     0.2186     1.4117     1.6223   349.7600     1.0619     0.5856
 1095   21.880  11171.11     1.0578     0.0169     0.8445     0.2188     1.4126     1.5959   350.0800     1.0625     0.5891
 1096   21.900  11172.09     1.0480     0.0171     0.8460     0.2190     1.4037     1.6306   350.4000     1.0533     0.5961
 1097   21.920  11173.08     1.0485     0.0173     0.8426     0.2192     1.4025     1.6497   350.7200     1.0518     0.5930
 1098   21.940  11174.05     1.0496     0.0178     0.8423     0.2194     1.4034     1.6956   351.0400     1.0523     0.5919
 1099   21.960  11175.06     1.0345     0.0188     0.8383     0.2196     1.3872     1.8153   351.3600     1.0359     0.5987
 1100   21.980  11176.09     1.0271     0.0196     0.8364     0.2198     1.3780     1.9062   351.6800     1.0264     0.5999
 1101   22.000  11177.07     1.0266     0.0185     0.8452     0.2200     1.3802     1.7991   352.0000     1.0282     0.6049
 1102   22.020  11178.08     1.0191     0.0186     0.8503     0.2202     1.3763     1.8214   352.3200     1.0240     0.6155
 1103   22.040  11179.09     1.0319     0.0183     0.8540     0.2204     1.3891     1.8228   352.6400     1.0365     0.6079
 1104   22.060  11194.65     1.0336     0.0180     0.8513     0.2206     1.3915     1.8490   352.9600     1.0386     0.6082
 1105   22.080  11213.78     1.0373     0.0174     0.8493     0.2208     1.3942     1.7530   353.2800     1.0409     0.6041
 1106   22.100  11219.48     1.0351     0.0179     0.8528     0.2210     1.3930     1.7250   353.6000     1.0394     0.6073
 1107   22.120  11220.49     1.0523     0.0177     0.8532     0.2212     1.4104     1.6813   353.9200     1.0564     0.5976
 1108   22.140  11221.50     1.0494     0.0173     0.8571     0.2214     1.4088     1.6509   354.2400     1.0546     0.6015
 1109   22.160  11222.49     1.0327     0.0169     0.8469     0.2216     1.3902     1.6302   354.5600     1.0357     0.6079
 1110   22.180  11223.49     1.0301     0.0164     0.8417     0.2218     1.3847     1.5948   354.8800     1.0298     0.6045
 1111   22.200  11224.49     1.0341     0.0162     0.8433     0.2220     1.3875     1.5636   355.2000     1.0323     0.6000
 1112   22.220  11225.50     1.0332     0.0166     0.8542     0.2222     1.3910     1.6104   355.5200     1.0355     0.6082
 1113   22.240  11226.45     1.0340     0.0174     0.8542     0.2224     1.3926     1.6886   355.8400     1.0368     0.6091
 1114   22.260  11227.47     1.0452     0.0171     0.8496     0.2226     1.4022     1.6332   356.1600     1.0461     0.5998
 1115   22.280  11228.47     1.0427     0.0173     0.8505     0.2228     1.3998     1.6613   356.4800     1.0433     0.6013
 1116   22.300  11229.46     1.0430     0.0172     0.8466     0.2230     1.3979     1.6513   356.8000     1.0411     0.5973
 1117   22.320  11230.47     1.0475     0.0166     0.8455     0.2232     1.4033     1.5864   357.1200     1.0462     0.5965
 1118   22.340  11231.47     1.0422     0.0167     0.8509     0.2234     1.3984     1.6011   357.4400     1.0410     0.6002
 1119   22.360  11232.44     1.0465     0.0169     0.8516     0.2236     1.4039     1.6178   357.7600     1.0462     0.5997
 1120   22.380  11233.45     1.0442     0.0168     0.8585     0.2238     1.4035     1.6049   358.0800     1.0454     0.6043
 1121   22.400  11234.42     1.0355     0.0163     0.8601     0.2240     1.3978     1.5780   358.4000     1.0394     0.6143
 1122   22.420  11235.42     1.0355     0.0165     0.8563     0.2242     1.3949     1.5959   358.7200     1.0362     0.6095
 1123   22.440  11236.40     1.0510     0.0167     0.8519     0.2244     1.4090     1.5895   359.0400     1.0499     0.5979
 1124   22.460  11237.41     1.0414     0.0169     0.8563     0.2246     1.3995     1.6209   359.3600     1.0401     0.6037
 1125   22.480  11238.43     1.0330     0.0172     0.8551     0.2248     1.3927     1.6677   359.6800     1.0330     0.6115
 1126   22.500  11239.43     1.0371     0.0165     0.8500     0.2250     1.3951     1.5953   360.0000     1.0351     0.6062
 1127   22.520  11240.42     1.0302     0.0162     0.8507     0.2252     1.3879     1.5661   360.3200     1.0275     0.6096
 1128   22.540  11241.38     1.0211     0.0156     0.8600     0.2254     1.3817     1.5241   360.6400     1.0211     0.6202
 1129   22.560  11242.41     1.0113     0.0157     0.8611     0.2256     1.3734     1.5527   360.9600     1.0124     0.6288
 1130   22.580  11243.41     1.0173     0.0155     0.8627     0.2258     1.3791     1.5294   361.2800     1.0178     0.6245
 1131   22.600  11244.41     1.0213     0.0153     0.8610     0.2260     1.3829     1.4968   361.6000     1.0213     0.6217
 1132   22.620  11245.41     1.0216     0.0153     0.8518     0.2262     1.3811     1.4982   361.9200     1.0192     0.6180
 1133   22.640  11246.37     1.0355     0.0159     0.8478     0.2264     1.3921     1.5378   362.2400     1.0299     0.6047
 1134   22.660  11247.41     1.0285     0.0151     0.8560     0.2266     1.3878     1.4694   362.5600     1.0252     0.6134
 1135   22.680  11248.43     1.0220     0.0155     0.8510     0.2268     1.3802     1.5182   362.8800     1.0174     0.6155
 1136   22.700  11249.43     1.0251     0.0152     0.8481     0.2270     1.3815     1.4780   363.2000     1.0183     0.6104
 1137   22.720  11250.41     1.0229     0.0153     0.8391     0.2272     1.3765     1.4928   363.5200     1.0130     0.6070
 1138   22.740  11251.41     1.0172     0.0155     0.8359     0.2274     1.3690     1.5215   363.8400     1.0052     0.6070
 1139   22.760  11252.40     1.0234     0.0150     0.8324     0.2276     1.3740     1.4598   364.1600     1.0099     0.6013
 1140   22.780  11253.42     1.0092     0.0153     0.8303     0.2278     1.3578     1.5171   364.4800     0.9933     0.6064
 1141   22.800  11254.38     0.9951     0.0145     0.8209     0.2280     1.3416     1.4553   364.8000     0.9768     0.6112
 1142   22.820  11255.42     0.9766     0.0139     0.8121     0.2282     1.3196     1.4233   365.1200     0.9545     0.6164
 1143   22.840  11256.42     0.9570     0.0137     0.8270     0.2284     1.3025     1.4180   365.4400     0.9371     0.6342
 1144   22.860  11257.39     0.9401     0.0131     0.8370     0.2286     1.2897     1.3912   365.7600     0.9240     0.6536
 1145   22.880  11258.39     0.9321     0.0126     0.8483     0.2288     1.2873     1.3507   366.0800     0.9212     0.6696
 1146   22.900  11259.39     0.9338     0.0118     0.8380     0.2290     1.2881     1.2635   366.4000     0.9217     0.6667
 1147   22.920  11260.41     0.9200     0.0115     0.8493     0.2292     1.2745     1.2559   366.7200     0.9077     0.6771
 1148   22.940  11261.37     0.9241     0.0116     0.8621     0.2294     1.2844     1.2592   367.0400     0.9173     0.6852
 1149   22.960  11262.37     0.9316     0.0114     0.8560     0.2296     1.2922     1.2273   367.3600     0.9248     0.6801
 1150   22.980  11263.37     0.9633     0.0117     0.8470     0.2298     1.3205     1.2179   367.6800     0.9528     0.6513
 1151   23.000  11264.34     0.9814     0.0119     0.8252     0.2300     1.3322     1.2142   368.0000     0.9642     0.6277
 1152   23.020  11265.36     0.9890     0.0158     0.8038     0.2302     1.3280     1.5988   368.3200     0.9596     0.6012
 1153   23.040  11266.40     0.9857     0.0178     0.8107     0.2304     1.3198     1.8063   368.6400     0.9511     0.5940
 1154   23.060  11267.37     1.0950     0.0257     0.8573     0.2306     1.4528     2.4191   368.9600     1.0838     0.5745
 1155   23.080  11268.40     1.4465     0.0380     0.6968     0.2308     1.7673     2.7306   369.2800     1.3980     0.3860
 1156   23.100  11269.42     2.0222     0.0536     0.5237     0.2310     2.2567     2.7069   369.6000     1.8871     0.1748
 1157   23.120  11270.41     2.3693     0.0549     0.4123     0.2312     2.5746     2.4027   369.9200     2.2047     0.1178
 1158   23.140  11271.39     2.6987     0.0552     0.3520     0.2314     2.8460     2.1408   370.2400     2.4757     0.0482
 1159   23.160  11272.40     2.9878     0.0517     0.3702     0.2316     3.1426     1.8018   370.5600     2.7721     0.0496
 1160   23.180  11273.41     3.9450     0.0456     0.3613     0.2318     4.1011     1.1942   370.8800     3.7302     0.0378
 1161   23.200  11274.44     5.3208     0.0464     0.2844     0.2320     5.4561     0.9315   371.2000     5.0849     0.0183
 1162   23.220  11275.51     7.4181     0.0493     0.1766     0.2322     7.5020     0.7421   371.5200     7.1304    -0.0043
 1163   23.240  11276.47     9.7490     0.0556     0.1822     0.2324     9.8262     0.6217   371.8400     9.4544    -0.0052
 1164   23.260  11277.51    11.1632     0.0678     0.1654     0.2326    11.2357     0.6295   372.1600    10.8635    -0.0055
 1165   23.280  11278.42    11.3712     0.0796     0.1283     0.2328    11.4324     0.6965   372.4800    11.0599    -0.0079
 1166   23.300  11279.37    10.5612     0.0855     0.1560     0.2330    10.6172     0.7762   372.8000    10.2444    -0.0097
 1167   23.320  11280.33     9.4709     0.0836     0.1590     0.2332     9.5396     0.8404   373.1200     9.1665    -0.0076
 1168   23.340  11281.26     8.5764     0.0847     0.1463     0.2334     8.6400     0.9504   373.4400     8.2666    -0.0099
 1169   23.360  11282.21     8.0222     0.0957     0.1497     0.2336     8.0805     1.1611   373.7600     7.7067    -0.0123
 1170   23.380  11283.15     7.8674     0.1105     0.1859     0.2338     7.9399     1.4003   374.0800     7.5659    -0.0081
 1171   23.400  11284.04     7.5392     0.1281     0.2102     0.2340     7.6260     1.6563   374.4000     7.2516    -0.0038
 1172   23.420  11285.00     6.5445     0.1473     0.1963     0.2342     6.6287     2.1407   374.7200     6.2539    -0.0055
 1173   23.440  11285.93     5.2450     0.1278     0.2084     0.2344     5.3309     2.2942   375.0400     4.9558    -0.0061
 1174   23.460  11286.87     4.0176     0.1096     0.2436     0.2346     4.1137     2.5683   375.3600     3.7384    -0.0014
 1175   23.480  11287.87     3.2866     0.1001     0.2788     0.2348     3.3998     2.9581   375.6800     3.0241     0.0115
 1176   23.500  11288.85     2.9772     0.1137     0.3087     0.2350     3.1023     3.7993   376.0000     2.7263     0.0231
 1177   23.520  11289.85     2.9885     0.1049     0.2332     0.2352     3.0908     3.5401   376.3200     2.7145     0.0031
 1178   23.540  11290.87     3.3351     0.0993     0.3567     0.2354     3.4637     3.0259   376.6400     3.0871     0.0226
 1179   23.560  11291.80     3.5822     0.0798     0.2205     0.2356     3.6987     2.2321   376.9600     3.3218     0.0126
 1180   23.580  11292.83     3.5920     0.0695     0.1194     0.2358     3.6585     1.9326   377.2800     3.2812    -0.0236
 1181   23.600  11293.81     3.9696     0.0514     0.1888     0.2360     4.0338     1.3525   377.6000     3.6562    -0.0231
 1182   23.620  11294.84     5.9435     0.0450     0.2368     0.2362     6.0418     0.8539   377.9200     5.6639    -0.0004
 1183   23.640  11295.84     9.4304     0.0511     0.0711     0.2364     9.4855     0.6236   378.2400     9.1072    -0.0113
 1184   23.660  11296.89    12.4485     0.0614     0.0200     0.2366    12.4608     0.5469   378.5600    12.0823    -0.0172
 1185   23.680  11297.84    14.4338     0.0724     0.0039     0.2368    14.4380     0.5236   378.8800    14.0591    -0.0161
 1186   23.700  11298.80    14.9541     0.0881     0.0017     0.2370    14.9549     0.5959   379.2000    14.5757    -0.0161
 1187   23.720  11299.75    15.0099     0.1042    -0.0299     0.2372    15.0011     0.6930   379.5200    14.6216    -0.0177
 1188   23.740  11300.65    14.7028     0.1133    -0.0279     0.2374    14.6887     0.7627   379.8400    14.3089    -0.0189
 1189   23.760  11301.61    13.9990     0.1216     0.0074     0.2376    13.9956     0.8496   380.1600    13.6155    -0.0180
 1190   23.780  11302.57    12.9781     0.1271     0.0452     0.2378    12.9941     0.9501   380.4800    12.6136    -0.0158
 1191   23.800  11303.51    12.2725     0.1187     0.0736     0.2380    12.2976     0.9564   380.8000    11.9168    -0.0150
 1192   23.820  11304.48    11.9941     0.1114     0.1244     0.2382    12.0378     0.9270   381.1200    11.6566    -0.0115
 1193   23.840  11305.42    12.0325     0.1001     0.1670     0.2384    12.0996     0.8338   381.4400    11.7181    -0.0067
 1194   23.860  11306.38    12.3826     0.0966     0.0929     0.2386    12.4345     0.7894   381.7600    12.0528    -0.0095
 1195   23.880  11307.32    13.6975     0.1126     0.0976     0.2388    13.7251     0.8440   382.0800    13.3430    -0.0131
 1196   23.900  11308.33    17.0537     0.1236     0.1264     0.2390    17.1117     0.7545   382.4000    16.7293    -0.0060
 1197   23.920  11309.31    20.4113     0.1416     0.0136     0.2392    20.4391     0.7345   382.7200    20.0564    -0.0086
 1198   23.940  11310.33    22.8531     0.1572    -0.0184     0.2394    22.8471     0.7385   383.0400    22.4640    -0.0113
 1199   23.960  11311.32    24.1600     0.1728    -0.0095     0.2396    24.1531     0.7426   383.3600    23.7698    -0.0108
 1200   23.980  11312.29    24.9088     0.1854    -0.0635     0.2398    24.8923     0.7444   383.6800    24.5086    -0.0114
 1201   24.000  11313.26    25.0988     0.2040    -0.0789     0.2400    25.0650     0.8135   384.0000    24.6810    -0.0130
 1202   24.020  11314.23    25.2340     0.2183    -0.0253     0.2402    25.2100     0.8659   384.3200    24.8257    -0.0120
 1203   24.040  11330.46    25.4570     0.2254     0.0703     0.2404    25.4726     0.8931   384.6400    25.0880    -0.0082
 1204   24.060  11346.95    25.6830     0.2377     0.1658     0.2406    25.7388     0.9419   384.9600    25.3538    -0.0043
 1205   24.080  11360.40    25.9093     0.2441     0.2372     0.2408    26.0016     0.9480   385.2800    25.6163    -0.0008
 1206   24.100  11361.35    26.0510     0.2516     0.2405     0.2410    26.1531     0.9666   385.6000    25.7675     0.0001
 1207   24.120  11362.35    26.0662     0.2628     0.2402     0.2412    26.1659     1.0073   385.9200    25.7800    -0.0001
 1208   24.140  11363.35    26.0069     0.2689     0.2411     0.2414    26.1056     1.0334   386.2400    25.7193    -0.0003
 1209   24.160  11364.31    25.8349     0.2700     0.2434     0.2416    25.9346     1.0427   386.5600    25.5481    -0.0002
 1210   24.180  11365.24    25.7295     0.2682     0.2436     0.2418    25.8312     1.0412   386.8800    25.4443     0.0000
 1211   24.200  11366.24    25.5312     0.2702     0.2443     0.2420    25.6334     1.0556   387.2000    25.2462     0.0001
 1212   24.220  11367.17    25.4231     0.2704     0.2485     0.2422    25.5278     1.0622   387.5200    25.1402     0.0003
 1213   24.240  11368.10    25.5999     0.2681     0.2379     0.2424    25.7016     1.0501   387.8400    25.3137     0.0000
 1214   24.260  11369.13    25.9781     0.2667     0.2445     0.2426    26.0814     1.0313   388.1600    25.6932     0.0001
 1215   24.280  11370.08    26.3895     0.2672     0.2489     0.2428    26.4937     1.0169   388.4800    26.1052     0.0002
 1216   24.300  11371.06    26.6849     0.2735     0.2436     0.2430    26.7887     1.0272   388.8000    26.3999     0.0002
 1217   24.320  11372.04    27.0295     0.2784     0.2410     0.2432    27.1300     1.0340   389.1200    26.7409    -0.0001
 1218   24.340  11372.98    27.4290     0.2799     0.2413     0.2434    27.5305     1.0243   389.4400    27.1411    -0.0001
 1219   24.360  11373.95    27.8422     0.2762     0.2432     0.2436    27.9430     0.9943   389.7600    27.5533    -0.0001
 1220   24.380  11374.93    28.2116     0.2784     0.2517     0.2438    28.3154     0.9880   390.0800    27.9253     0.0001
 1221   24.400  11375.91    28.4972     0.2888     0.2410     0.2440    28.6011     1.0157   390.4000    28.2107     0.0001
 1222   24.420  11376.92    28.8473     0.3005     0.2510     0.2442    28.9522     1.0447   390.7200    28.5615     0.0002
 1223   24.440  11377.92    29.2766     0.3145     0.2435     0.2444    29.3803     1.0780   391.0400    28.9893     0.0001
 1224   24.460  11378.92    29.7246     0.3325     0.2550     0.2446    29.8286     1.1233   391.3600    29.4373     0.0001
 1225   24.480  11379.89    30.3077     0.3445     0.2395     0.2448    30.4116     1.1422   391.6800    30.0199     0.0001
 1226   24.500  11380.86    30.5773     0.3620     0.2542     0.2450    30.6851     1.1838   392.0000    30.2931     0.0004
 1227   24.520  11381.81    30.4115     0.3752     0.2526     0.2452    30.5152     1.2309   392.3200    30.1229     0.0001
 1228   24.540  11382.81    29.8759     0.3819     0.2447     0.2454    29.9803     1.2726   392.6400    29.5877     0.0001
 1229   24.560  11383.81    29.2436     0.3805     0.2480     0.2456    29.3493     1.2928   392.9600    28.9563     0.0002
 1230   24.580  11384.74    28.6998     0.3736     0.2475     0.2458    28.8027     1.2943   393.2800    28.4095     0.0000
 1231   24.600  11385.76    28.0853     0.3675     0.2570     0.2460    28.1869     1.2995   393.6000    27.7933    -0.0001
 1232   24.620  11386.71    27.3675     0.3579     0.2478     0.2462    27.4725     1.2994   393.9200    27.0785     0.0001
 1233   24.640  11387.71    26.7182     0.3504     0.2376     0.2464    26.8156     1.3012   394.2400    26.4213    -0.0005
 1234   24.660  11388.67    26.2546     0.3423     0.2411     0.2466    26.3563     1.2959   394.5600    25.9618    -0.0002
 1235   24.680  11389.63    25.8224     0.3285     0.2488     0.2468    25.9246     1.2639   394.8800    25.5297    -0.0001
 1236   24.700  11390.58    25.4897     0.3170     0.2493     0.2470    25.5956     1.2358   395.2000    25.2004     0.0002
 1237   24.720  11391.53    25.1867     0.3056     0.2470     0.2472    25.2896     1.2072   395.5200    24.8941    -0.0001
 1238   24.740  11392.48    24.7062     0.2975     0.2478     0.2474    24.8117     1.1953   395.8400    24.4158     0.0001
 1239   24.760  11393.42    24.3038     0.2897     0.2412     0.2476    24.4051     1.1860   396.1600    24.0089    -0.0003
 1240   24.780  11394.38    23.9512     0.2850     0.2450     0.2478    24.0547     1.1864   396.4800    23.6582    -0.0001
 1241   24.800  11395.33    23.7095     0.2820     0.2418     0.2480    23.8133     1.1860   396.8000    23.4165     0.0000
 1242   24.820  11396.29    23.5982     0.2803     0.2466     0.2482    23.7027     1.1860   397.1200    23.3056     0.0000
 1243   24.840  11397.26    23.5360     0.2807     0.2518     0.2484    23.6427     1.1911   397.4400    23.2453     0.0002
 1244   24.860  11398.23    23.5123     0.2804     0.2506     0.2486    23.6166     1.1923   397.7600    23.2189     0.0000
 1245   24.880  11399.19    23.3958     0.2799     0.2558     0.2488    23.5026     1.1935   398.0800    23.1045     0.0002
 1246   24.900  11400.12    23.3755     0.2717     0.2461     0.2490    23.4782     1.1654   398.4000    23.0798    -0.0002
 1247   24.920  11401.05    23.4028     0.2640     0.2467     0.2492    23.5068     1.1294   398.7200    23.1081    -0.0001
 1248   24.940  11402.02    23.3595     0.2603     0.2537     0.2494    23.4657     1.1134   399.0400    23.0667     0.0002
 1249   24.960  11402.98    23.3417     0.2586     0.2459     0.2496    23.4443     1.1074   399.3600    23.0449    -0.0002
 1250   24.980  11403.96    23.2233     0.2567     0.2504     0.2498    23.3298     1.1027   399.6800    22.9301     0.0002
 1251   25.000  11404.90    23.0061     0.2526     0.2473     0.2500    23.1090     1.0933   400.0000    22.7090    -0.0002
 1252   25.020  11405.86    22.7219     0.2481     0.2518     0.2502    22.8290     1.0869   400.3200    22.4287     0.0002
 1253   25.040  11406.80    22.4782     0.2471     0.2489     0.2504    22.5840     1.0959   400.6400    22.1834     0.0001
 1254   25.060  11407.72    22.1897     0.2485     0.2523     0.2506    22.2962     1.1147   400.9600    21.8953     0.0001
 1255   25.080  11408.70    21.8302     0.2419     0.2474     0.2508    21.9349     1.1018   401.2800    21.5336    -0.0001
 1256   25.100  11409.68    21.3425     0.2319     0.2503     0.2510    21.4474     1.0792   401.6000    21.0458    -0.0001
 1257   25.120  11410.64    20.8536     0.2213     0.2515     0.2512    20.9616     1.0530   401.9200    20.5597     0.0003
 1258   25.140  11411.63    20.2332     0.2144     0.2593     0.2514    20.3409     1.0513   402.2400    19.9387     0.0003
 1259   25.160  11412.55    19.7622     0.2161     0.2534     0.2516    19.8693     1.0901   402.5600    19.4668     0.0002
 1260   25.180  11413.53    19.6014     0.2176     0.2500     0.2518    19.7073     1.1107   402.8800    19.3044     0.0000
 1261   25.200  11414.52    20.2913     0.1977     0.2554     0.2520    20.3970     0.9789   403.2000    19.9938     0.0000
 1262   25.220  11415.50    22.1921     0.1768     0.2576     0.2522    22.3004     0.8037   403.5200    21.8968     0.0003
 1263   25.240  11416.46    25.1874     0.1761     0.2573     0.2524    25.2965     0.7458   403.8400    24.8927     0.0003
 1264   25.260  11417.50    28.5803     0.1946     0.1948     0.2526    28.6763     0.6853   404.1600    28.2721    -0.0008
 1265   25.280  11418.52    31.3900     0.2203     0.0169     0.2528    31.4218     0.7081   404.4800    31.0173    -0.0057
 1266   25.300  11419.55    33.3128     0.2428    -0.0150     0.2530    33.3054     0.7309   404.8000    32.9006    -0.0082
 1267   25.320  11420.53    34.4263     0.2568    -0.0125     0.2532    34.4185     0.7472   405.1200    34.0134    -0.0080
 1268   25.340  11421.54    34.7676     0.2768     0.0243     0.2534    34.7732     0.7962   405.4400    34.3678    -0.0070
 1269   25.360  11422.55    34.6025     0.3003     0.0205     0.2536    34.6104     0.8665   405.7600    34.2046    -0.0069
 1270   25.380  11423.52    34.7259     0.3162     0.1054     0.2538    34.7562     0.9137   406.0800    34.3501    -0.0053
 1271   25.400  11424.56    35.0969     0.3153     0.1731     0.2540    35.1626     0.9019   406.4000    34.7562    -0.0028
 1272   25.420  11425.59    35.3193     0.3058     0.2009     0.2542    35.4016     0.8655   406.7200    34.9949    -0.0017
 1273   25.440  11426.59    35.6772     0.2959     0.2221     0.2544    35.7628     0.8303   407.0400    35.3558    -0.0014
 1274   25.460  11427.66    35.9012     0.2909     0.2423     0.2546    36.0068     0.8110   407.3600    35.5995    -0.0001
 1275   25.480  11428.63    36.1991     0.2884     0.2560     0.2548    36.3067     0.7978   407.6800    35.8991     0.0000
 1276   25.500  11429.70    36.4902     0.2865     0.2583     0.2550    36.5932     0.7868   408.0000    36.1852    -0.0003
 1277   25.520  11430.72    36.9734     0.2937     0.2646     0.2552    37.0797     0.7976   408.3200    36.6714    -0.0001
 1278   25.540  11431.71    37.4235     0.2916     0.2528     0.2554    37.5284     0.7806   408.6400    37.1197    -0.0002
 1279   25.560  11432.75    38.1266     0.2850     0.2654     0.2556    38.2410     0.7524   408.9600    37.8321     0.0004
 1280   25.580  11435.79    38.8442     0.2821     0.2448     0.2558    38.9500     0.7401   409.2800    38.5408    -0.0001
 1281   25.600  11438.83    39.5618     0.2916     0.2311     0.2560    39.6590     0.7651   409.6000    39.2494    -0.0006
 1282   25.620  11440.49    40.8419     0.3098     0.2608     0.2562    40.9525     0.7680   409.9200    40.5426     0.0002
 1283   25.640  11444.33    41.9129                0.2392     0.2564    42.0171              410.2400    41.6069    -0.0002
 1284   25.660  11452.53    43.2615                0.2133     0.2566    43.3548              410.5600    42.9443    -0.0008
 1285   25.680  11459.45    44.9598                0.2576     0.2568    45.0553              410.8800    44.6444    -0.0007
 1286   25.700  11460.51    47.6643                0.2787     0.2570    47.7780              411.2000    47.3668     0.0003
 1287   25.720  11461.63    50.6979                0.2688     0.2572    50.8106              411.5200    50.3991     0.0002
 1288   25.730  11462.19    52.0823                           0.2573    52.1956              411.6764    51.7839     0.0002
 
 
