

 Program UNIPLOT                         version 05.36.02
 _______________
 (c) Fugro Netherlands Marine, Nootdorp, The Netherlands


 ASCII representation of data plotted on a graph.

 This ASCII file presents data interpolated to values per fixed depth interval.
 The data are corrected for the depth-offset differences between the various 
 transducers in the penetrometer.

 The records at the start of penetration may include no values or anomalous
 values where a depth offset implies incomplete penetration of a particular
 sensor into the ground.

 The records at the end of penetration may include no values for data channels
 where the transducer did not reach this depth.

 The reference level for test values is (1) the ground surface for onshore tests and (2) the seafloor for nearshore and offshore tests.

 UNICAS data file          : CPT-1021.000                            
 Output using command file : PlotASCII.cmd

 ASCII file created at : date          :05-Jul-2022
                         time          :21:33:45
 Project number                        :20024805                                                                                            
 Date of testing                       :23-Jun-2022                                                                                         
 Location                              :Hong Kong Offshore Wind Farm Project                                                                
 Test name                             :CPT-1021
 Penetrometer                          :F7.5CKE2HAW2/B/3285
 Serial no                             :1701-3285

 Table description:
 Column ID                             :Parameter name
 ___________________________________________________________________________________
 Rec                                   :Record ID, Record ID [-]
 Depth                                 :Depth, Depth [m]
 Time                                  :Time, Time [s]
 Cone                                  :Cone Resistance, Cone Resistance [MPa]
 Friction                              :Sleeve Friction, Sleeve Friction [MPa]
 Pore 2                                :Porewater Pressure, Porewater Pressure at Shoulder [MPa]
 HydroPress                            :Hydrostatic Pressure, Hydrostatic Pressure [MPa]
 qt                                    :Total Cone Resistance, Total Cone Resistance [MPa]
 Fric_ratio                            :Friction Ratio, Friction Ratio [%]
 SigmaVert                             :Vertical stress, Vertical stress [kPa] as specified in ground model
 Qnet                                  :Net Cone Resistance, Net Cone Resistance [MPa], unit weight as specified in ground model
 Bq                                    :Porewater Pressure Ratio, Porewater Pressure Ratio [-], unit weight as specified in ground model


 Data table:
  Rec    Depth      Time       Cone   Friction     Pore 2 HydroPress         qt Fric_ratio  SigmaVert       Qnet         Bq
   No        m         s        MPa        MPa        MPa        MPa        MPa          %        kPa        MPa          -
    1    0.000   1651.44     0.0000                           0.0000     0.0000                0.0000     0.0000           
    2    0.020   1652.38     0.0036               -0.0008     0.0002     0.0033                0.3200     0.0029     0.2052
    3    0.040   1653.35     0.0028               -0.0008     0.0004     0.0025                0.6400     0.0019    -0.7243
    4    0.060   1654.34     0.0045     0.0013    -0.0007     0.0006     0.0042    47.2677     0.9600     0.0032    -1.9732
    5    0.080   1655.32     0.0066     0.0012    -0.0008     0.0008     0.0062    18.6823     1.2800     0.0050    -0.3206
    6    0.100   1656.26     0.0060     0.0012    -0.0013     0.0010     0.0056    21.4396     1.6000     0.0040    -0.5010
    7    0.120   1657.23     0.0060     0.0012    -0.0005     0.0012     0.0055    19.4811     1.9200     0.0036    -0.7420
    8    0.140   1658.60     0.0057     0.0009     0.0016     0.0014     0.0059    20.7631     2.2400     0.0036    -1.5288
    9    0.160   1661.37     0.0030     0.0011     0.0008     0.0016     0.0034    31.9189     2.5600     0.0009    -0.4751
   10    0.180   1662.43     0.0028     0.0012     0.0013     0.0018     0.0033    43.0747     2.8800     0.0004    -1.6137
   11    0.200   1663.36     0.0034     0.0011     0.0022     0.0020     0.0042    38.3792     3.2000     0.0010    -0.1269
   12    0.220   1664.33     0.0041     0.0013     0.0021     0.0022     0.0050    33.3804     3.5200     0.0015     0.0412
   13    0.240   1665.30     0.0051     0.0014     0.0019     0.0024     0.0058    47.4162     3.8400     0.0020           
   14    0.260   1669.84     0.0056     0.0015     0.0025     0.0026     0.0065    24.7680     4.1600     0.0024    -0.0918
   15    0.280   1674.93     0.0052     0.0013     0.0031     0.0028     0.0064    22.9619     4.4800     0.0019     0.1014
   16    0.300   1679.53     0.0058     0.0012     0.0036     0.0030     0.0073    22.8400     4.8000     0.0025     0.2341
   17    0.320   1680.51     0.0083     0.0014     0.0040     0.0032     0.0100    15.5684     5.1200     0.0049     0.1889
   18    0.340   1681.50     0.0071     0.0012     0.0042     0.0034     0.0087    17.0348     5.4400     0.0033     0.1133
   19    0.360   1682.44     0.0091     0.0011     0.0050     0.0036     0.0110    13.4545     5.7600     0.0052     0.1797
   20    0.380   1683.41     0.0096     0.0010     0.0050     0.0038     0.0118    14.3128     6.0800     0.0058     0.2818
   21    0.400   1684.35     0.0118     0.0013     0.0046     0.0040     0.0139    12.5701     6.4000     0.0075     0.1464
   22    0.420   1685.35     0.0117     0.0018     0.0043     0.0042     0.0135    14.5032     6.7200     0.0067     0.0047
   23    0.440   1686.30     0.0124     0.0015     0.0040     0.0044     0.0141    13.6394     7.0400     0.0071    -0.0382
   24    0.460   1687.26     0.0142     0.0015     0.0033     0.0046     0.0157    10.1444     7.3600     0.0084    -0.1134
   25    0.480   1688.23     0.0148     0.0013     0.0036     0.0048     0.0162     9.2542     7.6800     0.0085    -0.1977
   26    0.500   1689.17     0.0149     0.0016     0.0044     0.0050     0.0165    11.3413     8.0000     0.0085    -0.1449
   27    0.520   1690.13     0.0127     0.0013     0.0065     0.0052     0.0153     8.9136     8.3200     0.0069     0.1541
   28    0.540   1691.12     0.0105     0.0016     0.0059     0.0054     0.0129    15.9176     8.6400     0.0043     0.0968
   29    0.560   1692.05     0.0121     0.0011     0.0068     0.0056     0.0147     9.1184     8.9600     0.0058     0.1320
   30    0.580   1693.04     0.0115     0.0013     0.0042     0.0058     0.0135    10.5804     9.2800     0.0042    -0.2564
   31    0.600   1693.98     0.0129     0.0013     0.0075     0.0060     0.0159     9.8848     9.6000     0.0063     0.2052
   32    0.620   1694.95     0.0147     0.0013     0.0088     0.0062     0.0185    10.8091     9.9200     0.0086     0.3295
   33    0.640   1695.93     0.0142     0.0011     0.0085     0.0064     0.0178     8.2372    10.2400     0.0076     0.2904
   34    0.660   1696.90     0.0171     0.0012     0.0094     0.0066     0.0207     8.7934    10.5600     0.0102     0.2114
   35    0.680   1697.88     0.0180     0.0012     0.0104     0.0068     0.0223     6.5693    10.8800     0.0115     0.3077
   36    0.700   1698.83     0.0169     0.0012     0.0101     0.0070     0.0212     7.4356    11.2000     0.0100     0.3398
   37    0.720   1699.82     0.0157     0.0010     0.0087     0.0072     0.0195     5.8726    11.5200     0.0080     0.2492
   38    0.740   1700.76     0.0173     0.0011     0.0081     0.0074     0.0207     6.4589    11.8400     0.0089     0.0964
   39    0.760   1701.70     0.0156     0.0011     0.0090     0.0076     0.0191     6.7943    12.1600     0.0069     0.1157
   40    0.780   1702.67     0.0150     0.0011     0.0096     0.0078     0.0190     7.1464    12.4800     0.0065     0.2656
   41    0.800   1703.67     0.0139     0.0014     0.0104     0.0080     0.0182     9.9870    12.8000     0.0054     0.4093
   42    0.820   1704.62     0.0165     0.0014     0.0106     0.0082     0.0209     8.7676    13.1200     0.0078     0.2913
   43    0.840   1705.56     0.0152     0.0012     0.0115     0.0084     0.0197     7.9404    13.4400     0.0063     0.3828
   44    0.860   1706.49     0.0149     0.0011     0.0113     0.0086     0.0198     7.2243    13.7600     0.0061     0.5219
   45    0.880   1707.49     0.0177     0.0012     0.0102     0.0088     0.0219     7.3933    14.0800     0.0078     0.1709
   46    0.900   1708.44     0.0153     0.0013     0.0109     0.0090     0.0197     9.0491    14.4000     0.0053     0.2737
   47    0.920   1709.45     0.0128     0.0014     0.0120     0.0092     0.0176     9.7110    14.7200     0.0029     0.7436
   48    0.940   1710.38     0.0124     0.0012     0.0120     0.0094     0.0175     9.3022    15.0400     0.0025     1.1237
   49    0.960   1711.35     0.0155     0.0013     0.0132     0.0096     0.0208     8.1914    15.3600     0.0054     0.5484
   50    0.980   1712.27     0.0146     0.0013     0.0137     0.0098     0.0204     8.9110    15.6800     0.0047     0.8498
   51    1.000   1713.25     0.0130     0.0013     0.0139     0.0100     0.0188     9.5420    16.0000     0.0028     1.3315
   52    1.020   1714.23     0.0125     0.0010     0.0150     0.0102     0.0187     7.8737    16.3200     0.0024     1.9219
   53    1.040   1715.20     0.0122     0.0014     0.0151     0.0104     0.0185    14.5331    16.6400     0.0019    -3.4439
   54    1.060   1716.14     0.0146     0.0013     0.0154     0.0106     0.0209     8.8822    16.9600     0.0040     1.1672
   55    1.080   1717.13     0.0127     0.0014     0.0154     0.0108     0.0192    11.8081    17.2800     0.0019     2.7025
   56    1.100   1718.13     0.0141     0.0013     0.0164     0.0110     0.0208     9.3061    17.6000     0.0032     1.6881
   57    1.120   1719.09     0.0141     0.0014     0.0173     0.0112     0.0212    10.8081    17.9200     0.0033     2.5096
   58    1.140   1720.08     0.0190     0.0015     0.0188     0.0114     0.0267     7.9357    18.2400     0.0085     0.8243
   59    1.160   1721.05     0.0212     0.0016     0.0200     0.0116     0.0295     8.0231    18.5600     0.0109     0.7390
   60    1.180   1722.04     0.0219     0.0015     0.0195     0.0118     0.0302     7.2328    18.8800     0.0113     0.6982
   61    1.200   1723.00     0.0224     0.0016     0.0196     0.0120     0.0303     7.1707    19.2000     0.0111     0.6130
   62    1.220   1723.95     0.0269     0.0018     0.0213     0.0122     0.0356     6.8854    19.5200     0.0161     0.5303
   63    1.240   1724.95     0.0261     0.0019     0.0219     0.0124     0.0351     7.2750    19.8400     0.0153     0.5938
   64    1.260   1725.86     0.0252     0.0017     0.0225     0.0126     0.0345     6.2411    20.1600     0.0143     0.6643
   65    1.280   1726.86     0.0308     0.0018     0.0231     0.0128     0.0404     6.3451    20.4800     0.0200     0.5150
   66    1.300   1727.82     0.0384     0.0020     0.0233     0.0130     0.0482     5.5899    20.8000     0.0274     0.3739
   67    1.320   1728.78     0.0362     0.0022     0.0238     0.0132     0.0462     5.8068    21.1200     0.0251     0.4222
   68    1.340   1729.75     0.0358     0.0023     0.0236     0.0134     0.0458     6.1610    21.4400     0.0244     0.4234
   69    1.360   1730.70     0.0405     0.0022     0.0233     0.0136     0.0503     5.7259    21.7600     0.0286     0.3463
   70    1.380   1731.67     0.0368     0.0023     0.0252     0.0138     0.0469     6.0887    22.0800     0.0248     0.4110
   71    1.400   1732.62     0.0359     0.0027     0.0277     0.0140     0.0470     7.6263    22.4000     0.0246     0.5066
   72    1.420   1733.59     0.0397     0.0024     0.0294     0.0142     0.0517     6.0048    22.7200     0.0290     0.4962
   73    1.440   1734.56     0.0419     0.0024     0.0297     0.0144     0.0545     5.9042    23.0400     0.0315     0.4939
   74    1.460   1735.53     0.0409     0.0023     0.0280     0.0146     0.0529     5.7248    23.3600     0.0295     0.4764
   75    1.480   1736.48     0.0442     0.0024     0.0292     0.0148     0.0565     5.3945    23.6800     0.0328     0.4411
   76    1.500   1737.48     0.0434     0.0022     0.0271     0.0150     0.0552     5.1368    24.0000     0.0312     0.4225
   77    1.520   1738.43     0.0426     0.0023     0.0269     0.0152     0.0538     5.5719    24.3200     0.0294     0.3866
   78    1.540   1739.39     0.0415     0.0023     0.0278     0.0154     0.0530     5.8002    24.6400     0.0284     0.4247
   79    1.560   1740.36     0.0440     0.0026     0.0307     0.0156     0.0566     5.8318    24.9600     0.0316     0.4569
   80    1.580   1741.33     0.0543     0.0030     0.0312     0.0158     0.0677     5.8633    25.2800     0.0424     0.3778
   81    1.600   1742.31     0.0574     0.0033     0.0286     0.0160     0.0694     5.7728    25.6000     0.0438     0.2878
   82    1.620   1743.29     0.0546     0.0035     0.0300     0.0162     0.0671     6.2986    25.9200     0.0412     0.3316
   83    1.640   1744.26     0.0533     0.0033     0.0281     0.0164     0.0653     6.3867    26.2400     0.0391     0.3116
   84    1.660   1755.82     0.0583     0.0032     0.0304     0.0166     0.0707     5.7827    26.5600     0.0442     0.2914
   85    1.680   1770.00     0.0629     0.0032     0.0327     0.0168     0.0763     5.8573    26.8800     0.0494     0.3026
   86    1.700   1784.19     0.0675     0.0035     0.0349     0.0170     0.0818     6.2284    27.2000     0.0546     0.3139
   87    1.720   1787.72     0.0808     0.0035     0.0373     0.0172     0.0960     4.3470    27.5200     0.0685     0.2790
   88    1.740   1788.69     0.0978     0.0037     0.0374     0.0174     0.1138     4.1659    27.8400     0.0860     0.2433
   89    1.760   1789.69     0.1163     0.0047     0.0273     0.0176     0.1299     4.2642    28.1600     0.1018     0.1467
   90    1.780   1790.65     0.1246     0.0051     0.0245     0.0178     0.1351     4.0343    28.4800     0.1066     0.0675
   91    1.800   1791.60     0.1127     0.0048     0.0183     0.0180     0.1206     4.1267    28.8000     0.0918     0.0088
   92    1.820   1792.58     0.1002     0.0048     0.0134     0.0182     0.1073     4.6584    29.1200     0.0782    -0.0180
   93    1.840   1793.53     0.0889     0.0049     0.0126     0.0184     0.0939     5.3383    29.4400     0.0644    -0.1000
   94    1.860   1794.49     0.0755     0.0051     0.0209     0.0186     0.0826     6.2629    29.7600     0.0529    -0.0298
   95    1.880   1795.43     0.0689     0.0049     0.0290     0.0188     0.0807     7.1543    30.0800     0.0506     0.1843
   96    1.900   1796.39     0.0732     0.0046     0.0314     0.0190     0.0860     6.4929    30.4000     0.0556     0.2066
   97    1.920   1797.36     0.0763     0.0044     0.0314     0.0192     0.0895     5.9378    30.7200     0.0588     0.2069
   98    1.940   1798.32     0.0797     0.0043     0.0330     0.0194     0.0934     5.4047    31.0400     0.0623     0.2103
   99    1.960   1799.29     0.0843     0.0043     0.0334     0.0196     0.0983     5.2167    31.3600     0.0669     0.2039
  100    1.980   1800.26     0.0893     0.0043     0.0325     0.0198     0.1036     4.8325    31.6800     0.0719     0.1966
  101    2.000   1801.22     0.0933     0.0042     0.0294     0.0200     0.1054     4.6368    32.0000     0.0734     0.1186
  102    2.020   1802.18     0.0930     0.0045     0.0370     0.0202     0.1084     4.9058    32.3200     0.0761     0.2166
  103    2.040   1803.15     0.0916     0.0048     0.0363     0.0204     0.1068     5.2793    32.6400     0.0741     0.2130
  104    2.060   1804.13     0.0848     0.0047     0.0320     0.0206     0.0993     5.3169    32.9600     0.0663     0.2095
  105    2.080   1805.11     0.0806     0.0047     0.0285     0.0208     0.0930     5.8555    33.2800     0.0597     0.1445
  106    2.100   1806.05     0.0774     0.0046     0.0299     0.0210     0.0895     5.9186    33.6000     0.0559     0.1403
  107    2.120   1807.00     0.0804     0.0046     0.0362     0.0212     0.0942     5.8130    33.9200     0.0602     0.1930
  108    2.140   1808.00     0.0791     0.0043     0.0417     0.0214     0.0962     5.4478    34.2400     0.0620     0.3100
  109    2.160   1808.97     0.0770     0.0042     0.0425     0.0216     0.0947     5.4597    34.5600     0.0601     0.3400
  110    2.180   1809.95     0.0796     0.0041     0.0438     0.0218     0.0977     5.1895    34.8800     0.0629     0.3403
  111    2.200   1810.91     0.0779     0.0037     0.0471     0.0220     0.0970     4.8657    35.2000     0.0618     0.3810
  112    2.220   1811.90     0.0737     0.0037     0.0516     0.0222     0.0947     4.9439    35.5200     0.0591     0.4685
  113    2.240   1812.85     0.0729     0.0036     0.0565     0.0224     0.0960     5.2087    35.8400     0.0602     0.5410
  114    2.260   1813.81     0.0730     0.0033     0.0612     0.0226     0.0981     4.4613    36.1600     0.0620     0.6003
  115    2.280   1814.76     0.0755     0.0034     0.0637     0.0228     0.1020     4.5871    36.4800     0.0655     0.6146
  116    2.300   1815.73     0.0804     0.0034     0.0655     0.0230     0.1076     4.3790    36.8000     0.0708     0.5890
  117    2.320   1816.67     0.0810     0.0032     0.0666     0.0232     0.1089     4.0399    37.1200     0.0718     0.6016
  118    2.340   1817.66     0.0812     0.0035     0.0667     0.0234     0.1092     4.2628    37.4400     0.0717     0.6015
  119    2.360   1818.59     0.0845     0.0037     0.0672     0.0236     0.1124     4.4129    37.7600     0.0746     0.5731
  120    2.380   1819.56     0.0768     0.0035     0.0654     0.0238     0.1048     4.4593    38.0800     0.0667     0.6435
  121    2.400   1820.53     0.0791     0.0033     0.0672     0.0240     0.1075     4.2017    38.4000     0.0691     0.6289
  122    2.420   1821.51     0.0794     0.0033     0.0692     0.0242     0.1081     4.1366    38.7200     0.0694     0.6370
  123    2.440   1822.43     0.0785     0.0033     0.0706     0.0244     0.1080     4.0793    39.0400     0.0690     0.6634
  124    2.460   1823.40     0.0831     0.0036     0.0709     0.0246     0.1128     4.3514    39.3600     0.0734     0.6262
  125    2.480   1824.38     0.0831     0.0037     0.0709     0.0248     0.1131     4.4597    39.6800     0.0734     0.6335
  126    2.500   1825.37     0.0891     0.0039     0.0683     0.0250     0.1183     4.3465    40.0000     0.0783     0.5687
  127    2.520   1826.32     0.0880     0.0039     0.0627     0.0252     0.1153     4.4439    40.3200     0.0750     0.5305
  128    2.540   1827.32     0.0935     0.0039     0.0584     0.0254     0.1184     4.2359    40.6400     0.0778     0.4346
  129    2.560   1828.24     0.0952     0.0037     0.0588     0.0256     0.1196     3.7941    40.9600     0.0787     0.4148
  130    2.580   1829.22     0.0923     0.0040     0.0618     0.0258     0.1178     4.3282    41.2800     0.0766     0.4565
  131    2.600   1830.20     0.0946     0.0040     0.0626     0.0260     0.1210     4.1473    41.6000     0.0794     0.4626
  132    2.620   1831.16     0.0943     0.0040     0.0607     0.0262     0.1200     4.2969    41.9200     0.0781     0.4494
  133    2.640   1832.14     0.0890     0.0041     0.0565     0.0264     0.1137     4.5890    42.2400     0.0714     0.4518
  134    2.660   1833.12     0.0830     0.0039     0.0476     0.0266     0.1047     4.7396    42.5600     0.0622     0.4078
  135    2.680   1834.10     0.0874     0.0044     0.0469     0.0268     0.1072     5.0777    42.8800     0.0643     0.3160
  136    2.700   1835.07     0.1051     0.0047     0.0446     0.0270     0.1230     4.7048    43.2000     0.0798     0.1961
  137    2.720   1836.04     0.1137     0.0048     0.0472     0.0272     0.1334     4.2445    43.5200     0.0899     0.2187
  138    2.740   1836.98     0.1166     0.0048     0.0487     0.0274     0.1367     4.1683    43.8400     0.0928     0.2201
  139    2.760   1837.95     0.1193     0.0046     0.0534     0.0276     0.1410     3.9156    44.1600     0.0968     0.2478
  140    2.780   1838.93     0.1180     0.0049     0.0550     0.0278     0.1407     4.1302    44.4800     0.0963     0.2733
  141    2.800   1839.90     0.1096     0.0049     0.0567     0.0280     0.1333     4.3794    44.8000     0.0885     0.3215
  142    2.820   1840.91     0.1013     0.0054     0.0574     0.0282     0.1251     5.1584    45.1200     0.0800     0.3566
  143    2.840   1841.85     0.0982     0.0052     0.0537     0.0284     0.1215     5.2655    45.4400     0.0761     0.3549
  144    2.860   1842.80     0.0954     0.0049     0.0463     0.0286     0.1154     5.0526    45.7600     0.0696     0.2712
  145    2.880   1843.77     0.0808     0.0049     0.0527     0.0288     0.1021     5.8182    46.0800     0.0560     0.3928
  146    2.900   1844.74     0.0772     0.0045     0.0522     0.0290     0.0992     5.7070    46.4000     0.0528     0.4437
  147    2.920   1845.69     0.0722     0.0043     0.0567     0.0292     0.0955     5.7712    46.7200     0.0487     0.5380
  148    2.940   1846.64     0.0753     0.0043     0.0582     0.0294     0.0996     5.7434    47.0400     0.0526     0.5421
  149    2.960   1847.59     0.0809     0.0040     0.0608     0.0296     0.1060     5.0873    47.3600     0.0586     0.5139
  150    2.980   1848.59     0.0842     0.0040     0.0619     0.0298     0.1104     4.7999    47.6800     0.0627     0.5204
  151    3.000   1849.57     0.0879     0.0043     0.0614     0.0300     0.1139     5.0039    48.0000     0.0659     0.4848
  152    3.020   1850.54     0.0848     0.0043     0.0590     0.0302     0.1104     5.0727    48.3200     0.0621     0.4977
  153    3.040   1851.51     0.0930     0.0044     0.0624     0.0304     0.1194     4.8574    48.6400     0.0708     0.4580
  154    3.060   1852.51     0.1006     0.0043     0.0633     0.0306     0.1271     4.4639    48.9600     0.0781     0.4141
  155    3.080   1853.45     0.1073     0.0047     0.0665     0.0308     0.1343     4.4152    49.2800     0.0850     0.3941
  156    3.100   1854.45     0.1121     0.0050     0.0718     0.0310     0.1417     4.5063    49.6000     0.0921     0.4273
  157    3.120   1855.42     0.1187     0.0049     0.0734     0.0312     0.1491     4.2554    49.9200     0.0992     0.4167
  158    3.140   1856.40     0.1163     0.0049     0.0772     0.0314     0.1483     4.2456    50.2400     0.0980     0.4546
  159    3.160   1857.37     0.1176     0.0050     0.0798     0.0316     0.1507     4.2764    50.5600     0.1001     0.4716
  160    3.180   1858.30     0.1140     0.0047     0.0823     0.0318     0.1483     4.1055    50.8800     0.0975     0.5136
  161    3.200   1859.27     0.1122     0.0050     0.0851     0.0320     0.1473     4.4748    51.2000     0.0961     0.5376
  162    3.220   1860.26     0.1143     0.0051     0.0886     0.0322     0.1512     4.4964    51.5200     0.0997     0.5578
  163    3.240   1861.24     0.1187     0.0051     0.0891     0.0324     0.1560     4.3124    51.8400     0.1042     0.5418
  164    3.260   1862.21     0.1238     0.0053     0.0911     0.0326     0.1616     4.2726    52.1600     0.1094     0.5239
  165    3.280   1863.21     0.1263     0.0053     0.0851     0.0328     0.1639     4.2981    52.4800     0.1114     0.5085
  166    3.300   1864.13     0.1263     0.0052     0.0787     0.0330     0.1597     4.0934    52.8000     0.1069     0.4357
  167    3.320   1865.12     0.1236     0.0056     0.0803     0.0332     0.1569     4.5043    53.1200     0.1037     0.4444
  168    3.340   1866.06     0.1168     0.0055     0.0821     0.0334     0.1513     4.5934    53.4400     0.0978     0.4971
  169    3.360   1867.02     0.1199     0.0052     0.0835     0.0336     0.1549     4.3918    53.7600     0.1011     0.4899
  170    3.380   1867.98     0.1164     0.0051     0.0855     0.0338     0.1521     4.3661    54.0800     0.0981     0.5239
  171    3.400   1868.97     0.1266     0.0051     0.0815     0.0340     0.1616     4.1762    54.4000     0.1072     0.4603
  172    3.420   1869.94     0.1370     0.0054     0.0785     0.0342     0.1701     4.0945    54.7200     0.1154     0.3885
  173    3.440   1870.88     0.1455     0.0060     0.0760     0.0344     0.1779     4.2095    55.0400     0.1228     0.3467
  174    3.460   1871.89     0.1547     0.0067     0.0709     0.0346     0.1847     4.4540    55.3600     0.1293     0.2843
  175    3.480   1872.82     0.1555     0.0072     0.0641     0.0348     0.1834     4.6092    55.6800     0.1278     0.2480
  176    3.500   1873.79     0.1527     0.0078     0.0608     0.0350     0.1790     5.0563    56.0000     0.1230     0.2250
  177    3.520   1874.77     0.1421     0.0075     0.0574     0.0352     0.1662     5.1585    56.3200     0.1099     0.2027
  178    3.540   1875.75     0.1238     0.0072     0.0595     0.0354     0.1484     5.6336    56.6400     0.0917     0.2538
  179    3.560   1876.71     0.1085     0.0069     0.0619     0.0356     0.1343     6.0519    56.9600     0.0773     0.3342
  180    3.580   1877.68     0.0965     0.0064     0.0682     0.0358     0.1244     6.5442    57.2800     0.0671     0.4546
  181    3.600   1878.66     0.0926     0.0060     0.0737     0.0360     0.1230     6.4730    57.6000     0.0654     0.5570
  182    3.620   1879.63     0.1030     0.0056     0.0800     0.0362     0.1353     5.6079    57.9200     0.0773     0.5259
  183    3.640   1880.63     0.1179     0.0058     0.0847     0.0364     0.1530     5.3543    58.2400     0.0948     0.4994
  184    3.660   1881.58     0.1209     0.0060     0.0863     0.0366     0.1570     5.1644    58.5600     0.0984     0.5008
  185    3.680   1882.55     0.1253     0.0060     0.0828     0.0368     0.1605     4.8910    58.8800     0.1016     0.4614
  186    3.700   1883.53     0.1250     0.0058     0.0790     0.0370     0.1584     4.6176    59.2000     0.0992     0.4286
  187    3.720   1884.50     0.1159     0.0060     0.0785     0.0372     0.1490     5.1177    59.5200     0.0895     0.4638
  188    3.740   1892.21     0.1134     0.0061     0.0829     0.0374     0.1475     5.3843    59.8400     0.0877     0.4981
  189    3.760   1906.28     0.1129     0.0058     0.0882     0.0376     0.1492     5.0598    60.1600     0.0890     0.5467
  190    3.780   1920.36     0.1124     0.0050     0.0933     0.0378     0.1509     4.4366    60.4800     0.0904     0.5952
  191    3.800   1923.76     0.1172     0.0052     0.0955     0.0380     0.1571     4.4476    60.8000     0.0963     0.5937
  192    3.820   1924.75     0.1179     0.0049     0.0953     0.0382     0.1580     4.1342    61.1200     0.0969     0.5898
  193    3.840   1925.69     0.1193     0.0047     0.0941     0.0384     0.1592     3.9671    61.4400     0.0977     0.5776
  194    3.860   1926.64     0.1217     0.0049     0.0903     0.0386     0.1603     4.1141    61.7600     0.0985     0.5408
  195    3.880   1927.63     0.1248     0.0050     0.0887     0.0388     0.1615     4.0116    62.0800     0.0994     0.4881
  196    3.900   1928.58     0.1273     0.0052     0.0901     0.0390     0.1647     4.1361    62.4000     0.1023     0.4887
  197    3.920   1929.56     0.1333     0.0053     0.0852     0.0392     0.1694     4.0552    62.7200     0.1066     0.4379
  198    3.940   1930.51     0.1351     0.0054     0.0880     0.0394     0.1715     4.0115    63.0400     0.1085     0.4368
  199    3.960   1931.48     0.1286     0.0053     0.0877     0.0396     0.1656     4.0859    63.3600     0.1023     0.4754
  200    3.980   1932.45     0.1254     0.0055     0.0861     0.0398     0.1620     4.3901    63.6800     0.0984     0.4829
  201    4.000   1933.42     0.1175     0.0057     0.0839     0.0400     0.1530     4.7317    64.0000     0.0890     0.5010
  202    4.020   1934.39     0.1118     0.0051     0.0871     0.0402     0.1476     4.5377    64.3200     0.0833     0.5420
  203    4.040   1935.35     0.1059     0.0052     0.0895     0.0404     0.1435     4.8303    64.6400     0.0789     0.6248
  204    4.060   1936.34     0.1051     0.0048     0.0909     0.0406     0.1428     4.5793    64.9600     0.0778     0.6326
  205    4.080   1937.31     0.1018     0.0046     0.0951     0.0408     0.1411     4.5404    65.2800     0.0758     0.6960
  206    4.100   1938.28     0.1038     0.0047     0.0991     0.0410     0.1449     4.5023    65.6000     0.0793     0.7153
  207    4.120   1939.28     0.1175     0.0045     0.1021     0.0412     0.1601     3.8877    65.9200     0.0942     0.6412
  208    4.140   1940.26     0.1217     0.0043     0.1008     0.0414     0.1643     3.5765    66.2400     0.0980     0.6126
  209    4.160   1941.26     0.1286     0.0046     0.0988     0.0416     0.1705     3.5290    66.5600     0.1040     0.5594
  210    4.180   1942.23     0.1270     0.0049     0.0967     0.0418     0.1679     3.7865    66.8800     0.1010     0.5501
  211    4.200   1943.19     0.1268     0.0047     0.0972     0.0420     0.1671     3.6850    67.2000     0.0999     0.5405
  212    4.220   1944.16     0.1277     0.0050     0.0933     0.0422     0.1680     3.9115    67.5200     0.1005     0.5350
  213    4.240   1945.16     0.1321     0.0052     0.0930     0.0424     0.1714     3.9309    67.8400     0.1035     0.4943
  214    4.260   1946.11     0.1323     0.0050     0.0961     0.0426     0.1719     3.8172    68.1600     0.1037     0.4988
  215    4.280   1947.08     0.1300     0.0052     0.0980     0.0428     0.1702     3.9737    68.4800     0.1017     0.5210
  216    4.300   1948.06     0.1305     0.0057     0.0949     0.0430     0.1715     4.3704    68.8000     0.1027     0.5312
  217    4.320   1949.03     0.1308     0.0053     0.0948     0.0432     0.1708     4.0939    69.1200     0.1017     0.5129
  218    4.340   1950.02     0.1282     0.0050     0.0910     0.0434     0.1659     3.8561    69.4400     0.0964     0.4812
  219    4.360   1951.00     0.1264     0.0050     0.0930     0.0436     0.1665     3.9614    69.7600     0.0967     0.5358
  220    4.380   1951.94     0.1236     0.0044     0.0947     0.0438     0.1626     3.6035    70.0800     0.0925     0.5297
  221    4.400   1952.92     0.1249     0.0043     0.1035     0.0440     0.1671     3.4341    70.4000     0.0967     0.5839
  222    4.420   1953.84     0.1294     0.0047     0.1055     0.0442     0.1738     3.6812    70.7200     0.1030     0.5963
  223    4.440   1954.80     0.1342     0.0046     0.1062     0.0444     0.1787     3.4822    71.0400     0.1077     0.5707
  224    4.460   1955.79     0.1339     0.0048     0.1054     0.0446     0.1782     3.5344    71.3600     0.1069     0.5705
  225    4.480   1956.74     0.1385     0.0047     0.1024     0.0448     0.1821     3.4814    71.6800     0.1104     0.5343
  226    4.500   1957.73     0.1407     0.0046     0.1025     0.0450     0.1841     3.2552    72.0000     0.1121     0.5192
  227    4.520   1958.69     0.1446     0.0050     0.1023     0.0452     0.1872     3.4625    72.3200     0.1148     0.4882
  228    4.540   1959.66     0.1474     0.0050     0.1059     0.0454     0.1912     3.3844    72.6400     0.1185     0.4960
  229    4.560   1960.66     0.1475     0.0056     0.1061     0.0456     0.1909     3.7604    72.9600     0.1180     0.4901
  230    4.580   1961.63     0.1473     0.0058     0.1047     0.0458     0.1918     3.9155    73.2800     0.1185     0.5061
  231    4.600   1962.58     0.1490     0.0055     0.1014     0.0460     0.1924     3.7093    73.6000     0.1188     0.4813
  232    4.620   1963.57     0.1437     0.0056     0.0991     0.0462     0.1854     3.8306    73.9200     0.1115     0.4760
  233    4.640   1964.54     0.1340     0.0055     0.1033     0.0464     0.1769     4.0454    74.2400     0.1026     0.5425
  234    4.660   1965.53     0.1304     0.0054     0.1062     0.0466     0.1746     4.0956    74.5600     0.1000     0.5860
  235    4.680   1966.50     0.1288     0.0052     0.1137     0.0468     0.1755     4.0545    74.8800     0.1006     0.6396
  236    4.700   1967.48     0.1283     0.0049     0.1181     0.0470     0.1778     3.8926    75.2000     0.1026     0.6903
  237    4.720   1968.45     0.1346     0.0045     0.1162     0.0472     0.1836     3.3769    75.5200     0.1081     0.6425
  238    4.740   1969.42     0.1362     0.0048     0.1135     0.0474     0.1836     3.6040    75.8400     0.1078     0.6090
  239    4.760   1970.40     0.1354     0.0048     0.1140     0.0476     0.1835     3.4856    76.1600     0.1073     0.6228
  240    4.780   1971.35     0.1353     0.0046     0.1101     0.0478     0.1821     3.4196    76.4800     0.1057     0.6024
  241    4.800   1972.34     0.1393     0.0048     0.1029     0.0480     0.1833     3.4608    76.8000     0.1065     0.5321
  242    4.820   1973.28     0.1423     0.0050     0.1045     0.0482     0.1859     3.6004    77.1200     0.1088     0.5122
  243    4.840   1974.27     0.1419     0.0049     0.1046     0.0484     0.1859     3.4475    77.4400     0.1085     0.5202
  244    4.860   1975.25     0.1356     0.0050     0.1019     0.0486     0.1788     3.6337    77.7600     0.1011     0.5366
  245    4.880   1976.22     0.1288     0.0050     0.0977     0.0488     0.1703     3.8833    78.0800     0.0922     0.5415
  246    4.900   1977.18     0.1254     0.0048     0.1042     0.0490     0.1684     3.7763    78.4000     0.0900     0.5925
  247    4.920   1978.14     0.1255     0.0051     0.1075     0.0492     0.1702     4.0606    78.7200     0.0915     0.6243
  248    4.940   1979.11     0.1242     0.0050     0.1091     0.0494     0.1701     4.0458    79.0400     0.0911     0.6576
  249    4.960   1980.10     0.1275     0.0048     0.1113     0.0496     0.1734     3.7577    79.3600     0.0941     0.6357
  250    4.980   1981.05     0.1260     0.0050     0.1147     0.0498     0.1740     3.9270    79.6800     0.0944     0.6835
  251    5.000   1982.01     0.1328     0.0050     0.1123     0.0500     0.1806     3.8074    80.0000     0.1006     0.6334
  252    5.020   1982.97     0.1340     0.0051     0.1083     0.0502     0.1799     3.7696    80.3200     0.0996     0.5928
  253    5.040   1983.98     0.1364     0.0050     0.1082     0.0504     0.1822     3.7119    80.6400     0.1015     0.5765
  254    5.060   1984.91     0.1352     0.0052     0.1077     0.0506     0.1809     3.8847    80.9600     0.0999     0.5816
  255    5.080   1985.87     0.1327     0.0049     0.1072     0.0508     0.1771     3.6965    81.2800     0.0958     0.5733
  256    5.100   1986.87     0.1274     0.0047     0.1106     0.0510     0.1734     3.6244    81.6000     0.0918     0.6384
  257    5.120   1987.88     0.1278     0.0045     0.1142     0.0512     0.1751     3.5757    81.9200     0.0932     0.6592
  258    5.140   1988.86     0.1300     0.0045     0.1149     0.0514     0.1780     3.5180    82.2400     0.0957     0.6577
  259    5.160   1989.83     0.1259     0.0047     0.1178     0.0516     0.1752     3.7311    82.5600     0.0926     0.7095
  260    5.180   1990.79     0.1270     0.0048     0.1182     0.0518     0.1769     3.7625    82.8800     0.0940     0.7123
  261    5.200   1991.76     0.1375     0.0049     0.1147     0.0520     0.1859     3.5824    83.2000     0.1027     0.6154
  262    5.220   1992.73     0.1368     0.0050     0.1130     0.0522     0.1847     3.6543    83.5200     0.1012     0.6124
  263    5.240   1993.73     0.1420     0.0049     0.1146     0.0524     0.1896     3.5290    83.8400     0.1058     0.5773
  264    5.260   1994.68     0.1473     0.0049     0.1122     0.0526     0.1953     3.3802    84.1600     0.1111     0.5546
  265    5.280   1995.65     0.1499     0.0055     0.1130     0.0528     0.1969     3.6977    84.4800     0.1124     0.5260
  266    5.300   1996.62     0.1549     0.0053     0.1183     0.0530     0.2042     3.4626    84.8000     0.1194     0.5395
  267    5.320   1997.58     0.1581     0.0053     0.1237     0.0532     0.2094     3.3646    85.1200     0.1243     0.5555
  268    5.340   1998.54     0.1646     0.0056     0.1197     0.0534     0.2157     3.4260    85.4400     0.1302     0.5248
  269    5.360   1999.51     0.1621     0.0057     0.1200     0.0536     0.2122     3.5351    85.7600     0.1264     0.5196
  270    5.380   2000.47     0.1603     0.0059     0.1181     0.0538     0.2102     3.6466    86.0800     0.1241     0.5240
  271    5.400   2001.44     0.1642     0.0059     0.1204     0.0540     0.2141     3.5793    86.4000     0.1277     0.5088
  272    5.420   2002.42     0.1614     0.0059     0.1226     0.0542     0.2122     3.6256    86.7200     0.1255     0.5310
  273    5.440   2003.39     0.1576     0.0055     0.1289     0.0544     0.2108     3.4135    87.0400     0.1237     0.5831
  274    5.460   2004.37     0.1605     0.0052     0.1327     0.0546     0.2162     3.2431    87.3600     0.1288     0.6040
  275    5.480   2005.33     0.1620     0.0051     0.1329     0.0548     0.2170     3.1917    87.6800     0.1294     0.5899
  276    5.500   2006.26     0.1671     0.0050     0.1376     0.0550     0.2248     3.0645    88.0000     0.1368     0.6021
  277    5.520   2007.14     0.1776     0.0054     0.1366     0.0552     0.2351     3.1061    88.3200     0.1468     0.5562
  278    5.540   2008.08     0.1762     0.0055     0.1293     0.0554     0.2317     3.1226    88.6400     0.1431     0.5362
  279    5.560   2009.04     0.1772     0.0055     0.1201     0.0556     0.2291     3.0911    88.9600     0.1402     0.4851
  280    5.580   2010.03     0.1732     0.0058     0.1221     0.0558     0.2246     3.3075    89.2800     0.1353     0.4920
  281    5.600   2010.94     0.1740     0.0057     0.1228     0.0560     0.2252     3.2614    89.6000     0.1356     0.4856
  282    5.620   2011.96     0.1760     0.0062     0.1291     0.0562     0.2296     3.4593    89.9200     0.1397     0.5120
  283    5.640   2012.93     0.1819     0.0063     0.1323     0.0564     0.2372     3.5243    90.2400     0.1470     0.5122
  284    5.660   2013.93     0.1811     0.0065     0.1340     0.0566     0.2376     3.5893    90.5600     0.1471     0.5308
  285    5.680   2014.90     0.1799     0.0069     0.1338     0.0568     0.2360     3.8486    90.8800     0.1451     0.5291
  286    5.700   2015.88     0.1834     0.0068     0.1324     0.0570     0.2395     3.7279    91.2000     0.1483     0.5164
  287    5.720   2016.85     0.1857     0.0066     0.1292     0.0572     0.2402     3.5546    91.5200     0.1487     0.4886
  288    5.740   2028.14     0.1942     0.0070     0.1282     0.0574     0.2482     3.7862    91.8400     0.1564     0.4582
  289    5.760   2040.43     0.2042     0.0070     0.1272     0.0576     0.2577     3.7589    92.1600     0.1656     0.4249
  290    5.780   2049.69     0.2111     0.0068     0.1292     0.0578     0.2648     3.2188    92.4800     0.1723     0.4067
  291    5.800   2050.51     0.2112     0.0065     0.1325     0.0580     0.2663     3.0815    92.8000     0.1735     0.4217
  292    5.820   2051.33     0.2122     0.0065     0.1302     0.0582     0.2674     3.0533    93.1200     0.1743     0.4204
  293    5.840   2052.29     0.2088     0.0067     0.1266     0.0584     0.2625     3.1716    93.4400     0.1691     0.4113
  294    5.860   2053.27     0.2046     0.0065     0.1191     0.0586     0.2554     3.1614    93.7600     0.1617     0.3856
  295    5.880   2054.25     0.1992     0.0062     0.1255     0.0588     0.2507     3.0750    94.0800     0.1566     0.4081
  296    5.900   2055.19     0.1896     0.0061     0.1308     0.0590     0.2439     3.1945    94.4000     0.1495     0.4699
  297    5.920   2056.18     0.1857     0.0061     0.1349     0.0592     0.2418     3.2373    94.7200     0.1471     0.5063
  298    5.940   2057.13     0.1799     0.0059     0.1338     0.0594     0.2363     3.2273    95.0400     0.1413     0.5307
  299    5.960   2058.09     0.1734     0.0056     0.1369     0.0596     0.2302     3.2261    95.3600     0.1349     0.5613
  300    5.980   2059.04     0.1685     0.0053     0.1386     0.0598     0.2266     3.1085    95.6800     0.1309     0.5991
  301    6.000   2060.03     0.1683     0.0052     0.1426     0.0600     0.2279     3.1038    96.0000     0.1319     0.6212
  302    6.020   2060.95     0.1695     0.0051     0.1442     0.0602     0.2299     2.9888    96.3200     0.1336     0.6251
  303    6.040   2061.95     0.1736     0.0051     0.1433     0.0604     0.2343     2.9308    96.6400     0.1376     0.6104
  304    6.060   2062.87     0.1763     0.0052     0.1414     0.0606     0.2353     2.9333    96.9600     0.1384     0.5779
  305    6.080   2063.90     0.1802     0.0053     0.1409     0.0608     0.2398     3.0027    97.2800     0.1425     0.5703
  306    6.100   2064.83     0.1853     0.0056     0.1401     0.0610     0.2442     3.0559    97.6000     0.1466     0.5396
  307    6.120   2065.81     0.1856     0.0056     0.1421     0.0612     0.2448     2.9497    97.9200     0.1469     0.5442
  308    6.140   2066.78     0.1843     0.0056     0.1382     0.0614     0.2435     3.0296    98.2400     0.1452     0.5466
  309    6.160   2067.76     0.1812     0.0056     0.1347     0.0616     0.2376     3.0460    98.5600     0.1390     0.5232
  310    6.180   2068.70     0.1779     0.0053     0.1378     0.0618     0.2352     2.9638    98.8800     0.1364     0.5479
  311    6.200   2069.67     0.1783     0.0056     0.1400     0.0620     0.2367     3.1121    99.2000     0.1375     0.5608
  312    6.220   2070.64     0.1797     0.0054     0.1410     0.0622     0.2382     3.0429    99.5200     0.1386     0.5546
  313    6.240   2071.60     0.1820     0.0054     0.1434     0.0624     0.2422     2.9941    99.8400     0.1424     0.5693
  314    6.260   2072.60     0.1820     0.0053     0.1403     0.0626     0.2415     2.9315   100.1600     0.1413     0.5589
  315    6.280   2073.55     0.1865     0.0057     0.1433     0.0628     0.2459     3.0478   100.4800     0.1454     0.5404
  316    6.300   2074.52     0.1916     0.0059     0.1457     0.0630     0.2529     3.1233   100.8000     0.1521     0.5458
  317    6.320   2075.46     0.1927     0.0060     0.1423     0.0632     0.2526     3.1048   101.1200     0.1515     0.5236
  318    6.340   2076.41     0.1927     0.0059     0.1435     0.0634     0.2528     3.0264   101.4400     0.1514     0.5267
  319    6.360   2077.38     0.1923     0.0060     0.1445     0.0636     0.2527     3.1562   101.7600     0.1509     0.5311
  320    6.380   2078.33     0.1911     0.0063     0.1478     0.0638     0.2526     3.2714   102.0800     0.1506     0.5488
  321    6.400   2079.31     0.1927     0.0060     0.1496     0.0640     0.2554     3.1551   102.4000     0.1530     0.5578
  322    6.420   2080.28     0.2053     0.0063     0.1485     0.0642     0.2677     3.1910   102.7200     0.1650     0.5119
  323    6.440   2081.25     0.2149     0.0061     0.1438     0.0644     0.2764     2.9140   103.0400     0.1733     0.4726
  324    6.460   2082.21     0.2191     0.0062     0.1423     0.0646     0.2790     2.8590   103.3600     0.1756     0.4445
  325    6.480   2083.15     0.2223     0.0063     0.1450     0.0648     0.2823     2.8567   103.6800     0.1786     0.4371
  326    6.500   2084.13     0.2328     0.0070     0.1453     0.0650     0.2943     3.0206   104.0000     0.1903     0.4276
  327    6.520   2085.11     0.2344     0.0071     0.1462     0.0652     0.2954     3.0301   104.3200     0.1911     0.4191
  328    6.540   2086.02     0.2322     0.0070     0.1441     0.0654     0.2936     3.0047   104.6400     0.1889     0.4269
  329    6.560   2086.99     0.2312     0.0071     0.1346     0.0656     0.2903     3.0488   104.9600     0.1854     0.4051
  330    6.580   2087.99     0.2325     0.0076     0.1373     0.0658     0.2897     3.3101   105.2800     0.1844     0.3820
  331    6.600   2088.97     0.2255     0.0081     0.1427     0.0660     0.2836     3.5576   105.6000     0.1780     0.4057
  332    6.620   2089.94     0.2248     0.0086     0.1440     0.0662     0.2862     3.8052   105.9200     0.1802     0.4435
  333    6.640   2090.92     0.2250     0.0089     0.1422     0.0664     0.2848     4.0130   106.2400     0.1785     0.4253
  334    6.660   2091.89     0.2132     0.0086     0.1410     0.0666     0.2723     4.0004   106.5600     0.1658     0.4470
  335    6.680   2097.71     0.2071     0.0087     0.1455     0.0668     0.2674     4.1719   106.8800     0.1606     0.4778
  336    6.700   2110.74     0.2064     0.0084     0.1512     0.0670     0.2691     4.0584   107.2000     0.1619     0.5072
  337    6.720   2123.77     0.2057     0.0077     0.1568     0.0672     0.2707     3.7113   107.5200     0.1632     0.5365
  338    6.740   2136.81     0.2050     0.0067     0.1623     0.0674     0.2724     3.2363   107.8400     0.1645     0.5658
  339    6.760   2140.44     0.2041     0.0062     0.1650     0.0676     0.2733     3.0337   108.1600     0.1652     0.5888
  340    6.780   2141.07     0.2080     0.0063     0.1650     0.0678     0.2773     3.0122   108.4800     0.1688     0.5759
  341    6.800   2141.69     0.2101     0.0062     0.1706     0.0680     0.2807     2.9603   108.8000     0.1719     0.5820
  342    6.820   2142.34     0.2143     0.0062     0.1735     0.0682     0.2876     2.8758   109.1200     0.1785     0.5957
  343    6.840   2142.98     0.2272     0.0063     0.1616     0.0684     0.2964     2.8067   109.4400     0.1870     0.5152
  344    6.860   2143.63     0.2307     0.0066     0.1591     0.0686     0.2974     2.8656   109.7600     0.1877     0.4805
  345    6.880   2144.28     0.2310     0.0068     0.1578     0.0688     0.2975     2.9628   110.0800     0.1874     0.4775
  346    6.900   2144.92     0.2340     0.0074     0.1595     0.0690     0.3008     3.1894   110.4000     0.1904     0.4730
  347    6.920   2145.54     0.2323     0.0080     0.1620     0.0692     0.2997     3.4161   110.7200     0.1889     0.4823
  348    6.940   2146.17     0.2349     0.0086     0.1654     0.0694     0.3040     3.6427   111.0400     0.1930     0.4927
  349    6.960   2146.77     0.2348     0.0088     0.1675     0.0696     0.3049     3.7562   111.3600     0.1935     0.5025
  350    6.980   2147.41     0.2322     0.0087     0.1667     0.0698     0.3022     3.7205   111.6800     0.1905     0.5083
  351    7.000   2157.71     0.2253     0.0083     0.1677     0.0700     0.2956     3.5826   112.0000     0.1836     0.5324
  352    7.020   2169.47     0.2181     0.0082     0.1687     0.0702     0.2888     3.5314   112.3200     0.1764     0.5594
  353    7.040   2181.24     0.2108     0.0075     0.1697     0.0704     0.2819     3.2269   112.6400     0.1693     0.5864
  354    7.060   2187.99     0.2046     0.0070     0.1844     0.0706     0.2792     3.3968   112.9600     0.1662     0.6431
  355    7.080   2188.99     0.2039     0.0062     0.1935     0.0708     0.2842     3.0709   113.2800     0.1709     0.7043
  356    7.100   2189.96     0.2078     0.0061     0.1972     0.0710     0.2904     2.9588   113.6000     0.1768     0.7111
  357    7.120   2190.90     0.2212     0.0060     0.1963     0.0712     0.3040     2.7433   113.9200     0.1901     0.6624
  358    7.140   2191.94     0.2346     0.0063     0.1900     0.0714     0.3149     2.7277   114.2400     0.2006     0.5963
  359    7.160   2192.89     0.2372     0.0062     0.1866     0.0716     0.3165     2.6051   114.5600     0.2019     0.5805
  360    7.180   2193.86     0.2371     0.0064     0.1832     0.0718     0.3136     2.6867   114.8800     0.1987     0.5554
  361    7.200   2194.85     0.2340     0.0070     0.1830     0.0720     0.3115     2.9454   115.2000     0.1963     0.5727
  362    7.220   2195.80     0.2358     0.0067     0.1814     0.0722     0.3121     2.8446   115.5200     0.1966     0.5564
  363    7.240   2196.82     0.2312     0.0071     0.1811     0.0724     0.3071     3.0560   115.8400     0.1912     0.5665
  364    7.260   2197.75     0.2336     0.0070     0.1863     0.0726     0.3107     3.0330   116.1600     0.1945     0.5707
  365    7.280   2198.73     0.2310     0.0071     0.1875     0.0728     0.3105     3.0938   116.4800     0.1941     0.6005
  366    7.300   2199.71     0.2352     0.0073     0.1808     0.0730     0.3120     3.0979   116.8000     0.1952     0.5627
  367    7.320   2200.70     0.2444     0.0069     0.1823     0.0732     0.3203     2.8219   117.1200     0.2032     0.5294
  368    7.340   2201.70     0.2481     0.0075     0.1864     0.0734     0.3262     3.0702   117.4400     0.2087     0.5386
  369    7.360   2202.65     0.2549     0.0074     0.1879     0.0736     0.3343     2.9382   117.7600     0.2165     0.5335
  370    7.380   2203.64     0.2617     0.0071     0.1920     0.0738     0.3429     2.7393   118.0800     0.2248     0.5314
  371    7.400   2204.60     0.2671     0.0071     0.1929     0.0740     0.3483     2.6761   118.4000     0.2299     0.5189
  372    7.420   2205.60     0.2786     0.0069     0.1861     0.0742     0.3573     2.4790   118.7200     0.2386     0.4746
  373    7.440   2206.57     0.2645     0.0066     0.1888     0.0744     0.3427     2.4336   119.0400     0.2236     0.4992
  374    7.460   2207.55     0.2547     0.0065     0.1963     0.0746     0.3365     2.5267   119.3600     0.2171     0.5535
  375    7.480   2208.48     0.2589     0.0065     0.1959     0.0748     0.3408     2.5389   119.6800     0.2211     0.5440
  376    7.500   2209.47     0.2581     0.0068     0.2020     0.0750     0.3419     2.6293   120.0000     0.2219     0.5615
  377    7.520   2210.43     0.2597     0.0070     0.2029     0.0752     0.3462     2.6867   120.3200     0.2259     0.5791
  378    7.540   2211.44     0.2586     0.0070     0.2007     0.0754     0.3431     2.7165   120.6400     0.2224     0.5651
  379    7.560   2212.46     0.2569     0.0067     0.2020     0.0756     0.3413     2.6201   120.9600     0.2203     0.5686
  380    7.580   2213.39     0.2501     0.0064     0.2028     0.0758     0.3350     2.5269   121.2800     0.2138     0.5920
  381    7.600   2214.38     0.2493     0.0068     0.2027     0.0760     0.3346     2.7126   121.6000     0.2130     0.5962
  382    7.620   2215.40     0.2537     0.0065     0.1993     0.0762     0.3367     2.5872   121.9200     0.2148     0.5659
  383    7.640   2220.50     0.2437     0.0058     0.2003     0.0764     0.3282     2.4010   122.2400     0.2060     0.6063
  384    7.660   2231.98     0.2473     0.0055     0.1975     0.0766     0.3307     2.2816   122.5600     0.2081     0.5860
  385    7.680   2243.46     0.2509     0.0056     0.1955     0.0768     0.3331     2.3089   122.8800     0.2102     0.5658
  386    7.700   2247.67     0.2550     0.0059     0.2073     0.0770     0.3407     2.3213   123.2000     0.2175     0.5844
  387    7.720   2248.62     0.2647     0.0056     0.2100     0.0772     0.3530     2.1365   123.5200     0.2294     0.5798
  388    7.740   2249.60     0.2754     0.0061     0.2004     0.0774     0.3617     2.2392   123.8400     0.2378     0.5383
  389    7.760   2250.55     0.2871     0.0072     0.1834     0.0776     0.3683     2.5487   124.1600     0.2441     0.4739
  390    7.780   2251.56     0.3047     0.0070     0.1821     0.0778     0.3798     2.3162   124.4800     0.2553     0.3958
  391    7.800   2252.52     0.2988     0.0073     0.1895     0.0780     0.3782     2.4403   124.8000     0.2534     0.4379
  392    7.820   2253.49     0.3140     0.0082     0.1734     0.0782     0.3902     2.6326   125.1200     0.2651     0.3893
  393    7.840   2254.44     0.3194     0.0091     0.1811     0.0784     0.3938     2.8519   125.4400     0.2684     0.3679
  394    7.860   2255.44     0.3175     0.0091     0.1913     0.0786     0.3965     2.8893   125.7600     0.2708     0.4047
  395    7.880   2256.39     0.3274     0.0095     0.1861     0.0788     0.4076     2.9470   126.0800     0.2815     0.3983
  396    7.900   2257.38     0.3299     0.0096     0.1697     0.0790     0.4030     2.8774   126.4000     0.2766     0.3434
  397    7.920   2258.34     0.3251     0.0098     0.1781     0.0792     0.3983     3.0020   126.7200     0.2716     0.3498
  398    7.940   2259.33     0.3228     0.0105     0.1911     0.0794     0.4023     3.2148   127.0400     0.2753     0.3988
  399    7.960   2260.33     0.3366     0.0106     0.1839     0.0796     0.4146     3.2167   127.3600     0.2872     0.3693
  400    7.980   2261.28     0.3387     0.0106     0.1796     0.0798     0.4145     3.1165   127.6800     0.2869     0.3511
  401    8.000   2262.26     0.3399     0.0106     0.1813     0.0800     0.4162     3.1240   128.0000     0.2882     0.3534
  402    8.020   2263.25     0.3279     0.0103     0.1843     0.0802     0.4041     3.0915   128.3200     0.2758     0.3679
  403    8.040   2264.23     0.3204     0.0102     0.1911     0.0804     0.4004     3.2042   128.6400     0.2717     0.4048
  404    8.060   2265.22     0.3196     0.0100     0.1847     0.0806     0.3972     3.1433   128.9600     0.2683     0.3891
  405    8.080   2266.21     0.3184     0.0091     0.2039     0.0808     0.4017     2.8643   129.2800     0.2724     0.4312
  406    8.100   2267.17     0.3204     0.0083     0.1879     0.0810     0.4036     2.6006   129.6000     0.2740     0.4269
  407    8.120   2268.17     0.3325     0.0081     0.1875     0.0812     0.4073     2.4134   129.9200     0.2774     0.3497
  408    8.140   2269.14     0.3240     0.0089     0.1984     0.0814     0.4057     2.7579   130.2400     0.2754     0.4102
  409    8.160   2270.10     0.3582     0.0090     0.2164     0.0816     0.4493     2.6199   130.5600     0.3187     0.4263
  410    8.180   2271.11     0.4259     0.0102     0.2069     0.0818     0.5166     2.4845   130.8800     0.3857     0.3480
  411    8.200   2272.12     0.4518     0.0105     0.1967     0.0820     0.5361     2.3499   131.2000     0.4049     0.2936
  412    8.220   2273.09     0.4703     0.0100     0.1873     0.0822     0.5500     2.1514   131.5200     0.4185     0.2574
  413    8.240   2274.07     0.4677     0.0107     0.1828     0.0824     0.5454     2.2691   131.8400     0.4136     0.2482
  414    8.260   2275.04     0.4806     0.0115     0.1975     0.0826     0.5618     2.4231   132.1600     0.4296     0.2579
  415    8.280   2275.96     0.4739     0.0124     0.2087     0.0828     0.5618     2.5723   132.4800     0.4293     0.2943
  416    8.300   2276.94     0.4427     0.0126     0.1996     0.0830     0.5293     2.7686   132.8000     0.3965     0.3110
  417    8.320   2277.92     0.4253     0.0125     0.1788     0.0832     0.5021     2.9232   133.1200     0.3690     0.2703
  418    8.340   2278.92     0.4449     0.0117     0.1726     0.0834     0.5156     2.6890   133.4400     0.3822     0.2227
  419    8.360   2279.89     0.4481     0.0104     0.1702     0.0836     0.5212     2.3523   133.7600     0.3874     0.2332
  420    8.380   2280.86     0.4433     0.0110     0.1626     0.0838     0.5115     2.4520   134.0800     0.3774     0.2079
  421    8.400   2281.80     0.4485     0.0118     0.1770     0.0840     0.5209     2.6866   134.4000     0.3865     0.2281
  422    8.420   2282.78     0.4886     0.0130     0.1804     0.0842     0.5648     2.6153   134.7200     0.4300     0.2257
  423    8.440   2283.76     0.4385     0.0122     0.1330     0.0844     0.5033     2.7941   135.0400     0.3683     0.1890
  424    8.460   2284.75     0.4454     0.0114     0.1257     0.0846     0.4967     2.5766   135.3600     0.3613     0.1040
  425    8.480   2285.70     0.4937     0.0119     0.1192     0.0848     0.5457     2.4932   135.6800     0.4100     0.0951
  426    8.500   2286.67     0.5625     0.0119     0.1266     0.0850     0.6098     2.1756   136.0000     0.4738     0.0579
  427    8.520   2287.65     0.5600     0.0141     0.2066     0.0852     0.6402     2.5175   136.3200     0.5038     0.2094
  428    8.540   2288.64     0.5822     0.0149     0.2111     0.0854     0.6701     2.6048   136.6400     0.5335     0.2326
  429    8.560   2289.63     0.6896     0.0148     0.1843     0.0856     0.7694     2.1773   136.9600     0.6324     0.1650
  430    8.580   2290.59     0.7417     0.0151     0.1839     0.0858     0.8111     2.0474   137.2800     0.6738     0.1177
  431    8.600   2291.60     0.7438     0.0156     0.1910     0.0860     0.8197     2.0995   137.6000     0.6821     0.1387
  432    8.620   2292.58     0.7484     0.0162     0.2488     0.0862     0.8455     2.1736   137.9200     0.7076     0.2046
  433    8.640   2293.58     0.7869     0.0163     0.2817     0.0864     0.9017     2.0964   138.2400     0.7634     0.2446
  434    8.660   2294.55     0.8279     0.0175     0.2823     0.0866     0.9463     2.1554   138.5600     0.8077     0.2417
  435    8.680   2295.52     0.8791     0.0191     0.2612     0.0868     0.9933     2.1984   138.8800     0.8544     0.2168
  436    8.700   2296.51     0.8858     0.0202     0.2565     0.0870     0.9921     2.2717   139.2000     0.8529     0.1947
  437    8.720   2297.48     0.8837     0.0194     0.2413     0.0872     0.9922     2.1960   139.5200     0.8526     0.2006
  438    8.740   2298.46     0.9423     0.0167     0.2202     0.0874     1.0322     1.7913   139.8400     0.8924     0.1419
  439    8.760   2299.40     0.8862     0.0151     0.2343     0.0876     0.9837     1.6690   140.1600     0.8435     0.1716
  440    8.780   2300.36     0.7818     0.0152     0.2503     0.0878     0.8837     1.8815   140.4800     0.7432     0.2087
  441    8.800   2301.36     0.7913     0.0151     0.2736     0.0880     0.9050     1.9424   140.8000     0.7642     0.2389
  442    8.820   2302.35     0.8847     0.0152     0.2366     0.0882     0.9915     1.7744   141.1200     0.8504     0.1956
  443    8.840   2303.33     0.8308     0.0164     0.1146     0.0884     0.9006     1.9081   141.4400     0.7592     0.1011
  444    8.860   2304.29     0.7237     0.0167     0.0562     0.0886     0.7481     2.2155   141.7600     0.6063    -0.0507
  445    8.880   2305.26     0.6549     0.0181     0.0501     0.0888     0.6775     2.7512   142.0800     0.5354    -0.0653
  446    8.900   2306.22     0.6086     0.0191     0.0139     0.0890     0.6208     3.0122   142.4000     0.4784    -0.1277
  447    8.920   2307.19     0.4499     0.0188    -0.0034     0.0892     0.4505     3.9041   142.7200     0.3078    -0.2939
  448    8.940   2308.16     0.3712     0.0180     0.0096     0.0894     0.3733     4.8433   143.0400     0.2303    -0.3665
  449    8.960   2309.14     0.3318     0.0175     0.0266     0.0896     0.3405     4.9250   143.3600     0.1971    -0.3524
  450    8.980   2310.13     0.3120     0.0144     0.0338     0.0898     0.3247     5.0012   143.6800     0.1810    -0.3434
  451    9.000   2311.13     0.5266     0.0148     0.0468     0.0900     0.5450     3.1500   144.0000     0.4010    -0.1189
  452    9.020   2312.08     0.7212     0.0171     0.1063     0.0902     0.7582     2.4871   144.3200     0.6139    -0.0040
  453    9.040   2313.08     0.8104     0.0195     0.1419     0.0904     0.8667     2.3960   144.6400     0.7221     0.0607
  454    9.060   2314.05     0.6540     0.0182     0.1409     0.0906     0.7183     2.6214   144.9600     0.5734     0.1085
  455    9.080   2315.03     0.6120     0.0188     0.0719     0.0908     0.6511     3.0607   145.2800     0.5058     0.0043
  456    9.100   2316.02     0.7144     0.0187     0.0551     0.0910     0.7374     2.7679   145.6000     0.5918    -0.0613
  457    9.120   2317.01     0.7355     0.0186     0.0704     0.0912     0.7635     2.5117   145.9200     0.6176    -0.0397
  458    9.140   2317.98     0.7374     0.0162     0.0813     0.0914     0.7698     2.1612   146.2400     0.6235    -0.0230
  459    9.160   2318.98     0.5639     0.0146     0.0214     0.0916     0.5839     2.4167   146.5600     0.4373    -0.1012
  460    9.180   2319.93     0.4697     0.0144    -0.0384     0.0918     0.4581     2.9568   146.8800     0.3112    -0.3854
  461    9.200   2320.93     0.3576     0.0162    -0.0348     0.0920     0.3381     4.3123   147.2000     0.1909    -0.7282
  462    9.220   2321.89     0.3906     0.0191    -0.0074     0.0922     0.3852     5.4910   147.5200     0.2377    -0.4639
  463    9.240   2322.88     0.7875     0.0194     0.0207     0.0924     0.7902     2.9133   147.8400     0.6424    -0.1380
  464    9.260   2323.85     0.9734     0.0196     0.0499     0.0926     0.9916     2.0701   148.1600     0.8434    -0.0588
  465    9.280   2324.81     1.0680     0.0206     0.0891     0.0928     1.0999     1.9385   148.4800     0.9514    -0.0179
  466    9.300   2325.84     1.1113     0.0206     0.1273     0.0930     1.1574     1.8816   148.8000     1.0086     0.0165
  467    9.320   2326.82     1.1452     0.0235     0.1723     0.0932     1.2115     2.0099   149.1200     1.0624     0.0610
  468    9.340   2327.77     1.0233     0.0238     0.1911     0.0934     1.1051     2.3268   149.4400     0.9557     0.1062
  469    9.360   2328.77     0.9961     0.0224     0.1390     0.0936     1.0603     2.2243   149.7600     0.9106     0.0649
  470    9.380   2329.71     1.0189     0.0224     0.1040     0.0938     1.0675     2.2166   150.0800     0.9175     0.0240
  471    9.400   2330.71     1.1076     0.0223     0.0853     0.0940     1.1411     2.0559   150.4000     0.9907    -0.0146
  472    9.420   2331.64     1.1698     0.0231     0.1560     0.0942     1.2248     1.9659   150.7200     1.0741     0.0343
  473    9.440   2332.65     1.0419     0.0242     0.1804     0.0944     1.1193     2.2450   151.0400     0.9682     0.0928
  474    9.460   2333.61     1.0186     0.0220     0.2027     0.0946     1.0997     2.1725   151.3600     0.9483     0.1037
  475    9.480   2334.58     1.0668     0.0175     0.2169     0.0948     1.1548     1.6460   151.6800     1.0032     0.1144
  476    9.500   2335.56     1.0567     0.0160     0.2132     0.0950     1.1504     1.5138   152.0000     0.9984     0.1282
  477    9.520   2336.54     0.9894     0.0191     0.2036     0.0952     1.0779     1.9599   152.3200     0.9256     0.1248
  478    9.540   2337.51     0.9337     0.0232     0.2096     0.0954     1.0211     2.5110   152.6400     0.8685     0.1299
  479    9.560   2338.50     0.8355     0.0260     0.1689     0.0956     0.9116     2.9668   152.9600     0.7587     0.1128
  480    9.580   2339.45     0.8245     0.0226     0.1241     0.0958     0.8875     2.7739   153.2800     0.7342     0.0738
  481    9.600   2340.50     0.9339     0.0192     0.0876     0.0960     0.9688     2.1299   153.6000     0.8152    -0.0158
  482    9.620   2347.22     0.8584     0.0183     0.0946     0.0962     0.8973     2.0985   153.9200     0.7434    -0.0046
  483    9.640   2360.20     0.8288     0.0192     0.1004     0.0964     0.8701     2.1971   154.2400     0.7158     0.0033
  484    9.660   2373.17     0.7991     0.0179     0.1059     0.0966     0.8428     2.0592   154.5600     0.6883     0.0112
  485    9.680   2376.76     0.6984     0.0166     0.1122     0.0968     0.7449     2.3080   154.8800     0.5900     0.0238
  486    9.700   2377.74     0.6330     0.0168     0.1161     0.0970     0.6794     2.6092   155.2000     0.5242     0.0262
  487    9.720   2378.73     0.6099     0.0168     0.1463     0.0972     0.6662     2.7451   155.5200     0.5107     0.0721
  488    9.740   2379.67     0.5850     0.0164     0.1793     0.0974     0.6562     2.7566   155.8400     0.5003     0.1443
  489    9.760   2380.66     0.5564     0.0145     0.1880     0.0976     0.6350     2.5706   156.1600     0.4789     0.1871
  490    9.780   2381.64     0.5028     0.0139     0.1887     0.0978     0.5815     2.6897   156.4800     0.4251     0.2112
  491    9.800   2382.61     0.4754     0.0130     0.1863     0.0980     0.5534     2.7094   156.8000     0.3966     0.2215
  492    9.820   2383.60     0.4615     0.0136     0.1786     0.0982     0.5384     2.9424   157.1200     0.3813     0.2229
  493    9.840   2384.55     0.4705     0.0125     0.1779     0.0984     0.5442     2.6869   157.4400     0.3868     0.1998
  494    9.860   2385.51     0.4745     0.0115     0.1667     0.0986     0.5469     2.4159   157.7600     0.3891     0.1891
  495    9.880   2386.48     0.4437     0.0109     0.1560     0.0988     0.5112     2.3881   158.0800     0.3532     0.1755
  496    9.900   2387.46     0.4059     0.0101     0.1419     0.0990     0.4675     2.4331   158.4000     0.3091     0.1546
  497    9.920   2388.43     0.3668     0.0096     0.1404     0.0992     0.4248     2.4987   158.7200     0.2661     0.1462
  498    9.940   2389.40     0.3196     0.0083     0.1378     0.0994     0.3787     2.5422   159.0400     0.2197     0.1887
  499    9.960   2390.39     0.3018     0.0074     0.1325     0.0996     0.3570     2.4344   159.3600     0.1976     0.1608
  500    9.980   2391.35     0.2680     0.0071     0.1315     0.0998     0.3233     2.5380   159.6800     0.1636     0.1940
  501   10.000   2392.34     0.2384     0.0065     0.1430     0.1000     0.2963     2.6797   160.0000     0.1363     0.2788
  502   10.020   2393.28     0.2276     0.0063     0.1550     0.1002     0.2911     2.7494   160.3200     0.1308     0.3891
  503   10.040   2394.25     0.2249     0.0056     0.1660     0.1004     0.2932     2.5022   160.6400     0.1325     0.4696
  504   10.060   2395.21     0.2293     0.0038     0.1746     0.1006     0.3015     1.6376   160.9600     0.1405     0.5074
  505   10.080   2396.21     0.2321     0.0042     0.1800     0.1008     0.3069     1.8349   161.2800     0.1456     0.5308
  506   10.100   2397.19     0.2348     0.0069     0.1882     0.1010     0.3126     2.9949   161.6000     0.1510     0.5576
  507   10.120   2398.18     0.2441     0.0125     0.1958     0.1012     0.3253     5.1228   161.9200     0.1633     0.5637
  508   10.140   2399.21     0.2602     0.0157     0.2040     0.1014     0.3447     6.2835   162.2400     0.1825     0.5493
  509   10.160   2400.19     0.4757     0.0195     0.2083     0.1016     0.5627     5.0076   162.5600     0.4001     0.2804
  510   10.180   2401.16     0.8490     0.0227     0.2165     0.1018     0.9395     2.9321   162.8800     0.7766     0.1471
  511   10.200   2402.13     0.9794     0.0280     0.2624     0.1020     1.0850     2.9340   163.2000     0.9218     0.1619
  512   10.220   2403.11     1.0307     0.0312     0.3044     0.1022     1.1536     3.0595   163.5200     0.9900     0.1921
  513   10.240   2404.08     1.0827     0.0328     0.3407     0.1024     1.2183     3.0469   163.8400     1.0544     0.2091
  514   10.260   2405.05     1.0938     0.0327     0.3931     0.1026     1.2501     3.0117   164.1600     1.0859     0.2480
  515   10.280   2406.06     1.1385     0.0335     0.4197     0.1028     1.3100     2.9733   164.4800     1.1455     0.2666
  516   10.300   2406.98     1.1326     0.0336     0.4904     0.1030     1.3287     2.9568   164.8000     1.1639     0.3125
  517   10.320   2407.95     1.1403     0.0332     0.5232     0.1032     1.3571     2.9583   165.1200     1.1919     0.3465
  518   10.340   2408.93     1.1714     0.0334     0.5452     0.1034     1.3977     2.8647   165.4400     1.2323     0.3534
  519   10.360   2409.93     1.1821     0.0322     0.5770     0.1036     1.4176     2.7365   165.7600     1.2519     0.3653
  520   10.380   2410.87     1.2046     0.0307     0.6131     0.1038     1.4566     2.5638   166.0800     1.2905     0.3845
  521   10.400   2411.87     1.2359     0.0308     0.6453     0.1040     1.5035     2.5000   166.4000     1.3371     0.3987
  522   10.420   2412.88     1.2428     0.0286     0.6740     0.1042     1.5197     2.3233   166.7200     1.3530     0.4103
  523   10.440   2413.81     1.2421     0.0294     0.7191     0.1044     1.5385     2.3608   167.0400     1.3714     0.4383
  524   10.460   2414.82     1.2226     0.0301     0.7555     0.1046     1.5357     2.4428   167.3600     1.3683     0.4683
  525   10.480   2415.80     1.2296     0.0311     0.7582     0.1048     1.5478     2.5607   167.6800     1.3801     0.4731
  526   10.500   2416.74     1.2428     0.0329     0.7493     0.1050     1.5597     2.6285   168.0000     1.3917     0.4668
  527   10.520   2417.71     1.2160     0.0343     0.7348     0.1052     1.5265     2.8274   168.3200     1.3582     0.4669
  528   10.540   2418.71     1.2228     0.0337     0.7267     0.1054     1.5292     2.7561   168.6400     1.3606     0.4589
  529   10.560   2419.67     1.2344     0.0341     0.7329     0.1056     1.5400     2.7761   168.9600     1.3710     0.4537
  530   10.580   2420.66     1.2521     0.0326     0.7606     0.1058     1.5677     2.6087   169.2800     1.3984     0.4616
  531   10.600   2421.64     1.3001     0.0321     0.7917     0.1060     1.6273     2.4941   169.6000     1.4577     0.4618
  532   10.620   2422.60     1.3654     0.0413     0.8404     0.1062     1.7096     3.0515   169.9200     1.5397     0.4632
  533   10.640   2423.56     1.5744     0.0453     0.8127     0.1064     1.9226     2.9868   170.2400     1.7524     0.4142
  534   10.660   2424.62     2.2018     0.0476     0.8752     0.1066     2.5574     2.3203   170.5600     2.3869     0.3121
  535   10.680   2425.59     3.3605     0.0690     0.8853     0.1068     3.7464     2.1493   170.8800     3.5755     0.2289
  536   10.700   2426.59     4.8570     0.1072     0.6552     0.1070     5.1662     2.3744   171.2000     4.9950     0.1273
  537   10.720   2427.60     6.1176     0.1169     0.7161     0.1072     6.3926     1.9348   171.5200     6.2211     0.0879
  538   10.740   2428.60     6.3259     0.1049     0.5009     0.1074     6.6146     1.6636   171.8400     6.4428     0.0900
  539   10.760   2429.55     6.2643     0.0781     0.2906     0.1076     6.3952     1.2242   172.1600     6.2230     0.0328
  540   10.780   2430.59     5.3022     0.0758     0.5007     0.1078     5.4774     1.3109   172.4800     5.3049     0.0587
  541   10.800   2431.53     4.5268     0.1114     0.7319     0.1080     4.7774     2.3574   172.8000     4.6046     0.1062
  542   10.820   2432.50     4.6262     0.1004     0.9612     0.1082     5.0132     2.2516   173.1200     4.8401     0.1681
  543   10.840   2433.57     7.3189     0.0760     0.7303     0.1084     7.6792     1.2824   173.4400     7.5057     0.1028
  544   10.860   2434.64    12.8554     0.0629     0.2160     0.1086    13.0197     0.6055   173.7600    12.8459     0.0231
  545   10.880   2435.73    16.6108     0.0573    -0.0118     0.1088    16.6312     0.3742   174.0800    16.4571    -0.0035
  546   10.900   2436.78    19.0329     0.0560    -0.1359     0.1090    18.9927     0.3066   174.4000    18.8183    -0.0108
  547   10.920   2437.83    19.4765     0.0529    -0.1757     0.1092    19.4064     0.2712   174.7200    19.2317    -0.0144
  548   10.940   2438.83    18.5060     0.0653    -0.1895     0.1094    18.4272     0.3502   175.0400    18.2522    -0.0163
  549   10.960   2439.86    16.8677     0.0829    -0.1892     0.1096    16.7877     0.4869   175.3600    16.6123    -0.0181
  550   10.980   2440.86    14.7594     0.1129    -0.1840     0.1098    14.6819     0.7554   175.6800    14.5062    -0.0203
  551   11.000   2441.83    12.4610     0.1291    -0.1847     0.1100    12.3834     1.0268   176.0000    12.2074    -0.0242
  552   11.020   2442.83    10.7574     0.1399    -0.1780     0.1102    10.6812     1.2533   176.3200    10.5049    -0.0278
  553   11.040   2443.83     9.6638     0.1415    -0.1570     0.1104     9.5934     1.4506   176.6400     9.4167    -0.0295
  554   11.060   2444.85     8.8626     0.1382    -0.0937     0.1106     8.8110     1.5496   176.9600     8.6341    -0.0270
  555   11.080   2445.86     8.1792     0.1394     0.0077     0.1108     8.1768     1.6988   177.2800     7.9995    -0.0145
  556   11.100   2446.86     7.5629     0.1356    -0.0614     0.1110     7.5442     1.7867   177.6000     7.3666    -0.0212
  557   11.120   2447.88     7.2560     0.1141    -0.0706     0.1112     7.2259     1.5676   177.9200     7.0479    -0.0260
  558   11.140   2448.87     7.3533     0.0972    -0.0638     0.1114     7.3259     1.3253   178.2400     7.1477    -0.0247
  559   11.160   2449.86     7.7903     0.0898    -0.0641     0.1116     7.7650     1.1576   178.5600     7.5864    -0.0227
  560   11.180   2450.89     8.2602     0.0765    -0.1083     0.1118     8.2256     0.9330   178.8800     8.0467    -0.0241
  561   11.200   2451.92     8.5352     0.0686    -0.1630     0.1120     8.4703     0.8055   179.2000     8.2911    -0.0321
  562   11.220   2452.93     8.7661     0.0775    -0.1776     0.1122     8.6932     0.8875   179.5200     8.5137    -0.0336
  563   11.240   2453.92     8.6823     0.1052    -0.1798     0.1124     8.6069     1.2083   179.8400     8.4270    -0.0347
  564   11.260   2454.89     8.2680     0.1299    -0.1797     0.1126     8.1930     1.5518   180.1600     8.0128    -0.0364
  565   11.280   2455.89     7.6220     0.1382    -0.1837     0.1128     7.5443     1.7841   180.4800     7.3638    -0.0405
  566   11.300   2456.92     6.9959     0.1362    -0.1688     0.1130     6.9225     1.9266   180.8000     6.7417    -0.0427
  567   11.320   2457.91     6.7042     0.1462    -0.1392     0.1132     6.6415     2.1766   181.1200     6.4603    -0.0406
  568   11.340   2458.88     7.1755     0.1579    -0.1396     0.1134     7.1172     2.2126   181.4400     6.9358    -0.0364
  569   11.360   2459.86     7.5550     0.1573    -0.1216     0.1136     7.5015     2.1202   181.7600     7.3197    -0.0329
  570   11.380   2460.83     7.5895     0.1601    -0.1408     0.1138     7.5339     2.1090   182.0800     7.3518    -0.0335
  571   11.400   2461.87     7.3693     0.1577    -0.1350     0.1140     7.3107     2.1211   182.4000     7.1283    -0.0356
  572   11.420   2462.89     7.4853     0.1429    -0.1093     0.1142     7.4333     1.9236   182.7200     7.2506    -0.0328
  573   11.440   2463.90     8.4196     0.1512    -0.0573     0.1144     8.3910     1.9380   183.0400     8.2079    -0.0223
  574   11.460   2465.01    10.6446     0.1537    -0.0782     0.1146    10.6161     1.6653   183.3600    10.4327    -0.0175
  575   11.480   2466.05    13.9031     0.1472    -0.0776     0.1148    13.8690     1.2950   183.6800    13.6853    -0.0143
  576   11.500   2467.06    15.6415     0.1419    -0.0332     0.1150    15.6209     0.9542   184.0000    15.4369    -0.0106
  577   11.520   2468.11    15.8694     0.1487    -0.0512     0.1152    15.8568     0.9311   184.3200    15.6725    -0.0093
  578   11.540   2469.08    15.0806     0.1507    -0.0962     0.1154    15.0486     0.9656   184.6400    14.8639    -0.0129
  579   11.560   2471.86    13.6451     0.1568    -0.0680     0.1156    13.6053     1.1111   184.9600    13.4203    -0.0156
  580   11.580   2488.96    13.2114     0.1578     0.0095     0.1158    13.2042     1.1520   185.2800    13.0189    -0.0100
  581   11.600   2506.05    12.7778     0.1725     0.0865     0.1160    12.8032     1.2595   185.6000    12.6176    -0.0043
  582   11.620   2511.71    12.8346     0.1819     0.1336     0.1162    12.8874     1.4324   185.9200    12.7015     0.0007
  583   11.640   2512.73    13.1695     0.1776     0.0722     0.1164    13.2118     1.3594   186.2400    13.0256    -0.0012
  584   11.660   2513.74    12.8856     0.1766    -0.0230     0.1166    12.8888     1.3541   186.5600    12.7022    -0.0086
  585   11.680   2514.80    12.6304     0.1714    -0.0590     0.1168    12.6097     1.3487   186.8800    12.4228    -0.0134
  586   11.700   2515.80    12.8912     0.1722    -0.0560     0.1170    12.8647     1.3555   187.2000    12.6775    -0.0142
  587   11.720   2516.87    13.7013     0.1935    -0.0223     0.1172    13.6892     1.4577   187.5200    13.5017    -0.0108
  588   11.740   2517.86    14.6659     0.2334    -0.0135     0.1174    14.6585     1.5951   187.8400    14.4707    -0.0093
  589   11.760   2518.86    14.2792     0.2691    -0.0589     0.1176    14.2631     1.8392   188.1600    14.0749    -0.0111
  590   11.780   2519.92    13.5831     0.2671    -0.0807     0.1178    13.5514     1.9329   188.4800    13.3629    -0.0145
  591   11.800   2520.92    13.0163     0.2768    -0.0811     0.1180    12.9794     2.0854   188.8000    12.7906    -0.0161
  592   11.820   2521.94    12.8144     0.2792    -0.0336     0.1182    12.7911     2.1776   189.1200    12.6020    -0.0138
  593   11.840   2522.97    12.8773     0.2761     0.2053     0.1184    12.9196     2.1512   189.4400    12.7302    -0.0014
  594   11.860   2523.99    13.6107     0.2722     0.0459     0.1186    13.6712     2.0615   189.7600    13.4814     0.0019
  595   11.880   2525.06    14.8978     0.2604    -0.0508     0.1188    14.8852     1.8082   190.0800    14.6951    -0.0101
  596   11.900   2526.07    15.3091     0.2320    -0.0709     0.1190    15.2808     1.5335   190.4000    15.0904    -0.0124
  597   11.920   2527.14    15.9072     0.2452    -0.0866     0.1192    15.8705     1.5572   190.7200    15.6798    -0.0132
  598   11.940   2528.14    15.6823     0.2339    -0.0738     0.1194    15.6496     1.4789   191.0400    15.4585    -0.0128
  599   11.960   2529.15    15.1401     0.2178    -0.0699     0.1196    15.1092     1.4263   191.3600    14.9178    -0.0130
  600   11.980   2530.21    15.3082     0.2023    -0.0877     0.1198    15.2763     1.3290   191.6800    15.0846    -0.0130
  601   12.000   2531.26    15.2542     0.1733    -0.0962     0.1200    15.2122     1.1309   192.0000    15.0202    -0.0146
  602   12.020   2532.33    15.3579     0.1646    -0.0955     0.1202    15.3223     1.0772   192.3200    15.1299    -0.0136
  603   12.040   2533.39    16.0023     0.1502    -0.1459     0.1204    15.9451     0.9587   192.6400    15.7525    -0.0163
  604   12.060   2534.40    16.3923     0.1595    -0.1464     0.1206    16.3300     0.9803   192.9600    16.1370    -0.0167
  605   12.080   2535.40    16.0231     0.1885    -0.1561     0.1208    15.9602     1.1526   193.2800    15.7669    -0.0172
  606   12.100   2536.40    14.5870     0.1928    -0.1643     0.1210    14.5177     1.2612   193.6000    14.3241    -0.0200
  607   12.120   2537.43    12.8859     0.2148    -0.1591     0.1212    12.8179     1.6124   193.9200    12.6240    -0.0224
  608   12.140   2538.48    12.5561     0.2415    -0.1436     0.1214    12.4936     1.9318   194.2400    12.2993    -0.0220
  609   12.160   2539.50    13.1673     0.2566    -0.1486     0.1216    13.1053     1.9467   194.5600    12.9107    -0.0209
  610   12.180   2540.51    12.3220     0.2977    -0.1320     0.1218    12.2592     2.3401   194.8800    12.0643    -0.0225
  611   12.200   2541.54    12.1188     0.3161    -0.1212     0.1220    12.0677     2.6042   195.2000    11.8725    -0.0205
  612   12.220   2542.59    11.4035     0.2882    -0.1062     0.1222    11.3562     2.4640   195.5200    11.1607    -0.0210
  613   12.240   2543.59    10.0369     0.2600    -0.0039     0.1224    10.0171     2.4583   195.8400     9.8212    -0.0172
  614   12.260   2544.59     9.0733     0.2591     0.0341     0.1226     9.0822     2.7970   196.1600     8.8860    -0.0114
  615   12.280   2545.62     9.8582     0.2474     0.1728     0.1228     9.9091     2.6128   196.4800     9.7126    -0.0003
  616   12.300   2546.71    11.7746     0.2186     0.1311     0.1230    11.8387     2.0123   196.8000    11.6419     0.0026
  617   12.320   2547.76    13.5940     0.2402    -0.0218     0.1232    13.6068     1.8696   197.1200    13.4097    -0.0068
  618   12.340   2548.81    14.9863     0.2674    -0.1016     0.1234    14.9482     1.8381   197.4400    14.7508    -0.0145
  619   12.360   2549.81    15.0676     0.2900    -0.0893     0.1236    15.0273     1.9047   197.7600    14.8296    -0.0148
  620   12.380   2550.84    14.1578     0.2962    -0.0718     0.1238    14.1268     2.0388   198.0800    13.9287    -0.0142
  621   12.400   2551.87    13.0438     0.2975    -0.0710     0.1240    13.0098     2.2109   198.4000    12.8114    -0.0160
  622   12.420   2552.91    12.7238     0.2888    -0.0267     0.1242    12.7089     2.2975   198.7200    12.5101    -0.0128
  623   12.440   2553.99    13.4531     0.3234     0.0480     0.1244    13.4503     2.4414   199.0400    13.2513    -0.0099
  624   12.460   2555.01    14.4026     0.3396     0.0148     0.1246    14.4259     2.4416   199.3600    14.2265    -0.0049
  625   12.480   2556.04    14.3969     0.3525    -0.1049     0.1248    14.3618     2.4189   199.6800    14.1621    -0.0147
  626   12.500   2557.05    13.4492     0.2897    -0.1107     0.1250    13.4024     2.0818   200.0000    13.2024    -0.0179
  627   12.520   2558.07    11.8129     0.2823    -0.1030     0.1252    11.7681     2.2710   200.3200    11.5678    -0.0201
  628   12.540   2559.11    11.4332     0.3200    -0.0873     0.1254    11.3956     2.7848   200.6400    11.1949    -0.0192
  629   12.560   2560.15    11.3434     0.3454     0.0054     0.1256    11.3242     3.0420   200.9600    11.1232    -0.0154
  630   12.580   2561.21    11.4289     0.3442     0.1261     0.1258    11.4825     3.0223   201.2800    11.2812     0.0002
  631   12.600   2562.20    11.6069     0.3087    -0.0511     0.1260    11.6089     2.6829   201.6000    11.4073    -0.0106
  632   12.620   2563.25    11.6886     0.2839    -0.0613     0.1262    11.6615     2.4502   201.9200    11.4596    -0.0166
  633   12.640   2564.30    11.7858     0.2872     0.0188     0.1264    11.7802     2.4252   202.2400    11.5780    -0.0121
  634   12.660   2565.35    11.6241     0.2960     0.0917     0.1266    11.6666     2.5481   202.5600    11.4641    -0.0022
  635   12.680   2566.40    11.4448     0.2724    -0.0356     0.1268    11.4515     2.3307   202.8800    11.2487    -0.0099
  636   12.700   2567.41    10.4786     0.2385    -0.1095     0.1270    10.4344     2.1738   203.2000    10.2312    -0.0227
  637   12.720   2568.45     9.6399     0.2154    -0.0498     0.1272     9.6075     2.1477   203.5200     9.4039    -0.0217
  638   12.740   2569.46    10.0531     0.2232     0.0069     0.1274    10.0476     2.2829   203.8400     9.8438    -0.0143
  639   12.760   2570.48    10.2192     0.2322     0.0297     0.1276    10.2411     2.2706   204.1600    10.0370    -0.0075
  640   12.780   2571.50    10.1153     0.2495    -0.0670     0.1278    10.0990     2.4654   204.4800     9.8945    -0.0168
  641   12.800   2572.50    10.1070     0.2554    -0.0950     0.1280    10.0672     2.5296   204.8000     9.8624    -0.0226
  642   12.820   2573.54     9.8111     0.2768    -0.0829     0.1282     9.7726     2.8166   205.1200     9.5674    -0.0230
  643   12.840   2574.55     9.4726     0.2667    -0.0652     0.1284     9.4443     2.8133   205.4400     9.2389    -0.0212
  644   12.860   2575.56     9.3182     0.2613    -0.0466     0.1286     9.2948     2.7775   205.7600     9.0891    -0.0203
  645   12.880   2576.54     8.7738     0.2353    -0.0118     0.1288     8.7634     2.5952   206.0800     8.5574    -0.0179
  646   12.900   2577.60     8.2917     0.2246     0.0281     0.1290     8.2975     2.7250   206.4000     8.0911    -0.0142
  647   12.920   2578.61     8.6162     0.2380     0.0612     0.1292     8.6361     2.7485   206.7200     8.4294    -0.0097
  648   12.940   2579.63     8.3555     0.2222     0.0012     0.1294     8.3606     2.6411   207.0400     8.1536    -0.0144
  649   12.960   2580.62     8.0655     0.2182    -0.0364     0.1296     8.0546     2.6986   207.3600     7.8473    -0.0198
  650   12.980   2581.63     7.6626     0.2057    -0.0731     0.1298     7.6381     2.6764   207.6800     7.4304    -0.0254
  651   13.000   2582.61     7.1941     0.2052    -0.0756     0.1300     7.1594     2.8425   208.0000     6.9514    -0.0306
  652   13.020   2583.62     6.7983     0.2017    -0.0353     0.1302     6.7744     2.9584   208.3200     6.5661    -0.0285
  653   13.040   2584.62     6.8788     0.2190    -0.0293     0.1304     6.8646     3.2033   208.6400     6.6560    -0.0247
  654   13.060   2585.66     7.0376     0.2102    -0.0285     0.1306     7.0283     2.9800   208.9600     6.8194    -0.0224
  655   13.080   2586.69     6.4876     0.1869    -0.0665     0.1308     6.4672     2.8216   209.2800     6.2579    -0.0288
  656   13.100   2587.66     5.5001     0.1591    -0.1026     0.1310     5.4616     2.8195   209.6000     5.2520    -0.0426
  657   13.120   2588.66     4.7406     0.1367    -0.0874     0.1312     4.6992     2.8442   209.9200     4.4892    -0.0512
  658   13.140   2589.64     4.2610     0.1473    -0.0272     0.1314     4.2396     3.4269   210.2400     4.0294    -0.0452
  659   13.160   2590.67     4.2405     0.1468     0.0415     0.1316     4.2485     3.5062   210.5600     4.0380    -0.0280
  660   13.180   2591.68     5.0155     0.1366     0.0643     0.1318     5.0410     2.7509   210.8800     4.8301    -0.0148
  661   13.200   2592.67     5.3829     0.1441    -0.0067     0.1320     5.3937     2.6783   211.2000     5.1825    -0.0205
  662   13.220   2593.65     5.2952     0.1583    -0.0347     0.1322     5.2790     2.9843   211.5200     5.0674    -0.0337
  663   13.240   2594.68     5.3782     0.1594     0.0029     0.1324     5.3733     2.9755   211.8400     5.1615    -0.0279
  664   13.260   2595.68     5.7606     0.1492     0.0172     0.1326     5.7652     2.6584   212.1600     5.5531    -0.0220
  665   13.280   2596.70     6.8977     0.1467     0.0340     0.1328     6.9097     2.1634   212.4800     6.6972    -0.0156
  666   13.300   2597.70     8.0342     0.1565     0.0436     0.1330     8.0505     1.9649   212.8000     7.8377    -0.0121
  667   13.320   2598.70     8.6701     0.1829     0.0335     0.1332     8.6872     2.1179   213.1200     8.4740    -0.0109
  668   13.340   2599.70     8.5444     0.1796    -0.0270     0.1334     8.5437     2.0926   213.4400     8.3303    -0.0163
  669   13.360   2600.70     8.2061     0.1628    -0.0467     0.1336     8.1864     1.9787   213.7600     7.9726    -0.0227
  670   13.380   2601.73     8.3217     0.1571    -0.0269     0.1338     8.3073     1.8977   214.0800     8.0932    -0.0208
  671   13.400   2602.73     8.5627     0.1531     0.0154     0.1340     8.5625     1.7993   214.4000     8.3481    -0.0161
  672   13.420   2603.72     8.3613     0.1615     0.0585     0.1342     8.3825     1.9387   214.7200     8.1678    -0.0102
  673   13.440   2604.71     8.0609     0.1696    -0.0294     0.1344     8.0658     2.0779   215.0400     7.8508    -0.0157
  674   13.460   2605.76     7.4359     0.1730    -0.0688     0.1346     7.4074     2.2717   215.3600     7.1920    -0.0282
  675   13.480   2606.74     6.9359     0.1613    -0.0617     0.1348     6.9086     2.2971   215.6800     6.6929    -0.0298
  676   13.500   2607.72     6.4537     0.1627    -0.0507     0.1350     6.4302     2.4992   216.0000     6.2142    -0.0307
  677   13.520   2617.96     6.1615     0.1895     0.0138     0.1352     6.1580     2.9942   216.3200     5.9416    -0.0238
  678   13.540   2632.35     5.9182     0.1995     0.0784     0.1354     5.9417     3.1975   216.6400     5.7251    -0.0136
  679   13.560   2638.08     5.6243     0.1759     0.1307     0.1356     5.6794     3.0369   216.9600     5.4625    -0.0008
  680   13.580   2639.17     5.3557     0.1652     0.0463     0.1358     5.3937     3.0707   217.2800     5.1764    -0.0088
  681   13.600   2640.17     5.2876     0.1568     0.0496     0.1360     5.3052     2.9662   217.6000     5.0876    -0.0185
  682   13.620   2641.17     5.4869     0.1564     0.1674     0.1362     5.5327     2.9388   217.9200     5.3148    -0.0054
  683   13.640   2642.16     6.2201     0.1445     0.1718     0.1364     6.2951     2.3363   218.2400     6.0768     0.0069
  684   13.660   2643.15     7.2363     0.1244     0.0648     0.1366     7.2709     1.7564   218.5600     7.0524    -0.0076
  685   13.680   2644.18     8.6242     0.1240     0.0580     0.1368     8.6503     1.4513   218.8800     8.4314    -0.0089
  686   13.700   2645.21    10.2111     0.1341     0.0043     0.1370    10.2216     1.3376   219.2000    10.0024    -0.0111
  687   13.720   2646.25    11.1060     0.1522    -0.0528     0.1372    11.0922     1.3707   219.5200    10.8727    -0.0156
  688   13.740   2647.25    10.4074     0.1629    -0.0907     0.1374    10.3753     1.5372   219.8400    10.1555    -0.0211
  689   13.760   2648.23     9.2731     0.1748    -0.0932     0.1376     9.2337     1.8715   220.1600     9.0136    -0.0257
  690   13.780   2649.21     8.2622     0.1928    -0.0705     0.1378     8.2294     2.3033   220.4800     8.0089    -0.0270
  691   13.800   2650.22     7.8117     0.2055    -0.0618     0.1380     7.7852     2.6164   220.8000     7.5644    -0.0266
  692   13.820   2651.20     7.3826     0.1964    -0.0298     0.1382     7.3642     2.6555   221.1200     7.1431    -0.0255
  693   13.840   2652.21     7.3019     0.1973    -0.0315     0.1384     7.2918     2.6976   221.4400     7.0704    -0.0230
  694   13.860   2653.23     7.3288     0.2010    -0.0415     0.1386     7.3137     2.7368   221.7600     7.0919    -0.0246
  695   13.880   2654.23     7.2500     0.1996    -0.0761     0.1388     7.2231     2.7399   222.0800     7.0010    -0.0290
  696   13.900   2655.21     6.8324     0.2015    -0.0668     0.1390     6.8011     2.9265   222.4000     6.5787    -0.0325
  697   13.920   2656.22     6.1008     0.1995    -0.0649     0.1392     6.0764     3.2287   222.7200     5.8537    -0.0338
  698   13.940   2657.18     5.6425     0.1882    -0.0630     0.1394     5.6149     3.3243   223.0400     5.3919    -0.0381
  699   13.960   2658.17     5.5636     0.1570    -0.0580     0.1396     5.5369     2.8242   223.3600     5.3135    -0.0383
  700   13.980   2659.16     5.3984     0.1451     0.0055     0.1398     5.3907     2.6732   223.6800     5.1670    -0.0305
  701   14.000   2660.17     4.9813     0.1507     0.0917     0.1400     5.0009     2.9219   224.0000     4.7769    -0.0195
  702   14.020   2661.22     5.5138     0.1718     0.1636     0.1402     5.5766     3.1516   224.3200     5.3523     0.0017
  703   14.040   2662.21     6.7467     0.1859     0.1100     0.1404     6.8119     2.8000   224.6400     6.5872     0.0024
  704   14.060   2663.23     7.7439     0.1712    -0.0192     0.1406     7.7452     2.3272   224.9600     7.5203    -0.0182
  705   14.080   2664.21     7.9636     0.1739    -0.0218     0.1408     7.9513     2.1928   225.2800     7.7261    -0.0220
  706   14.100   2665.20     8.0786     0.1868     0.0429     0.1410     8.0841     2.3204   225.6000     7.8585    -0.0163
  707   14.120   2666.26     8.3496     0.2082     0.0875     0.1412     8.3835     2.5000   225.9200     8.1576    -0.0074
  708   14.140   2667.27     8.9849     0.2216     0.0610     0.1414     9.0205     2.5357   226.2400     8.7942    -0.0065
  709   14.160   2668.32     9.3266     0.2218    -0.0358     0.1416     9.3148     2.3831   226.5600     9.0882    -0.0187
  710   14.180   2669.31     9.2883     0.1992    -0.0199     0.1418     9.2752     2.1428   226.8800     9.0483    -0.0191
  711   14.200   2670.33     9.0809     0.1923     0.0249     0.1420     9.0853     2.1176   227.2000     8.8581    -0.0149
  712   14.220   2671.33     8.8856     0.1917     0.0304     0.1422     8.8997     2.1444   227.5200     8.6722    -0.0125
  713   14.240   2672.37     8.7457     0.1885     0.0666     0.1424     8.7680     2.1547   227.8400     8.5402    -0.0105
  714   14.260   2673.37     9.0736     0.1940     0.0070     0.1426     9.0912     2.1564   228.1600     8.8630    -0.0113
  715   14.280   2674.39     9.2734     0.2024    -0.0451     0.1428     9.2586     2.1710   228.4800     9.0302    -0.0197
  716   14.300   2675.39     8.5746     0.1983    -0.0516     0.1430     8.5527     2.2975   228.8000     8.3239    -0.0235
  717   14.320   2676.37     7.5479     0.1812    -0.0314     0.1432     7.5319     2.3687   229.1200     7.3028    -0.0248
  718   14.340   2677.35     6.3625     0.1768    -0.0224     0.1434     6.3514     2.7418   229.4400     6.1220    -0.0278
  719   14.360   2678.34     5.6673     0.1598     0.0276     0.1436     5.6696     2.7478   229.7600     5.4399    -0.0254
  720   14.380   2679.35     6.1498     0.1479     0.1150     0.1438     6.1838     2.4338   230.0800     5.9537    -0.0107
  721   14.400   2680.40     7.2541     0.1478     0.1134     0.1440     7.3108     2.0946   230.4000     7.0804    -0.0013
  722   14.420   2681.41     7.6950     0.1388    -0.0147     0.1442     7.7030     1.8034   230.7200     7.4723    -0.0167
  723   14.440   2682.38     7.4824     0.1460    -0.0421     0.1444     7.4642     1.9395   231.0400     7.2331    -0.0260
  724   14.460   2683.37     7.1153     0.1524    -0.0364     0.1446     7.0994     2.1311   231.3600     6.8680    -0.0266
  725   14.480   2684.37     6.7634     0.1611    -0.0146     0.1448     6.7535     2.3744   231.6800     6.5218    -0.0258
  726   14.500   2685.39     6.7178     0.1545     0.0088     0.1450     6.7183     2.2992   232.0000     6.4863    -0.0222
  727   14.520   2686.38     6.5946     0.1574     0.0047     0.1452     6.6009     2.3784   232.3200     6.3686    -0.0204
  728   14.540   2687.39     6.3895     0.1613    -0.0175     0.1454     6.3819     2.5198   232.6400     6.1493    -0.0266
  729   14.560   2688.38     5.9073     0.1582    -0.0027     0.1456     5.9036     2.6604   232.9600     5.6707    -0.0272
  730   14.580   2689.40     5.5381     0.1476     0.0125     0.1458     5.5405     2.6546   233.2800     5.3072    -0.0264
  731   14.600   2690.40     4.9901     0.1392     0.0250     0.1460     5.0008     2.7690   233.6000     4.7672    -0.0253
  732   14.620   2691.37     5.5944     0.1355     0.0376     0.1462     5.6049     2.4477   233.9200     5.3710    -0.0226
  733   14.640   2692.41     6.5076     0.1471     0.0886     0.1464     6.5502     2.3261   234.2400     6.3159    -0.0072
  734   14.660   2693.39     7.7152     0.1653    -0.0057     0.1466     7.7323     2.1612   234.5600     7.4978    -0.0141
  735   14.680   2694.42     7.4244     0.1727    -0.0634     0.1468     7.3997     2.3096   234.8800     7.1649    -0.0287
  736   14.700   2695.42     6.6040     0.1560    -0.0447     0.1470     6.5799     2.2265   235.2000     6.3447    -0.0322
  737   14.720   2696.40     6.0109     0.1396    -0.0183     0.1472     5.9991     2.2211   235.5200     5.7636    -0.0304
  738   14.740   2697.42     5.3001     0.1474     0.0252     0.1474     5.3005     2.6097   235.8400     5.0647    -0.0289
  739   14.760   2698.41     5.3457     0.1393     0.1286     0.1476     5.3849     2.7501   236.1600     5.1487    -0.0107
  740   14.780   2699.46     6.4753     0.1188     0.2923     0.1478     6.5733     2.0077   236.4800     6.3369     0.0134
  741   14.800   2700.48     9.0562     0.1015     0.1002     0.1480     9.1350     1.1725   236.8000     8.8982     0.0045
  742   14.820   2701.51    11.1300     0.0937     0.0007     0.1482    11.1385     0.8531   237.1200    10.9014    -0.0117
  743   14.840   2702.56    11.7318     0.0973     0.0304     0.1484    11.7366     0.8291   237.4400    11.4991    -0.0119
  744   14.860   2703.53    11.0684     0.1097     0.0264     0.1486    11.0885     0.9834   237.7600    10.8507    -0.0093
  745   14.880   2704.53    10.2381     0.1184    -0.0192     0.1488    10.2344     1.1501   238.0800     9.9963    -0.0158
  746   14.900   2705.52     9.8277     0.1212    -0.0131     0.1490     9.8184     1.2286   238.4000     9.5800    -0.0178
  747   14.920   2706.57     9.4030     0.1325     0.0048     0.1492     9.4037     1.4017   238.7200     9.1650    -0.0161
  748   14.940   2707.57     8.7899     0.1492     0.0072     0.1494     8.7932     1.6765   239.0400     8.5541    -0.0166
  749   14.960   2708.55     7.9477     0.1551    -0.0058     0.1496     7.9469     1.9266   239.3600     7.7075    -0.0197
  750   14.980   2709.58     7.2172     0.1513    -0.0059     0.1498     7.2136     2.0658   239.6800     6.9740    -0.0227
  751   15.000   2710.52     6.5023     0.1352     0.0200     0.1500     6.5042     2.0685   240.0000     6.2642    -0.0232
  752   15.020   2711.49     6.1442     0.1203     0.0965     0.1502     6.1695     1.9505   240.3200     5.9292    -0.0152
  753   15.040   2712.54     6.1236     0.1072     0.1548     0.1504     6.1842     1.7500   240.6400     5.9436    -0.0010
  754   15.060   2713.55     6.3116     0.0894     0.1450     0.1506     6.3736     1.4214   240.9600     6.1327    -0.0005
  755   15.080   2714.55     6.7396     0.0843     0.0644     0.1508     6.7779     1.2605   241.2800     6.5366    -0.0091
  756   15.100   2715.59     7.4696     0.0729     0.0246     0.1510     7.4813     0.9879   241.6000     7.2397    -0.0170
  757   15.120   2716.59     8.4068     0.0779     0.0155     0.1512     8.4147     0.9362   241.9200     8.1728    -0.0162
  758   15.140   2717.58     9.0220     0.0923     0.0115     0.1514     9.0296     1.0224   242.2400     8.7873    -0.0152
  759   15.160   2718.65     8.4217     0.1075     0.0022     0.1516     8.4247     1.2508   242.5600     8.1822    -0.0177
  760   15.180   2719.58     7.6444     0.1192     0.0086     0.1518     7.6486     1.5426   242.8800     7.4057    -0.0191
  761   15.200   2720.59     6.8921     0.1397     0.0210     0.1520     6.8990     2.0075   243.2000     6.6558    -0.0204
  762   15.220   2721.59     6.2481     0.1545     0.0996     0.1522     6.2742     2.4539   243.5200     6.0307    -0.0149
  763   15.240   2722.60     6.0579     0.1493     0.1143     0.1524     6.1073     2.4698   243.8400     5.8635    -0.0059
  764   15.260   2723.59     5.9986     0.1422     0.0861     0.1526     6.0394     2.3431   244.1600     5.7952    -0.0096
  765   15.280   2724.56     5.4504     0.1409     0.1092     0.1528     5.4842     2.5422   244.4800     5.2397    -0.0138
  766   15.300   2725.56     5.0194     0.1457     0.0859     0.1530     5.0644     2.8940   244.8000     4.8196    -0.0095
  767   15.320   2726.60     5.1742     0.1402    -0.0022     0.1532     5.1814     2.7202   245.1200     4.9363    -0.0276
  768   15.340   2727.57     5.0349     0.1223     0.0141     0.1534     5.0350     2.4022   245.4400     4.7896    -0.0320
  769   15.360   2728.56     4.6875     0.1194     0.0460     0.1536     4.6988     2.5129   245.7600     4.4531    -0.0284
  770   15.380   2729.54     4.1099     0.1228     0.0910     0.1538     4.1400     2.9243   246.0800     3.8939    -0.0210
  771   15.400   2730.54     3.5412     0.1277     0.1502     0.1540     3.5965     3.1851   246.4000     3.3501    -0.0067
  772   15.420   2731.51     3.5880     0.1327     0.1589     0.1542     3.6542     3.4182   246.7200     3.4075     0.0010
  773   15.440   2732.51     3.7661     0.1377     0.1955     0.1544     3.8446     3.6512   247.0400     3.5976     0.0090
  774   15.460   2733.52     3.8873     0.1252     0.1987     0.1546     3.9807     3.2333   247.3600     3.7333     0.0182
  775   15.480   2734.52     4.3955     0.1221     0.1457     0.1548     4.4673     2.8711   247.6800     4.2196     0.0039
  776   15.500   2740.73     4.8603     0.1265     0.1230     0.1550     4.9139     2.6536   248.0000     4.6659    -0.0057
  777   15.520   2752.22     5.0439     0.1410     0.1098     0.1552     5.0919     2.9563   248.3200     4.8436    -0.0082
  778   15.540   2763.71     5.2274     0.1433     0.0965     0.1554     5.2699     3.0047   248.6400     5.0212    -0.0107
  779   15.560   2770.42     5.1758     0.1324     0.1419     0.1556     5.2265     2.5467   248.9600     4.9776    -0.0070
  780   15.580   2771.42     5.0340     0.1317     0.2239     0.1558     5.1150     2.6155   249.2800     4.8657     0.0076
  781   15.600   2772.45     5.1171     0.1342     0.3086     0.1560     5.2375     2.6345   249.6000     4.9879     0.0262
  782   15.620   2773.43     5.5194     0.1453     0.3131     0.1562     5.6646     2.6487   249.9200     5.4147     0.0350
  783   15.640   2774.48     5.9471     0.1665     0.2188     0.1564     6.0359     2.8221   250.2400     5.7856     0.0095
  784   15.660   2775.46     6.1766     0.1714     0.0962     0.1566     6.2395     2.7937   250.5600     5.9889    -0.0011
  785   15.680   2776.45     6.3515     0.1448     0.0547     0.1568     6.3741     2.2815   250.8800     6.1232    -0.0168
  786   15.700   2777.46     6.1821     0.1350     0.0992     0.1570     6.2144     2.1771   251.2000     5.9632    -0.0134
  787   15.720   2778.46     5.9158     0.1490     0.1315     0.1572     5.9707     2.4907   251.5200     5.7192    -0.0046
  788   15.740   2779.43     6.1059     0.1637     0.2018     0.1574     6.1794     2.7186   251.8400     5.9276     0.0030
  789   15.760   2780.46     6.4500     0.1733     0.2663     0.1576     6.5710     2.6991   252.1600     6.3189     0.0206
  790   15.780   2781.44     6.2109     0.1709     0.0404     0.1578     6.2563     2.7209   252.4800     6.0038    -0.0083
  791   15.800   2782.44     5.6500     0.1647     0.0056     0.1580     5.6481     2.8429   252.8000     5.3953    -0.0301
  792   15.820   2783.39     5.3431     0.1707     0.0883     0.1582     5.3629     3.1700   253.1200     5.1098    -0.0217
  793   15.840   2784.39     5.0380     0.1775     0.2031     0.1584     5.1120     3.4843   253.4400     4.8586     0.0037
  794   15.860   2785.38     5.0161     0.1693     0.2897     0.1586     5.1225     3.3869   253.7600     4.8687     0.0194
  795   15.880   2786.37     4.7612     0.1572     0.2480     0.1588     4.8857     3.2809   254.0800     4.6316     0.0297
  796   15.900   2787.33     4.3047     0.1452     0.2202     0.1590     4.3958     3.3235   254.4000     4.1414     0.0140
  797   15.920   2788.34     4.0672     0.1377     0.3003     0.1592     4.1763     3.3541   254.7200     3.9216     0.0257
  798   15.940   2789.34     4.5198     0.1366     0.3543     0.1594     4.6688     3.0839   255.0400     4.4138     0.0442
  799   15.960   2790.36     5.8731     0.1294     0.2538     0.1596     5.9961     2.2437   255.3600     5.7407     0.0236
  800   15.980   2791.35     6.7311     0.1378     0.1541     0.1598     6.8251     2.0580   255.6800     6.5694     0.0098
  801   16.000   2792.35     6.9895     0.1388    -0.0024     0.1600     6.9971     1.9838   256.0000     6.7411    -0.0211
  802   16.020   2793.33     6.8910     0.1359     0.0148     0.1602     6.8919     1.9732   256.3200     6.6356    -0.0238
  803   16.040   2794.36     7.2298     0.1408     0.0553     0.1604     7.2497     1.9626   256.6400     6.9930    -0.0162
  804   16.060   2795.38     7.6151     0.1561     0.1001     0.1606     7.6471     2.0624   256.9600     7.3901    -0.0114
  805   16.080   2796.40     7.3727     0.1598     0.1043     0.1608     7.4267     2.1451   257.2800     7.1694    -0.0045
  806   16.100   2797.39     6.7945     0.1492     0.0310     0.1610     6.8158     2.1781   257.6000     6.5582    -0.0169
  807   16.120   2798.36     6.2883     0.1320     0.0212     0.1612     6.2948     2.0768   257.9200     6.0368    -0.0242
  808   16.140   2799.38     5.8540     0.1337     0.0710     0.1614     5.8749     2.2787   258.2400     5.6166    -0.0199
  809   16.160   2800.39     6.2524     0.1545     0.1473     0.1616     6.3022     2.4933   258.5600     6.0436    -0.0072
  810   16.180   2801.37     6.7765     0.1702     0.1170     0.1618     6.8445     2.5346   258.8800     6.5856     0.0000
  811   16.200   2802.40     6.9669     0.1639     0.0104     0.1620     6.9847     2.3531   259.2000     6.7255    -0.0178
  812   16.220   2803.39     6.6307     0.1551    -0.0344     0.1622     6.6172     2.3317   259.5200     6.3577    -0.0306
  813   16.240   2804.39     6.0935     0.1585    -0.0061     0.1624     6.0850     2.5794   259.8400     5.8252    -0.0313
  814   16.260   2805.40     5.9504     0.1554     0.0626     0.1626     5.9640     2.6153   260.1600     5.7038    -0.0228
  815   16.280   2806.37     6.5936     0.1469     0.1341     0.1628     6.6409     2.2690   260.4800     6.3805    -0.0079
  816   16.300   2807.41     7.8348     0.1443     0.1127     0.1630     7.8951     1.8725   260.8000     7.6343    -0.0025
  817   16.320   2808.42     9.2087     0.1703     0.0082     0.1632     9.2216     1.8749   261.1200     8.9605    -0.0147
  818   16.340   2809.41     9.6527     0.1904    -0.0187     0.1634     9.6471     1.9726   261.4400     9.3856    -0.0188
  819   16.360   2810.40     8.8954     0.1987    -0.0290     0.1636     8.8837     2.2222   261.7600     8.6220    -0.0222
  820   16.380   2811.40     8.0891     0.1943    -0.0014     0.1638     8.0812     2.3274   262.0800     7.8191    -0.0234
  821   16.400   2812.42     7.2004     0.1985     0.0985     0.1640     7.2269     2.6087   262.4000     6.9645    -0.0144
  822   16.420   2813.42     6.8443     0.2079     0.1473     0.1642     6.9028     2.9739   262.7200     6.6401    -0.0037
  823   16.440   2814.43     6.8792     0.2095     0.2424     0.1644     6.9679     3.0805   263.0400     6.7048     0.0069
  824   16.460   2815.40     8.0867     0.1893     0.2076     0.1646     8.1849     2.5151   263.3600     7.9216     0.0088
  825   16.480   2816.46     8.9078     0.1681     0.1867     0.1648     8.9967     1.9593   263.6800     8.7330     0.0053
  826   16.500   2817.48    10.8586     0.1542     0.0461     0.1650    10.8983     1.5424   264.0000    10.6343    -0.0066
  827   16.520   2818.53    12.5288     0.1524     0.0306     0.1652    12.5412     1.2843   264.3200    12.2768    -0.0111
  828   16.540   2819.57    13.1004     0.1511     0.0405     0.1654    13.1155     1.1576   264.6400    12.8509    -0.0101
  829   16.560   2820.58    12.7934     0.1643    -0.0057     0.1656    12.7997     1.2710   264.9600    12.5348    -0.0120
  830   16.580   2821.64    12.6618     0.1749    -0.0190     0.1658    12.6545     1.3790   265.2800    12.3892    -0.0148
  831   16.600   2822.63    12.5046     0.1753     0.0019     0.1660    12.5007     1.3934   265.6000    12.2351    -0.0143
  832   16.620   2823.71    12.7495     0.1775     0.0366     0.1662    12.7597     1.4057   265.9200    12.4938    -0.0114
  833   16.640   2824.74    12.7056     0.1780     0.0557     0.1664    12.7262     1.4003   266.2400    12.4600    -0.0094
  834   16.660   2825.76    12.0314     0.1756     0.0538     0.1666    12.0576     1.4558   266.5600    11.7911    -0.0088
  835   16.680   2826.77    11.3429     0.1777    -0.0154     0.1668    11.3478     1.5515   266.8800    11.0809    -0.0140
  836   16.700   2827.80    10.5169     0.1698    -0.0473     0.1670    10.4991     1.6037   267.2000    10.2319    -0.0205
  837   16.720   2828.83     9.7607     0.1804    -0.0208     0.1672     9.7464     1.8308   267.5200     9.4789    -0.0212
  838   16.740   2829.84     8.9452     0.2100     0.0095     0.1674     8.9480     2.3169   267.8400     8.6801    -0.0185
  839   16.760   2830.79     8.1662     0.2292     0.0093     0.1676     8.1682     2.7868   268.1600     7.9001    -0.0206
  840   16.780   2831.79     7.3014     0.2141     0.0318     0.1678     7.3131     2.8489   268.4800     7.0447    -0.0198
  841   16.800   2832.77     6.5353     0.1924     0.0601     0.1680     6.5538     2.9234   268.8000     6.2850    -0.0197
  842   16.820   2833.79     5.7805     0.1814     0.1634     0.1682     5.8330     3.1251   269.1200     5.5639    -0.0077
  843   16.840   2834.80     5.3814     0.1665     0.2809     0.1684     5.4806     3.0721   269.4400     5.2112     0.0129
  844   16.860   2835.82     6.1325     0.1516     0.4893     0.1686     6.3110     2.6709   269.7600     6.0412     0.0420
  845   16.880   2836.81     7.7221     0.1385     0.3345     0.1688     7.9029     2.0313   270.0800     7.6329     0.0348
  846   16.900   2837.85     8.8317     0.1264     0.0866     0.1690     8.8950     1.4992   270.4000     8.6246    -0.0020
  847   16.920   2838.86     9.7268     0.1267     0.0159     0.1692     9.7369     1.3577   270.7200     9.4662    -0.0153
  848   16.940   2839.88    10.3884     0.1226     0.0472     0.1694    10.4016     1.2188   271.0400    10.1305    -0.0137
  849   16.960   2840.90    11.1001     0.1259     0.0697     0.1696    11.1291     1.1711   271.3600    10.8578    -0.0093
  850   16.980   2841.94    11.8889     0.1449     0.0634     0.1698    11.9149     1.2557   271.6800    11.6433    -0.0093
  851   17.000   2843.00    12.5273     0.1799     0.0345     0.1700    12.5537     1.4652   272.0000    12.2817    -0.0087
  852   17.020   2843.97    12.6492     0.2183     0.0121     0.1702    12.6575     1.7137   272.3200    12.3852    -0.0122
  853   17.040   2845.02    12.2084     0.2302    -0.0081     0.1704    12.2064     1.8562   272.6400    11.9338    -0.0147
  854   17.060   2846.05    11.8298     0.2169    -0.0020     0.1706    11.8290     1.8135   272.9600    11.5560    -0.0149
  855   17.080   2847.03    11.5877     0.1799    -0.0166     0.1708    11.5847     1.5373   273.2800    11.3114    -0.0157
  856   17.100   2848.10    11.8754     0.1608     0.0185     0.1710    11.8757     1.3834   273.6000    11.6021    -0.0147
  857   17.120   2849.17    13.3710     0.1405    -0.0196     0.1712    13.3726     1.1182   273.9200    13.0987    -0.0127
  858   17.140   2850.23    15.0769     0.1434    -0.1164     0.1714    15.0370     0.9956   274.2400    14.7627    -0.0180
  859   17.160   2851.27    15.0079     0.1552    -0.1477     0.1716    14.9504     1.0246   274.5600    14.6759    -0.0210
  860   17.180   2852.27    12.3228     0.1548    -0.1713     0.1718    12.2531     1.2154   274.8800    11.9782    -0.0284
  861   17.200   2853.27     9.6724     0.1670    -0.1708     0.1720     9.6002     1.6818   275.2000     9.3250    -0.0370
  862   17.220   2854.28     7.9007     0.1781    -0.1676     0.1722     7.8296     2.1799   275.5200     7.5541    -0.0453
  863   17.240   2855.27     6.7655     0.1781    -0.1576     0.1724     6.6973     2.5848   275.8400     6.4215    -0.0522
  864   17.260   2856.28     6.0281     0.1716    -0.1316     0.1726     5.9683     2.8096   276.1600     5.6922    -0.0553
  865   17.280   2857.27     5.4610     0.1752    -0.1209     0.1728     5.4101     3.1823   276.4800     5.1336    -0.0573
  866   17.300   2858.24     5.2478     0.1768    -0.1087     0.1730     5.1999     3.3633   276.8000     4.9231    -0.0583
  867   17.320   2859.22     5.1011     0.1619    -0.1067     0.1732     5.0568     3.1683   277.1200     4.7797    -0.0583
  868   17.340   2860.26     5.1279     0.1324    -0.1278     0.1734     5.0766     2.6224   277.4400     4.7991    -0.0616
  869   17.360   2861.22     4.9555     0.1272    -0.1124     0.1736     4.9046     2.6134   277.7600     4.6268    -0.0637
  870   17.380   2862.25     4.6453     0.1220    -0.0868     0.1738     4.6051     2.6045   278.0800     4.3270    -0.0623
  871   17.400   2863.22     4.5055     0.1199    -0.0581     0.1740     4.4771     2.6493   278.4000     4.1987    -0.0575
  872   17.420   2864.22     4.7807     0.1246    -0.0474     0.1742     4.7615     2.6983   278.7200     4.4828    -0.0491
  873   17.440   2865.20     5.2190     0.1256    -0.0669     0.1744     5.1934     2.4342   279.0400     4.9144    -0.0479
  874   17.460   2875.15     5.5187     0.1179    -0.0467     0.1746     5.4962     2.2193   279.3600     5.2169    -0.0442
  875   17.480   2888.39     5.7987     0.1060    -0.0264     0.1748     5.7847     1.9951   279.6800     5.5050    -0.0383
  876   17.500   2900.58     6.0934     0.1024    -0.0064     0.1750     6.0878     1.8813   280.0000     5.8078    -0.0324
  877   17.520   2901.56     6.8959     0.1115     0.0505     0.1752     6.9064     1.6493   280.3200     6.6260    -0.0228
  878   17.540   2902.62     8.5838     0.1131     0.0701     0.1754     8.6161     1.3385   280.6400     8.3354    -0.0118
  879   17.560   2903.67     9.6302     0.1005    -0.0162     0.1756     9.6386     1.0454   280.9600     9.3577    -0.0166
  880   17.580   2904.69     9.1887     0.0987    -0.0359     0.1758     9.1733     1.0599   281.2800     8.8920    -0.0239
  881   17.600   2905.66     8.2569     0.1067    -0.0249     0.1760     8.2446     1.2775   281.6000     7.9630    -0.0258
  882   17.620   2906.64     7.8848     0.1281    -0.0021     0.1762     7.8797     1.6215   281.9200     7.5978    -0.0248
  883   17.640   2907.66     7.4995     0.1446     0.0158     0.1764     7.5047     1.9131   282.2400     7.2225    -0.0227
  884   17.660   2908.65     6.9455     0.1439     0.0313     0.1766     6.9563     2.0423   282.5600     6.6737    -0.0226
  885   17.680   2909.67     5.9528     0.1418     0.0139     0.1768     5.9587     2.3343   282.8800     5.6758    -0.0287
  886   17.700   2910.67     5.3341     0.1396     0.0569     0.1770     5.3492     2.6068   283.2000     5.0660    -0.0278
  887   17.720   2911.67     5.4286     0.1330     0.1148     0.1772     5.4700     2.4666   283.5200     5.1865    -0.0152
  888   17.740   2912.65     5.6871     0.1236     0.0923     0.1774     5.7339     2.2074   283.8400     5.4501    -0.0120
  889   17.760   2913.62     5.8979     0.1048     0.0412     0.1776     5.9218     1.7740   284.1600     5.6376    -0.0214
  890   17.780   2914.62     5.6925     0.0847     0.0149     0.1778     5.6984     1.4805   284.4800     5.4139    -0.0303
  891   17.800   2915.66     5.7872     0.0856     0.0480     0.1780     5.8033     1.4935   284.8000     5.5185    -0.0253
  892   17.820   2916.63     6.1501     0.0982     0.0493     0.1782     6.1707     1.6114   285.1200     5.8856    -0.0219
  893   17.840   2917.61     6.2697     0.1087     0.0779     0.1784     6.2965     1.7343   285.4400     6.0111    -0.0191
  894   17.860   2918.58     6.0895     0.1072     0.0305     0.1786     6.1089     1.7409   285.7600     5.8231    -0.0228
  895   17.880   2919.55     5.9464     0.1025     0.0213     0.1788     5.9536     1.7312   286.0800     5.6675    -0.0285
  896   17.900   2920.58     6.2168     0.1062     0.0454     0.1790     6.2329     1.7206   286.4000     5.9464    -0.0237
  897   17.920   2921.56     6.2187     0.1166     0.0723     0.1792     6.2456     1.8635   286.7200     5.9589    -0.0193
  898   17.940   2922.59     5.6692     0.1274     0.0458     0.1794     5.6962     2.2124   287.0400     5.4092    -0.0213
  899   17.960   2923.56     5.2509     0.1306     0.0130     0.1796     5.2560     2.4652   287.3600     4.9686    -0.0337
  900   17.980   2924.54     5.1158     0.1206     0.0540     0.1798     5.1303     2.3595   287.6800     4.8427    -0.0300
  901   18.000   2925.52     5.2734     0.1172     0.0978     0.1800     5.3102     2.2316   288.0000     5.0222    -0.0184
  902   18.020   2926.49     5.5854     0.1157     0.1132     0.1802     5.6311     2.0805   288.3200     5.3428    -0.0134
  903   18.040   2927.50     6.0148     0.1154     0.1123     0.1804     6.0660     1.9801   288.6400     5.7774    -0.0101
  904   18.060   2928.53     6.0878     0.1074     0.0446     0.1806     6.1172     1.7621   288.9600     5.8283    -0.0190
  905   18.080   2929.50     5.8591     0.1043     0.0098     0.1808     5.8632     1.7724   289.2800     5.5739    -0.0307
  906   18.100   2930.54     6.1813     0.0998     0.0343     0.1810     6.1914     1.6269   289.6000     5.9018    -0.0266
  907   18.120   2931.53     6.3488     0.1048     0.0926     0.1812     6.3749     1.6539   289.9200     6.0850    -0.0195
  908   18.140   2932.55     6.2861     0.1109     0.0796     0.1814     6.3317     1.7581   290.2400     6.0415    -0.0121
  909   18.160   2933.53     6.4720     0.1135     0.0256     0.1816     6.4829     1.7641   290.5600     6.1923    -0.0251
  910   18.180   2934.55     6.9036     0.1102     0.0669     0.1818     6.9240     1.6112   290.8800     6.6332    -0.0201
  911   18.200   2935.53     7.0301     0.1152     0.1388     0.1820     7.0777     1.6366   291.2000     6.7865    -0.0101
  912   18.220   2936.50     6.5410     0.1209     0.0395     0.1822     6.5790     1.8197   291.5200     6.2875    -0.0146
  913   18.240   2937.49     6.0101     0.1195     0.0128     0.1824     6.0154     1.9656   291.8400     5.7236    -0.0297
  914   18.260   2938.51     5.7862     0.1178     0.0427     0.1826     5.7974     2.0311   292.1600     5.5052    -0.0283
  915   18.280   2939.51     5.7468     0.1340     0.0863     0.1828     5.7760     2.3347   292.4800     5.4835    -0.0207
  916   18.300   2940.49     5.8352     0.1337     0.1190     0.1830     5.8847     2.2928   292.8000     5.5919    -0.0117
  917   18.320   2941.46     5.5372     0.1266     0.0782     0.1832     5.5727     2.2646   293.1200     5.2796    -0.0187
  918   18.340   2942.49     4.9357     0.1278     0.0822     0.1834     4.9660     2.5498   293.4400     4.6726    -0.0238
  919   18.360   2943.44     4.7490     0.1333     0.1567     0.1836     4.7949     2.7993   293.7600     4.5012    -0.0165
  920   18.380   2944.42     4.5242     0.1123     0.2158     0.1838     4.6218     2.4798   294.0800     4.3278     0.0112
  921   18.400   2945.45     4.8861     0.1061     0.1683     0.1840     4.9660     2.1813   294.4000     4.6716     0.0013
  922   18.420   2946.45     5.4807     0.0974     0.0835     0.1842     5.5243     1.8169   294.7200     5.2296    -0.0153
  923   18.440   2947.45     6.1924     0.1034     0.0744     0.1844     6.2193     1.6855   295.0400     5.9242    -0.0203
  924   18.460   2948.45     7.2636     0.1178     0.0954     0.1846     7.3000     1.6418   295.3600     7.0046    -0.0140
  925   18.480   2949.45     7.2640     0.1226     0.0181     0.1848     7.2795     1.6865   295.6800     6.9838    -0.0212
  926   18.500   2950.47     7.3378     0.1321     0.0403     0.1850     7.3481     1.8017   296.0000     7.0521    -0.0227
  927   18.520   2951.46     7.3547     0.1491     0.0830     0.1852     7.3835     2.0271   296.3200     7.0871    -0.0165
  928   18.540   2952.48     7.0233     0.1564     0.1119     0.1854     7.0665     2.2048   296.6400     6.7699    -0.0122
  929   18.560   2953.46     6.9276     0.1507     0.0893     0.1856     6.9694     2.1707   296.9600     6.6725    -0.0129
  930   18.580   2954.42     6.4163     0.1615     0.1053     0.1858     6.4523     2.5054   297.2800     6.1551    -0.0163
  931   18.600   2955.46     5.7760     0.1522     0.1267     0.1860     5.8278     2.5969   297.6000     5.5302    -0.0113
  932   18.620   2956.48     5.0488     0.1417     0.1444     0.1862     5.1105     2.7521   297.9200     4.8125    -0.0082
  933   18.640   2957.42     4.5179     0.1375     0.1123     0.1864     4.5730     3.0126   298.2400     4.2748    -0.0129
  934   18.660   2958.43     3.9660     0.1265     0.1278     0.1866     4.0046     3.1291   298.5600     3.7061    -0.0256
  935   18.680   2959.48     3.6905     0.1105     0.1923     0.1868     3.7638     2.9741   298.8800     3.4650    -0.0035
  936   18.700   2960.42     3.6813     0.0973     0.2109     0.1870     3.7705     2.6549   299.2000     3.4713     0.0073
  937   18.720   2961.44     3.7875     0.0887     0.3107     0.1872     3.8923     2.3586   299.5200     3.5928     0.0174
  938   18.740   2962.44     4.1025     0.0867     0.3040     0.1874     4.2426     2.1569   299.8400     3.9427     0.0371
  939   18.760   2963.42     4.6202     0.0884     0.1716     0.1876     4.7115     1.9417   300.1600     4.4114     0.0069
  940   18.780   2964.39     4.9521     0.0802     0.0916     0.1878     4.9970     1.6353   300.4800     4.6965    -0.0172
  941   18.800   2965.44     4.8334     0.0820     0.1155     0.1880     4.8736     1.6749   300.8000     4.5728    -0.0201
  942   18.820   2966.40     4.8474     0.0931     0.1608     0.1882     4.9124     1.9303   301.1200     4.6113    -0.0073
  943   18.840   2967.38     4.9969     0.1056     0.1648     0.1884     5.0657     2.1210   301.4400     4.7643    -0.0052
  944   18.860   2968.40     4.8632     0.1093     0.1551     0.1886     4.9356     2.2304   301.7600     4.6338    -0.0035
  945   18.880   2969.36     5.0431     0.1074     0.1294     0.1888     5.0960     2.1365   302.0800     4.7939    -0.0131
  946   18.900   2970.34     5.1136     0.1075     0.1907     0.1890     5.1808     2.1081   302.4000     4.8784    -0.0060
  947   18.920   2971.35     5.0419     0.1187     0.2043     0.1892     5.1290     2.3564   302.7200     4.8263     0.0038
  948   18.940   2972.38     4.5146     0.1253     0.2084     0.1894     4.6069     2.7586   303.0400     4.3039     0.0071
  949   18.960   2973.36     4.6601     0.1208     0.1722     0.1896     4.7365     2.6256   303.3600     4.4332    -0.0017
  950   18.980   2974.36     4.5689     0.1142     0.1799     0.1898     4.6438     2.4677   303.6800     4.3401    -0.0026
  951   19.000   2975.30     4.2433     0.1011     0.1826     0.1900     4.3148     2.3530   304.0000     4.0108    -0.0049
  952   19.020   2976.31     3.9308     0.0892     0.1686     0.1902     4.0052     2.2586   304.3200     3.7009    -0.0036
  953   19.040   2977.31     3.7398     0.0768     0.1758     0.1904     3.8145     2.0493   304.6400     3.5099    -0.0036
  954   19.060   2978.31     3.5161     0.0683     0.2688     0.1906     3.6075     1.9295   304.9600     3.3025     0.0084
  955   19.080   2979.30     3.6109     0.0674     0.4109     0.1908     3.7722     1.8835   305.2800     3.4669     0.0554
  956   19.100   2980.30     4.8463     0.0690     0.2831     0.1910     4.9940     1.4981   305.6000     4.6884     0.0350
  957   19.120   2981.30     6.3483     0.0675     0.1180     0.1912     6.4124     1.0960   305.9200     6.1065    -0.0061
  958   19.140   2982.33     6.8815     0.0751     0.0884     0.1914     6.9161     1.0935   306.2400     6.6099    -0.0165
  959   19.160   2983.32     6.5540     0.0815     0.1255     0.1916     6.6033     1.2225   306.5600     6.2967    -0.0118
  960   19.180   2984.29     6.1743     0.0847     0.1011     0.1918     6.2216     1.3570   306.8800     5.9147    -0.0134
  961   19.200   2985.28     5.5382     0.0838     0.1127     0.1920     5.5811     1.4689   307.2000     5.2739    -0.0170
  962   19.220   2986.26     5.0911     0.0905     0.1514     0.1922     5.1498     1.7532   307.5200     4.8423    -0.0108
  963   19.240   2987.27     4.8052     0.1009     0.1968     0.1924     4.8819     2.0611   307.8400     4.5741    -0.0021
  964   19.260   2988.25     4.5479     0.1008     0.1869     0.1926     4.6296     2.1978   308.1600     4.3214     0.0004
  965   19.280   2989.23     4.3134     0.0978     0.1722     0.1928     4.3870     2.2150   308.4800     4.0785    -0.0044
  966   19.300   2990.21     4.0517     0.0888     0.1861     0.1930     4.1273     2.1541   308.8000     3.8185    -0.0034
  967   19.320   2991.15     3.8187     0.0845     0.2437     0.1932     3.9125     2.1927   309.1200     3.6034     0.0084
  968   19.340   2992.14     3.4445     0.0775     0.3474     0.1934     3.5769     2.1801   309.4400     3.2675     0.0377
  969   19.360   2993.09     2.8850     0.0863     0.4701     0.1936     3.0635     2.7927   309.7600     2.7537     0.0844
  970   19.380   2994.12     2.5715     0.0961     0.6022     0.1938     2.8070     3.6061   310.0800     2.4969     0.1469
  971   19.400   2995.11     2.6273     0.0969     0.7210     0.1940     2.9170     3.7728   310.4000     2.6066     0.1902
  972   19.420   2996.07     2.9100     0.1017     0.6264     0.1942     3.2164     3.5897   310.7200     2.9056     0.1844
  973   19.440   2997.09     3.0467     0.1006     0.6061     0.1944     3.2936     3.3165   311.0400     2.9825     0.1319
  974   19.460   3002.42     3.2260     0.1007     0.6570     0.1946     3.5073     3.2703   311.3600     3.1960     0.1509
  975   19.480   3018.86     3.7668     0.0938     0.6199     0.1948     4.0325     3.0456   311.6800     3.7209     0.1213
  976   19.500   3030.31     4.8837     0.0869     0.5060     0.1950     5.1016     1.8571   312.0000     4.7896     0.0701
  977   19.520   3031.33     7.2242     0.0822     0.6172     0.1952     7.5041     1.1869   312.3200     7.1918     0.0653
  978   19.540   3032.43    10.0425     0.0837     0.1568     0.1954    10.1440     0.8540   312.6400     9.8314     0.0051
  979   19.560   3033.42    10.8655     0.0912     0.0873     0.1956    10.9065     0.8451   312.9600    10.5936    -0.0092
  980   19.580   3034.40    10.7834     0.1216     0.0936     0.1958    10.8213     1.1260   313.2800    10.5080    -0.0100
  981   19.600   3035.39     9.9509     0.1440     0.0983     0.1960     9.9910     1.4288   313.6000     9.6774    -0.0104
  982   19.620   3036.38     8.2493     0.1440     0.1137     0.1962     8.2951     1.6732   313.9200     7.9812    -0.0109
  983   19.640   3037.35     6.4302     0.1437     0.1473     0.1964     6.4847     2.1588   314.2400     6.1704    -0.0108
  984   19.660   3038.39     5.3338     0.1346     0.2450     0.1966     5.4250     2.4408   314.5600     5.1104     0.0042
  985   19.680   3039.35     4.7666     0.1220     0.3475     0.1968     4.8908     2.5032   314.8800     4.5759     0.0217
  986   19.700   3040.36     3.7831     0.1120     0.5791     0.1970     3.9781     2.8128   315.2000     3.6629     0.0737
  987   19.720   3041.32     3.1143     0.1039     0.9860     0.1972     3.4703     3.2457   315.5200     3.1548     0.2070
  988   19.740   3042.31     3.0523     0.0925     1.1548     0.1974     3.5358     3.0802   315.8400     3.2200     0.2963
  989   19.760   3043.28     3.4126     0.0834     1.2339     0.1976     3.9167     2.4963   316.1600     3.6005     0.2783
  990   19.780   3044.27     3.8853     0.0887     1.2395     0.1978     4.4027     2.3190   316.4800     4.0862     0.2533
  991   19.800   3045.29     4.6166     0.1015     1.1844     0.1980     5.1247     2.2437   316.8000     4.8079     0.2109
  992   19.820   3046.27     5.3491     0.1204     0.9151     0.1982     5.7803     2.2869   317.1200     5.4631     0.1523
  993   19.840   3047.25     6.1366     0.1627     0.6984     0.1984     6.4892     2.7116   317.4400     6.1718     0.1050
  994   19.860   3048.28     7.2884     0.2011     0.7535     0.1986     7.5814     2.8334   317.7600     7.2636     0.0683
  995   19.880   3049.27     8.3849     0.2163     0.3827     0.1988     8.6123     2.5873   318.0800     8.2943     0.0413
  996   19.900   3050.28     7.7982     0.2180     0.1470     0.1990     7.8742     2.7377   318.4000     7.5558    -0.0026
  997   19.920   3051.26     6.9556     0.2030     0.2141     0.1992     7.0311     2.8798   318.7200     6.7124    -0.0028
  998   19.940   3052.23     6.1900     0.1970     0.3509     0.1994     6.3184     3.1531   319.0400     5.9993     0.0178
  999   19.960   3053.24     5.5689     0.1955     0.4914     0.1996     5.7555     3.4797   319.3600     5.4361     0.0452
 1000   19.980   3054.26     5.0784     0.1877     0.5630     0.1998     5.3137     3.6632   319.6800     4.9940     0.0722
 1001   20.000   3055.21     4.7699     0.1662     0.6583     0.2000     5.0393     3.4750   320.0000     4.7193     0.0936
 1002   20.020   3056.21     4.6707     0.1531     0.6901     0.2002     4.9564     3.2901   320.3200     4.6361     0.1036
 1003   20.040   3057.21     4.8859     0.1489     1.0159     0.2004     5.2489     3.0390   320.6400     4.9283     0.1346
 1004   20.060   3058.24     4.9828     0.1460     1.1552     0.2006     5.4538     2.9474   320.9600     5.1328     0.1793
 1005   20.080   3059.19     5.2328     0.1454     1.2491     0.2008     5.7286     2.7858   321.2800     5.4073     0.1811
 1006   20.100   3060.18     5.2380     0.1482     1.5446     0.2010     5.8619     2.8363   321.6000     5.5403     0.2318
 1007   20.120   3061.25     5.1852     0.1461     1.5345     0.2012     5.8177     2.8038   321.9200     5.4958     0.2375
 1008   20.140   3062.23     5.0812     0.1430     1.6362     0.2014     5.7553     2.8208   322.2400     5.4330     0.2583
 1009   20.160   3063.24     5.2492     0.1317     1.5347     0.2016     5.9109     2.5196   322.5600     5.5884     0.2459
 1010   20.180   3064.21     5.1799     0.1262     1.5804     0.2018     5.8523     2.4350   322.8800     5.5294     0.2530
 1011   20.200   3065.19     5.0496     0.1205     1.4331     0.2020     5.6449     2.3599   323.2000     5.3217     0.2285
 1012   20.220   3066.21     5.0755     0.1325     1.5315     0.2022     5.6947     2.6366   323.5200     5.3712     0.2368
 1013   20.240   3067.21     5.3434     0.1611     1.4857     0.2024     5.9929     3.0431   323.8400     5.6690     0.2372
 1014   20.260   3068.25     5.8369     0.1583     1.1963     0.2026     6.4109     2.8015   324.1600     6.0867     0.1922
 1015   20.280   3069.22     6.3335     0.1578     0.7771     0.2028     6.7522     2.5524   324.4800     6.4277     0.1239
 1016   20.300   3070.19     5.7906     0.1605     0.5543     0.2030     6.0397     2.6600   324.8000     5.7149     0.0680
 1017   20.320   3071.16     4.9030     0.1630     0.9264     0.2032     5.2726     3.2928   325.1200     4.9475     0.1368
 1018   20.340   3072.14     4.5839     0.1530     0.9937     0.2034     4.9505     3.2621   325.4400     4.6251     0.1454
 1019   20.360   3073.15     4.1805     0.1328     0.9757     0.2036     4.6016     3.1711   325.7600     4.2758     0.1869
 1020   20.380   3074.10     4.2083     0.1029     1.0870     0.2038     4.6551     2.4583   326.0800     4.3290     0.1987
 1021   20.400   3075.11     4.2396     0.1067     1.1438     0.2040     4.7102     2.5125   326.4000     4.3838     0.2091
 1022   20.420   3076.10     4.2487     0.1102     1.1781     0.2042     4.7490     2.6079   326.7200     4.4223     0.2232
 1023   20.440   3077.14     4.3551     0.1140     1.3321     0.2044     4.9128     2.6673   327.0400     4.5858     0.2452
 1024   20.460   3078.11     4.9149     0.1287     1.2859     0.2046     5.4446     2.7649   327.3600     5.1172     0.2065
 1025   20.480   3079.11     5.8177     0.1382     1.3683     0.2048     6.4049     2.4340   327.6800     6.0772     0.1968
 1026   20.500   3080.15     7.6468     0.1605     1.4040     0.2050     8.2301     2.3808   328.0000     7.9021     0.1503
 1027   20.520   3081.20    10.5566     0.1972     0.4096     0.2052    10.8259     1.9335   328.3200    10.4976     0.0426
 1028   20.540   3082.21    11.6628     0.2050     0.2233     0.2054    11.7752     1.7459   328.6400    11.4466     0.0054
 1029   20.560   3083.18    10.3302     0.1913     0.1767     0.2056    10.4084     1.8086   328.9600    10.0795    -0.0020
 1030   20.580   3084.20     8.3058     0.1828     0.2190     0.2058     8.3879     2.1030   329.2800     8.0586    -0.0012
 1031   20.600   3085.22     6.3265     0.1757     0.4387     0.2060     6.4765     2.6599   329.6000     6.1469     0.0251
 1032   20.620   3086.22     4.8522     0.1576     0.7542     0.2062     5.1379     3.0933   329.9200     4.8080     0.0995
 1033   20.640   3087.20     3.9054     0.1382     1.0517     0.2064     4.3254     3.4590   330.2400     3.9951     0.1991
 1034   20.660   3088.19     3.6106     0.1085     1.0161     0.2066     4.0260     2.9572   330.5600     3.6954     0.2119
 1035   20.680   3089.16     3.3292     0.0806     1.1438     0.2068     3.7870     2.3743   330.8800     3.4561     0.2557
 1036   20.700   3090.12     3.1365     0.0698     1.2291     0.2070     3.6446     2.2027   331.2000     3.3134     0.3027
 1037   20.720   3091.14     3.0117     0.0663     1.2484     0.2072     3.5330     2.1779   331.5200     3.2015     0.3230
 1038   20.740   3092.10     2.8853     0.0593     1.2832     0.2074     3.4228     2.0327   331.8400     3.0910     0.3470
 1039   20.760   3093.09     2.7836     0.0530     1.3011     0.2076     3.3336     1.8872   332.1600     3.0014     0.3671
 1040   20.780   3094.06     2.7114     0.0475     1.3288     0.2078     3.2697     1.7395   332.4800     2.9372     0.3818
 1041   20.800   3095.06     2.6659     0.0438     1.3365     0.2080     3.2246     1.6341   332.8000     2.8918     0.3881
 1042   20.820   3096.06     2.5809     0.0479     1.3387     0.2082     3.1471     1.8490   333.1200     2.8140     0.4051
 1043   20.840   3096.99     2.5795     0.0502     1.2801     0.2084     3.1285     1.9465   333.4400     2.7951     0.3931
 1044   20.860   3097.97     2.5578     0.0489     1.2095     0.2086     3.0760     1.9077   333.7600     2.7422     0.3739
 1045   20.880   3098.91     2.4909     0.0477     1.1749     0.2088     2.9922     1.8995   334.0800     2.6581     0.3705
 1046   20.900   3099.94     2.4567     0.0459     1.0179     0.2090     2.9088     1.8635   334.4000     2.5744     0.3369
 1047   20.920   3100.94     2.3468     0.0447     0.9878     0.2092     2.7581     1.8604   334.7200     2.4234     0.3178
 1048   20.940   3101.91     2.1910     0.0425     1.0097     0.2094     2.6019     1.9100   335.0400     2.2668     0.3392
 1049   20.960   3102.89     2.0801     0.0395     1.0814     0.2096     2.5279     1.8794   335.3600     2.1926     0.3908
 1050   20.980   3103.87     2.0076     0.0350     1.1101     0.2098     2.4707     1.7271   335.6800     2.1350     0.4182
 1051   21.000   3104.80     1.9435     0.0317     1.1334     0.2100     2.4155     1.6205   336.0000     2.0795     0.4395
 1052   21.020   3105.76     1.8981     0.0307     1.1503     0.2102     2.3792     1.6137   336.3200     2.0429     0.4578
 1053   21.040   3106.77     1.8820     0.0299     1.1749     0.2104     2.3726     1.5895   336.6400     2.0359     0.4704
 1054   21.060   3107.77     1.8811     0.0291     1.1724     0.2106     2.3758     1.5504   336.9600     2.0388     0.4744
 1055   21.080   3108.76     1.8755     0.0278     1.1625     0.2108     2.3648     1.4809   337.2800     2.0275     0.4706
 1056   21.100   3109.70     1.8572     0.0278     1.1781     0.2110     2.3475     1.4918   337.6000     2.0099     0.4759
 1057   21.120   3110.73     1.8201     0.0289     1.2112     0.2112     2.3251     1.5816   337.9200     1.9872     0.4988
 1058   21.140   3111.68     1.8110     0.0298     1.2229     0.2114     2.3234     1.6505   338.2400     1.9851     0.5081
 1059   21.160   3112.67     1.8237     0.0308     1.2228     0.2116     2.3361     1.6853   338.5600     1.9975     0.5047
 1060   21.180   3113.65     1.8202     0.0299     1.2110     0.2118     2.3311     1.6399   338.8800     1.9922     0.5043
 1061   21.200   3114.63     1.8094     0.0291     1.2102     0.2120     2.3197     1.6088   339.2000     1.9805     0.5064
 1062   21.220   3115.63     1.8007     0.0296     1.2125     0.2122     2.3079     1.6398   339.5200     1.9684     0.5057
 1063   21.240   3116.63     1.7921     0.0285     1.2293     0.2124     2.3088     1.5875   339.8400     1.9690     0.5170
 1064   21.260   3117.61     1.8088     0.0290     1.2349     0.2126     2.3273     1.6090   340.1600     1.9871     0.5143
 1065   21.280   3118.57     1.8157     0.0283     1.2381     0.2128     2.3338     1.5570   340.4800     1.9933     0.5120
 1066   21.300   3119.54     1.7727     0.0265     1.2492     0.2130     2.2955     1.4874   340.8000     1.9547     0.5279
 1067   21.320   3120.49     1.7379     0.0257     1.2523     0.2132     2.2659     1.4689   341.1200     1.9248     0.5424
 1068   21.340   3121.49     1.7412     0.0250     1.2624     0.2134     2.2690     1.4368   341.4400     1.9276     0.5413
 1069   21.360   3122.49     1.7545     0.0236     1.2684     0.2136     2.2865     1.3562   341.7600     1.9448     0.5415
 1070   21.380   3123.40     1.7418     0.0222     1.2746     0.2138     2.2755     1.2755   342.0800     1.9334     0.5467
 1071   21.400   3124.42     1.7236     0.0229     1.2715     0.2140     2.2583     1.3306   342.4000     1.9159     0.5528
 1072   21.420   3125.40     1.7145     0.0236     1.2779     0.2142     2.2492     1.3769   342.7200     1.9065     0.5555
 1073   21.440   3126.37     1.7010     0.0243     1.2722     0.2144     2.2390     1.4263   343.0400     1.8960     0.5626
 1074   21.460   3137.68     1.7053     0.0241     1.2362     0.2146     2.2297     1.4149   343.3600     1.8864     0.5481
 1075   21.480   3150.39     1.7116     0.0234     1.2002     0.2148     2.2209     1.3773   343.6800     1.8772     0.5315
 1076   21.500   3157.45     1.6952     0.0235     1.1984     0.2150     2.1970     1.3808   344.0000     1.8530     0.5287
 1077   21.520   3158.44     1.6594     0.0233     1.2015     0.2152     2.1617     1.4013   344.3200     1.8174     0.5397
 1078   21.540   3159.41     1.6237     0.0230     1.2043     0.2154     2.1291     1.4136   344.6400     1.7844     0.5537
 1079   21.560   3160.37     1.6103     0.0223     1.2029     0.2156     2.1172     1.3833   344.9600     1.7723     0.5594
 1080   21.580   3161.35     1.6052     0.0217     1.1773     0.2158     2.1042     1.3532   345.2800     1.7589     0.5527
 1081   21.600   3162.37     1.6040     0.0218     1.1578     0.2160     2.0925     1.3578   345.6000     1.7469     0.5421
 1082   21.620   3163.37     1.6313     0.0218     1.1361     0.2162     2.1126     1.3432   345.9200     1.7667     0.5264
 1083   21.640   3164.34     1.6772     0.0205     1.0996     0.2164     2.1427     1.2290   346.2400     1.7964     0.4965
 1084   21.660   3165.28     1.6880     0.0201     1.0697     0.2166     2.1424     1.1918   346.5600     1.7958     0.4819
 1085   21.680   3166.25     1.6599     0.0198     1.0531     0.2168     2.1036     1.1889   346.8800     1.7567     0.4779
 1086   21.700   3167.28     1.5999     0.0178     1.0616     0.2170     2.0451     1.0990   347.2000     1.6979     0.4967
 1087   21.720   3168.24     1.5843     0.0181     1.0603     0.2172     2.0290     1.1483   347.5200     1.6815     0.5005
 1088   21.740   3169.22     1.6259     0.0160     1.0493     0.2174     2.0678     0.9846   347.8400     1.7199     0.4853
 1089   21.760   3170.20     1.6062     0.0174     1.0258     0.2176     2.0404     1.0797   348.1600     1.6923     0.4824
 1090   21.780   3171.16     1.5705     0.0177     1.0499     0.2178     2.0045     1.1228   348.4800     1.6561     0.4925
 1091   21.800   3172.12     1.5718     0.0199     1.0801     0.2180     2.0209     1.2671   348.8000     1.6721     0.5090
 1092   21.820   3173.12     1.6178     0.0214     1.0351     0.2182     2.0574     1.3375   349.1200     1.7083     0.4851
 1093   21.840   3174.11     1.7226     0.0186     1.0099     0.2184     2.1497     1.1011   349.4400     1.8002     0.4436
 1094   21.860   3175.10     1.8283     0.0188     0.9415     0.2186     2.2305     1.0401   349.7600     1.8807     0.3930
 1095   21.880   3176.07     1.8459     0.0187     0.9486     0.2188     2.2354     1.0039   350.0800     1.8853     0.3760
 1096   21.900   3177.03     1.6762     0.0190     0.9925     0.2190     2.0853     1.1032   350.4000     1.7349     0.4354
 1097   21.920   3178.04     1.5824     0.0206     1.0766     0.2192     2.0202     1.2939   350.7200     1.6694     0.4931
 1098   21.940   3178.97     1.6136     0.0225     1.1143     0.2194     2.0797     1.4046   351.0400     1.7286     0.5151
 1099   21.960   3179.97     1.7472     0.0276     1.1477     0.2196     2.2197     1.5990   351.3600     1.8683     0.4846
 1100   21.980   3180.99     2.1245     0.0335     1.1511     0.2198     2.6160     1.6700   351.6800     2.2643     0.4199
 1101   22.000   3181.92     2.6106     0.0349     1.0215     0.2200     3.0746     1.3771   352.0000     2.7226     0.3255
 1102   22.020   3182.92     2.8214     0.0375     0.8751     0.2202     3.2084     1.3260   352.3200     2.8561     0.2455
 1103   22.040   3183.94     2.7394     0.0352     0.7508     0.2204     3.0566     1.2736   352.6400     2.7040     0.1977
 1104   22.060   3184.92     2.4739     0.0343     0.7424     0.2206     2.7917     1.3638   352.9600     2.4388     0.2200
 1105   22.080   3185.89     2.2075     0.0305     0.7292     0.2208     2.5108     1.3450   353.2800     2.1575     0.2325
 1106   22.100   3186.89     1.9943     0.0257     0.7700     0.2210     2.3081     1.2732   353.6000     1.9545     0.2693
 1107   22.120   3187.85     1.8129     0.0225     0.8504     0.2212     2.1579     1.2174   353.9200     1.8040     0.3330
 1108   22.140   3188.89     1.6741     0.0212     0.9033     0.2214     2.0481     1.2508   354.2400     1.6939     0.3951
 1109   22.160   3189.86     1.5805     0.0198     0.9348     0.2216     1.9678     1.2345   354.5600     1.6133     0.4344
 1110   22.180   3190.84     1.5072     0.0176     0.9738     0.2218     1.9119     1.1546   354.8800     1.5570     0.4764
 1111   22.200   3191.84     1.4612     0.0170     1.0036     0.2220     1.8783     1.1518   355.2000     1.5231     0.5063
 1112   22.220   3192.78     1.4125     0.0168     1.0347     0.2222     1.8420     1.1877   355.5200     1.4865     0.5385
 1113   22.240   3193.79     1.3945     0.0166     1.0635     0.2224     1.8376     1.1838   355.8400     1.4818     0.5619
 1114   22.260   3194.76     1.4085     0.0172     1.0899     0.2226     1.8623     1.2245   356.1600     1.5061     0.5695
 1115   22.280   3195.74     1.4639     0.0186     1.0813     0.2228     1.9210     1.2858   356.4800     1.5645     0.5534
 1116   22.300   3196.74     1.5302     0.0216     1.0622     0.2230     1.9802     1.4208   356.8000     1.6234     0.5227
 1117   22.320   3197.71     1.5835     0.0246     1.0586     0.2232     2.0277     1.5596   357.1200     1.6706     0.4995
 1118   22.340   3198.69     1.6964     0.0271     1.0801     0.2234     2.1491     1.6211   357.4400     1.7916     0.4771
 1119   22.360   3199.68     1.8120     0.0275     1.0601     0.2236     2.2613     1.5307   357.7600     1.9036     0.4446
 1120   22.380   3200.66     1.9153     0.0264     1.0785     0.2238     2.3652     1.3875   358.0800     2.0072     0.4222
 1121   22.400   3201.66     1.9617     0.0280     1.0946     0.2240     2.4159     1.4367   358.4000     2.0575     0.4167
 1122   22.420   3202.64     2.0568     0.0381     1.1282     0.2242     2.5257     1.8743   358.7200     2.1669     0.4118
 1123   22.440   3203.64     2.2803     0.0523     1.1832     0.2244     2.7692     2.3580   359.0400     2.4102     0.3901
 1124   22.460   3204.62     2.6253     0.0489     1.1066     0.2246     3.1096     1.9096   359.3600     2.7503     0.3381
 1125   22.480   3205.56     2.9013     0.0533     0.8965     0.2248     3.3106     1.8540   359.6800     2.9510     0.2540
 1126   22.500   3206.56     2.8474     0.0570     0.8163     0.2250     3.1818     1.9807   360.0000     2.8218     0.2026
 1127   22.520   3207.57     2.4621     0.0583     0.9584     0.2252     2.8479     2.3091   360.3200     2.4876     0.2790
 1128   22.540   3208.56     2.2163     0.0557     1.1397     0.2254     2.6704     2.4679   360.6400     2.3098     0.3707
 1129   22.560   3209.56     2.0709     0.0458     1.2472     0.2256     2.5910     2.1928   360.9600     2.2300     0.4541
 1130   22.580   3210.53     2.0446     0.0364     1.2666     0.2258     2.5686     1.7754   361.2800     2.2073     0.4629
 1131   22.600   3211.51     2.0187     0.0353     1.2829     0.2260     2.5562     1.7456   361.6000     2.1946     0.4801
 1132   22.620   3212.52     1.9974     0.0366     1.2612     0.2262     2.5255     1.8303   361.9200     2.1636     0.4767
 1133   22.640   3213.49     2.0154     0.0421     1.2471     0.2264     2.5394     2.1019   362.2400     2.1771     0.4690
 1134   22.660   3214.47     2.1446     0.0496     1.1509     0.2266     2.6499     2.3397   362.5600     2.2873     0.4270
 1135   22.680   3215.47     2.3891     0.0570     1.0049     0.2268     2.8314     2.4264   362.8800     2.4685     0.3348
 1136   22.700   3216.44     2.6432     0.0650     0.8500     0.2270     3.0403     2.5095   363.2000     2.6771     0.2685
 1137   22.720   3217.42     2.8906     0.0724     0.6210     0.2272     3.1678     2.5464   363.5200     2.8043     0.1545
 1138   22.740   3218.45     3.0238     0.0764     0.5956     0.2274     3.2785     2.5562   363.8400     2.9147     0.1301
 1139   22.760   3219.43     3.2392     0.0739     0.5498     0.2276     3.4756     2.3095   364.1600     3.1115     0.1078
 1140   22.780   3220.40     3.3126     0.0764     0.4890     0.2278     3.5269     2.3122   364.4800     3.1624     0.0893
 1141   22.800   3221.38     3.2097     0.0776     0.4469     0.2280     3.3955     2.3939   364.8000     3.0307     0.0706
 1142   22.820   3222.36     2.9277     0.0773     0.5057     0.2282     3.1344     2.6021   365.1200     2.7693     0.0956
 1143   22.840   3223.34     2.5352     0.0694     0.5680     0.2284     2.7570     2.6666   365.4400     2.3915     0.1258
 1144   22.860   3224.32     2.1216     0.0682     0.7261     0.2286     2.4065     3.1351   365.7600     2.0407     0.2212
 1145   22.880   3225.31     1.9598     0.0710     0.8350     0.2288     2.2953     3.6119   366.0800     1.9293     0.2955
 1146   22.900   3226.29     1.9894     0.0705     0.9500     0.2290     2.3688     3.5501   366.4000     2.0024     0.3366
 1147   22.920   3227.31     2.0843     0.0697     1.0622     0.2292     2.5221     3.3755   366.7200     2.1554     0.3772
 1148   22.940   3228.26     2.3733     0.0835     0.9216     0.2294     2.7953     3.5772   367.0400     2.4283     0.3203
 1149   22.960   3229.27     2.6123     0.1087     0.7305     0.2296     2.9335     4.1846   367.3600     2.5661     0.2086
 1150   22.980   3230.31     3.0761     0.1332     0.6895     0.2298     3.3751     4.4252   367.6800     3.0074     0.1609
 1151   23.000   3231.29     3.7776     0.1423     0.5295     0.2300     4.0303     3.8656   368.0000     3.6623     0.1020
 1152   23.020   3232.27     3.9788     0.1438     0.3789     0.2302     4.1560     3.6013   368.3200     3.7877     0.0506
 1153   23.040   3233.27     3.8200     0.1461     0.1821     0.2304     3.9179     3.7932   368.6400     3.5493     0.0005
 1154   23.060   3234.26     3.5438     0.1373     0.1796     0.2306     3.6093     3.7921   368.9600     3.2403    -0.0229
 1155   23.080   3235.28     3.2268     0.1309     0.2801     0.2308     3.3296     4.0521   369.2800     2.9603     0.0047
 1156   23.100   3236.28     3.3226     0.1320     0.3406     0.2310     3.4655     3.9934   369.6000     3.0959     0.0351
 1157   23.120   3237.27     3.2003     0.1413     0.3503     0.2312     3.3258     4.3658   369.9200     2.9559     0.0233
 1158   23.140   3238.30     2.9639     0.1671     0.7398     0.2314     3.2192     5.6392   370.2400     2.8490     0.1308
 1159   23.160   3239.31     3.5507     0.1930     0.7222     0.2316     3.8650     5.4711   370.5600     3.4944     0.1479
 1160   23.180   3240.30     4.1686     0.1954     0.7943     0.2318     4.4840     5.0449   370.8800     4.1131     0.1257
 1161   23.200   3241.30     4.8401     0.1943     0.5456     0.2320     5.1174     4.2054   371.2000     4.7462     0.0902
 1162   23.220   3242.34     5.1397     0.1891     0.3578     0.2322     5.2975     3.8641   371.5200     4.9260     0.0294
 1163   23.240   3243.32     5.3551     0.1796     0.2102     0.2324     5.4642     3.3660   371.8400     5.0923     0.0053
 1164   23.260   3244.33     5.2171     0.1652     0.3026     0.2326     5.3121     2.8628   372.1600     4.9399    -0.0013
 1165   23.280   3245.34     6.2062     0.1503     0.5139     0.2328     6.4074     2.2584   372.4800     6.0349     0.0404
 1166   23.300   3246.38     9.0280     0.1347     0.3319     0.2330     9.2138     1.5768   372.8000     8.8410     0.0242
 1167   23.320   3247.49    13.0674                0.0482     0.2332    13.1167              373.1200    12.7436    -0.0091
 1168   23.340   3248.61    17.6207               -0.0275     0.2334    17.6213              373.4400    17.2479    -0.0134
 1169   23.360   3250.09    25.3573               -0.0437     0.2336    25.3390              373.7600    24.9653    -0.0116
 1170   23.380   3252.41    34.6443               -0.0445     0.2338    34.6257              374.0800    34.2516    -0.0091
 1171   23.400   3254.74    43.9312               -0.0544     0.2340    43.9123              374.4000    43.5379    -0.0066
 1172   23.420   3255.97    51.9385                           0.2342    51.9099              374.7200    51.5352    -0.0059
 
 
