

 Program UNIPLOT                         version 05.36.02
 _______________
 (c) Fugro Netherlands Marine, Nootdorp, The Netherlands


 ASCII representation of data plotted on a graph.

 This ASCII file presents data interpolated to values per fixed depth interval.
 The data are corrected for the depth-offset differences between the various 
 transducers in the penetrometer.

 The records at the start of penetration may include no values or anomalous
 values where a depth offset implies incomplete penetration of a particular
 sensor into the ground.

 The records at the end of penetration may include no values for data channels
 where the transducer did not reach this depth.

 The reference level for test values is (1) the ground surface for onshore tests and (2) the seafloor for nearshore and offshore tests.

 UNICAS data file          : CPT-1022.000                            
 Output using command file : PlotASCII.cmd

 ASCII file created at : date          :21-Apr-2022
                         time          :15:40:02
 Project number                        :20024805                                                                                            
 Date of testing                       :13-Apr-2022                                                                                         
 Location                              :Hong Kong Offshore Wind Farm Project                                                                
 Test name                             :CPT-1022
 Penetrometer                          :F7.5CKE2HAW2/B/3342
 Serial no                             :1701-3342

 Table description:
 Column ID                             :Parameter name
 ___________________________________________________________________________________
 Rec                                   :Record ID, Record ID [-]
 Depth                                 :Depth, Depth [m]
 Time                                  :Time, Time [s]
 Cone                                  :Cone Resistance, Cone Resistance [MPa]
 Friction                              :Sleeve Friction, Sleeve Friction [MPa]
 Pore 2                                :Porewater Pressure, Porewater Pressure at Shoulder [MPa]
 HydroPress                            :Hydrostatic Pressure, Hydrostatic Pressure [MPa]
 qt                                    :Total Cone Resistance, Total Cone Resistance [MPa]
 Fric_ratio                            :Friction Ratio, Friction Ratio [%]
 SigmaVert                             :Vertical stress, Vertical stress [kPa] as specified in ground model
 Qnet                                  :Net Cone Resistance, Net Cone Resistance [MPa], unit weight as specified in ground model
 Bq                                    :Porewater Pressure Ratio, Porewater Pressure Ratio [-], unit weight as specified in ground model


 Data table:
  Rec    Depth      Time       Cone   Friction     Pore 2 HydroPress         qt Fric_ratio  SigmaVert       Qnet         Bq
   No        m         s        MPa        MPa        MPa        MPa        MPa          %        kPa        MPa          -
    1    0.000   1413.56     0.0000                           0.0000     0.0000                0.0000     0.0000           
    2    0.020   1414.47     0.0029                0.0001     0.0002     0.0030                0.3200     0.0027           
    3    0.040   1415.46     0.0017                0.0002     0.0004     0.0018                0.6400     0.0011    -0.3144
    4    0.060   1416.44     0.0044     0.0004     0.0003     0.0006     0.0046     7.3804     0.9600     0.0036    -0.0735
    5    0.080   1417.44     0.0024     0.0004     0.0006     0.0008     0.0026    17.2246     1.2800     0.0013    -0.2486
    6    0.100   1418.41     0.0057     0.0005     0.0009     0.0010     0.0060    10.5888     1.6000     0.0044    -0.0849
    7    0.120   1419.42     0.0089     0.0005     0.0016     0.0012     0.0095     8.5840     1.9200     0.0076     0.0484
    8    0.140   1420.39     0.0108     0.0004     0.0014     0.0014     0.0115     3.7296     2.2400     0.0093     0.0261
    9    0.160   1421.35     0.0098     0.0006     0.0008     0.0016     0.0103     5.9213     2.5600     0.0077    -0.0702
   10    0.180   1422.34     0.0110     0.0004     0.0008     0.0018     0.0113     3.5195     2.8800     0.0084    -0.1437
   11    0.200   1423.32     0.0119     0.0011     0.0008     0.0020     0.0122     9.4139     3.2000     0.0090    -0.1208
   12    0.220   1424.32     0.0127     0.0011     0.0004     0.0022     0.0130     8.3033     3.5200     0.0095    -0.1729
   13    0.240   1425.32     0.0133     0.0012    -0.0002     0.0024     0.0133    11.7726     3.8400     0.0094    -0.2995
   14    0.260   1426.33     0.0161     0.0012     0.0010     0.0026     0.0163     7.5951     4.1600     0.0122    -0.1766
   15    0.280   1427.33     0.0147     0.0014    -0.0009     0.0028     0.0145    13.0937     4.4800     0.0100    -0.3729
   16    0.300   1428.33     0.0166     0.0017    -0.0011     0.0030     0.0161     8.7895     4.8000     0.0113    -0.4081
   17    0.320   1429.33     0.0152     0.0013     0.0014     0.0032     0.0154     7.6380     5.1200     0.0103    -0.2654
   18    0.340   1430.29     0.0145     0.0013     0.0029     0.0034     0.0157     8.5654     5.4400     0.0103    -0.0429
   19    0.360   1431.26     0.0152     0.0014     0.0033     0.0036     0.0167     8.5196     5.7600     0.0109    -0.0160
   20    0.380   1432.24     0.0123     0.0015     0.0035     0.0038     0.0140    12.5439     6.0800     0.0080     0.0460
   21    0.400   1433.25     0.0091     0.0012     0.0040     0.0040     0.0109    13.0689     6.4000     0.0045     0.0438
   22    0.420   1434.20     0.0100     0.0014     0.0044     0.0042     0.0119    16.4372     6.7200     0.0052     0.0515
   23    0.440   1435.20     0.0127     0.0017     0.0042     0.0044     0.0145    12.0211     7.0400     0.0075    -0.0189
   24    0.460   1436.20     0.0104     0.0016     0.0059     0.0046     0.0126    17.5904     7.3600     0.0052     0.0907
   25    0.480   1437.16     0.0122     0.0013     0.0067     0.0048     0.0149    10.5142     7.6800     0.0072     0.2247
   26    0.500   1438.16     0.0116     0.0014     0.0066     0.0050     0.0145    12.7962     8.0000     0.0065     0.2891
   27    0.520   1439.11     0.0094     0.0018     0.0058     0.0052     0.0121    16.7600     8.3200     0.0037     0.3036
   28    0.540   1440.05     0.0118     0.0015     0.0058     0.0054     0.0142    13.9144     8.6400     0.0056     0.0612
   29    0.560   1441.04     0.0126     0.0016     0.0069     0.0056     0.0153    14.4814     8.9600     0.0063     0.1305
   30    0.580   1442.02     0.0130     0.0018     0.0076     0.0058     0.0162    15.5448     9.2800     0.0069     0.2795
   31    0.600   1443.01     0.0100     0.0017     0.0057     0.0060     0.0130    16.0804     9.6000     0.0034     0.3557
   32    0.620   1444.01     0.0088     0.0018     0.0067     0.0062     0.0113    19.9374     9.9200     0.0014    -0.0136
   33    0.640   1445.01     0.0082     0.0017     0.0066     0.0064     0.0113    23.3399    10.2400     0.0011     0.5027
   34    0.660   1445.99     0.0108     0.0019     0.0074     0.0066     0.0135    16.8150    10.5600     0.0030    -0.0316
   35    0.680   1446.96     0.0098     0.0018     0.0082     0.0068     0.0133    19.2250    10.8800     0.0024     0.6704
   36    0.700   1447.92     0.0099     0.0019     0.0086     0.0070     0.0133    21.3582    11.2000     0.0021     0.9509
   37    0.720   1448.92     0.0110     0.0019     0.0081     0.0072     0.0145    14.9502    11.5200     0.0030     0.4589
   38    0.740   1449.88     0.0110     0.0017     0.0089     0.0074     0.0146    15.8168    11.8400     0.0028     0.4236
   39    0.760   1450.88     0.0126     0.0019     0.0101     0.0076     0.0166    14.2281    12.1600     0.0044     0.4698
   40    0.780   1451.85     0.0113     0.0020     0.0109     0.0078     0.0158    21.7333    12.4800     0.0034     2.7355
   41    0.800   1452.88     0.0112     0.0019     0.0112     0.0080     0.0159    16.1959    12.8000     0.0031     1.3135
   42    0.820   1453.83     0.0096     0.0022     0.0099     0.0082     0.0137    21.6329    13.1200     0.0006    -0.7494
   43    0.840   1454.84     0.0145     0.0022     0.0097     0.0084     0.0186    14.9743    13.4400     0.0052     0.2636
   44    0.860   1455.80     0.0142     0.0022     0.0100     0.0086     0.0184    16.5420    13.7600     0.0047     0.3190
   45    0.880   1456.82     0.0098     0.0023     0.0102     0.0088     0.0140    26.0907    14.0800    -0.0001    -0.0430
   46    0.900   1457.79     0.0113     0.0020     0.0096     0.0090     0.0156    18.8358    14.4000     0.0012     1.1789
   47    0.920   1458.77     0.0091     0.0022     0.0109     0.0092     0.0137    24.4918    14.7200    -0.0010    -1.7454
   48    0.940   1459.74     0.0090     0.0023     0.0090     0.0094     0.0131    27.5911    15.0400    -0.0020     0.0907
   49    0.960   1460.74     0.0094     0.0021     0.0113     0.0096     0.0137    20.4752    15.3600    -0.0017    -0.2992
   50    0.980   1461.73     0.0089     0.0020     0.0135     0.0098     0.0142    21.9460    15.6800    -0.0015    -2.0333
   51    1.000   1462.70     0.0074     0.0020     0.0125     0.0100     0.0129    25.6791    16.0000    -0.0031    -1.0376
   52    1.020   1463.69     0.0055     0.0016     0.0126     0.0102     0.0110    28.7184    16.3200    -0.0053    -0.6087
   53    1.040   1464.69     0.0068     0.0018     0.0128     0.0104     0.0121    25.4249    16.6400    -0.0046    -0.5634
   54    1.060   1465.64     0.0028     0.0017     0.0131     0.0106     0.0082    59.3872    16.9600    -0.0087    -0.2562
   55    1.080   1466.62     0.0009     0.0017     0.0124     0.0108     0.0063   957.9089    17.2800    -0.0110    -0.1870
   56    1.100   1467.62     0.0022     0.0016     0.0138     0.0110     0.0078    66.1243    17.6000    -0.0098    -0.2406
   57    1.120   1468.60     0.0033     0.0017     0.0153     0.0112     0.0094    50.0449    17.9200    -0.0085    -0.4082
   58    1.140   1469.61     0.0096     0.0020     0.0157     0.0114     0.0159    22.0292    18.2400    -0.0023    -2.1362
   59    1.160   1470.56     0.0137     0.0018     0.0170     0.0116     0.0205    13.7808    18.5600     0.0020     0.4112
   60    1.180   1471.56     0.0127     0.0021     0.0154     0.0118     0.0197    16.1429    18.8800     0.0008     6.4667
   61    1.200   1472.56     0.0127     0.0022     0.0133     0.0120     0.0185    16.3448    19.2000    -0.0007    -2.1539
   62    1.220   1473.53     0.0119     0.0024     0.0152     0.0122     0.0181    17.8578    19.5200    -0.0014    -1.4108
   63    1.240   1474.49     0.0134     0.0023     0.0166     0.0124     0.0202    17.9262    19.8400     0.0003     4.8163
   64    1.260   1475.49     0.0132     0.0023     0.0177     0.0126     0.0203    17.4958    20.1600     0.0001           
   65    1.280   1476.51     0.0133     0.0020     0.0206     0.0128     0.0215    15.3432    20.4800     0.0010     5.2611
   66    1.300   1477.49     0.0149     0.0018     0.0213     0.0130     0.0240    16.1189    20.8000     0.0032    -0.7764
   67    1.320   1478.45     0.0113     0.0019     0.0218     0.0132     0.0204    14.5263    21.1200    -0.0007    -3.3955
   68    1.340   1479.44     0.0186     0.0020     0.0201     0.0134     0.0272    12.9338    21.4400     0.0058     1.2306
   69    1.360   1480.41     0.0152     0.0020     0.0201     0.0136     0.0237    12.3299    21.7600     0.0019     6.0350
   70    1.380   1481.41     0.0183     0.0020     0.0188     0.0138     0.0262    11.4175    22.0800     0.0041     1.3302
   71    1.400   1482.41     0.0159     0.0017     0.0205     0.0140     0.0243    11.4805    22.4000     0.0019     5.4213
   72    1.420   1493.74     0.0195     0.0019     0.0222     0.0142     0.0285    11.7270    22.7200     0.0058     1.9484
   73    1.440   1507.05     0.0230     0.0021     0.0239     0.0144     0.0328    12.7524    23.0400     0.0097     1.4037
   74    1.460   1520.37     0.0265     0.0016     0.0254     0.0146     0.0370     8.9179    23.3600     0.0136     0.8591
   75    1.480   1523.88     0.0312     0.0020     0.0231     0.0148     0.0413     6.9576    23.6800     0.0177     0.5365
   76    1.500   1524.85     0.0319     0.0023     0.0218     0.0150     0.0412     7.6030    24.0000     0.0172     0.4272
   77    1.520   1525.83     0.0349     0.0021     0.0215     0.0152     0.0439     5.8218    24.3200     0.0196     0.3215
   78    1.540   1526.81     0.0373     0.0025     0.0227     0.0154     0.0466     6.7170    24.6400     0.0220     0.3096
   79    1.560   1527.81     0.0427     0.0025     0.0235     0.0156     0.0526     6.1380    24.9600     0.0276     0.2887
   80    1.580   1528.76     0.0437     0.0026     0.0230     0.0158     0.0532     6.0138    25.2800     0.0279     0.2464
   81    1.600   1529.76     0.0487     0.0026     0.0214     0.0160     0.0579     5.1972    25.6000     0.0323     0.1794
   82    1.620   1530.75     0.0489     0.0030     0.0165     0.0162     0.0571     6.2402    25.9200     0.0312     0.1102
   83    1.640   1531.71     0.0477     0.0034     0.0156     0.0164     0.0537     7.0091    26.2400     0.0274    -0.0818
   84    1.660   1532.68     0.0477     0.0035     0.0170     0.0166     0.0544     7.0696    26.5600     0.0279    -0.0170
   85    1.680   1533.67     0.0405     0.0033     0.0233     0.0168     0.0498     8.0880    26.8800     0.0229     0.2297
   86    1.700   1534.68     0.0401     0.0029     0.0275     0.0170     0.0509     7.1290    27.2000     0.0237     0.3746
   87    1.720   1535.64     0.0369     0.0026     0.0305     0.0172     0.0491     7.0949    27.5200     0.0216     0.5540
   88    1.740   1536.63     0.0354     0.0022     0.0344     0.0174     0.0492     6.0481    27.8400     0.0213     0.7263
   89    1.760   1537.62     0.0400     0.0020     0.0370     0.0176     0.0551     5.4096    28.1600     0.0270     0.6840
   90    1.780   1538.62     0.0502     0.0022     0.0356     0.0178     0.0655     4.6916    28.4800     0.0370     0.5040
   91    1.800   1539.58     0.0579     0.0024     0.0353     0.0180     0.0722     4.2897    28.8000     0.0434     0.3715
   92    1.820   1540.55     0.0602     0.0026     0.0330     0.0182     0.0750     4.3473    29.1200     0.0459     0.3708
   93    1.840   1541.58     0.0566     0.0027     0.0273     0.0184     0.0685     4.7859    29.4400     0.0391     0.2545
   94    1.860   1542.53     0.0571     0.0030     0.0230     0.0186     0.0672     5.2693    29.7600     0.0374     0.1434
   95    1.880   1543.46     0.0640     0.0030     0.0244     0.0188     0.0731     4.8249    30.0800     0.0430     0.0670
   96    1.900   1544.49     0.0625     0.0031     0.0290     0.0190     0.0740     5.0955    30.4000     0.0436     0.1934
   97    1.920   1545.48     0.0645     0.0033     0.0345     0.0192     0.0785     5.1546    30.7200     0.0478     0.2944
   98    1.940   1546.42     0.0773     0.0035     0.0407     0.0194     0.0934     4.6930    31.0400     0.0624     0.3028
   99    1.960   1547.42     0.0775     0.0033     0.0414     0.0196     0.0951     4.1731    31.3600     0.0637     0.3485
  100    1.980   1548.40     0.0809     0.0033     0.0398     0.0198     0.0978     4.0157    31.6800     0.0661     0.3077
  101    2.000   1549.40     0.0770     0.0029     0.0409     0.0200     0.0941     3.7449    32.0000     0.0621     0.3329
  102    2.020   1550.36     0.0754     0.0031     0.0396     0.0202     0.0922     4.1650    32.3200     0.0599     0.3325
  103    2.040   1551.34     0.0737     0.0028     0.0399     0.0204     0.0903     3.7635    32.6400     0.0576     0.3324
  104    2.060   1552.31     0.0743     0.0030     0.0435     0.0206     0.0920     4.0740    32.9600     0.0591     0.3648
  105    2.080   1553.27     0.0764     0.0028     0.0458     0.0208     0.0960     3.6315    33.2800     0.0627     0.4125
  106    2.100   1554.27     0.0798     0.0028     0.0465     0.0210     0.0986     3.4692    33.6000     0.0650     0.3648
  107    2.120   1555.27     0.0759     0.0023     0.0451     0.0212     0.0948     3.0046    33.9200     0.0608     0.3909
  108    2.140   1556.26     0.0746     0.0022     0.0394     0.0214     0.0920     2.9559    34.2400     0.0578     0.3477
  109    2.160   1557.22     0.0740     0.0027     0.0401     0.0216     0.0905     3.5863    34.5600     0.0560     0.3159
  110    2.180   1558.26     0.0709     0.0027     0.0415     0.0218     0.0880     3.9206    34.8800     0.0531     0.3557
  111    2.200   1559.21     0.0720     0.0025     0.0439     0.0220     0.0900     3.4553    35.2000     0.0548     0.3838
  112    2.220   1560.17     0.0691     0.0025     0.0462     0.0222     0.0879     3.5863    35.5200     0.0524     0.4321
  113    2.240   1561.18     0.0683     0.0026     0.0441     0.0224     0.0877     3.8774    35.8400     0.0519     0.4621
  114    2.260   1562.17     0.0701     0.0025     0.0451     0.0226     0.0883     3.5660    36.1600     0.0522     0.4007
  115    2.280   1563.17     0.0683     0.0028     0.0502     0.0228     0.0886     4.2110    36.4800     0.0521     0.4909
  116    2.300   1564.17     0.0677     0.0027     0.0566     0.0230     0.0908     3.9337    36.8000     0.0540     0.5939
  117    2.320   1565.13     0.0699     0.0026     0.0596     0.0232     0.0945     3.6874    37.1200     0.0574     0.6154
  118    2.340   1566.13     0.0707     0.0026     0.0617     0.0234     0.0963     3.6199    37.4400     0.0588     0.6384
  119    2.360   1567.09     0.0707     0.0026     0.0632     0.0236     0.0970     3.6961    37.7600     0.0593     0.6603
  120    2.380   1568.09     0.0723     0.0022     0.0642     0.0238     0.0993     3.0414    38.0800     0.0612     0.6611
  121    2.400   1569.04     0.0693     0.0023     0.0636     0.0240     0.0962     3.3405    38.4000     0.0578     0.6910
  122    2.420   1570.05     0.0704     0.0023     0.0636     0.0242     0.0970     3.1999    38.7200     0.0583     0.6714
  123    2.440   1571.02     0.0691     0.0026     0.0635     0.0244     0.0962     3.7080    39.0400     0.0572     0.7034
  124    2.460   1572.05     0.0721     0.0026     0.0620     0.0246     0.0985     3.6798    39.3600     0.0592     0.6460
  125    2.480   1573.00     0.0771     0.0029     0.0615     0.0248     0.1031     3.7755    39.6800     0.0634     0.5851
  126    2.500   1573.97     0.0814     0.0026     0.0654     0.0250     0.1083     3.2380    40.0000     0.0683     0.5713
  127    2.520   1574.93     0.0863     0.0028     0.0620     0.0252     0.1128     3.2164    40.3200     0.0725     0.5218
  128    2.540   1575.91     0.0953     0.0028     0.0610     0.0254     0.1213     2.8896    40.6400     0.0807     0.4542
  129    2.560   1576.93     0.0989     0.0033     0.0587     0.0256     0.1234     3.4384    40.9600     0.0825     0.3995
  130    2.580   1577.89     0.1012     0.0032     0.0598     0.0258     0.1262     3.1902    41.2800     0.0849     0.3968
  131    2.600   1578.87     0.1039     0.0037     0.0606     0.0260     0.1290     3.5977    41.6000     0.0874     0.3859
  132    2.620   1579.85     0.1081     0.0037     0.0632     0.0262     0.1348     3.3801    41.9200     0.0929     0.4034
  133    2.640   1580.85     0.1088     0.0038     0.0612     0.0264     0.1347     3.5520    42.2400     0.0924     0.3805
  134    2.660   1581.81     0.1081     0.0033     0.0612     0.0266     0.1343     3.0538    42.5600     0.0917     0.3906
  135    2.680   1582.78     0.1075     0.0035     0.0628     0.0268     0.1330     3.2759    42.8800     0.0901     0.3766
  136    2.700   1583.76     0.1094     0.0037     0.0658     0.0270     0.1359     3.4100    43.2000     0.0927     0.3883
  137    2.720   1584.77     0.1226     0.0040     0.0720     0.0272     0.1525     3.2218    43.5200     0.1090     0.4025
  138    2.740   1585.73     0.1204     0.0041     0.0726     0.0274     0.1504     3.3604    43.8400     0.1065     0.4125
  139    2.760   1586.74     0.1244     0.0038     0.0641     0.0276     0.1526     3.0597    44.1600     0.1084     0.3635
  140    2.780   1587.75     0.1267     0.0038     0.0568     0.0278     0.1519     3.0179    44.4800     0.1074     0.2992
  141    2.800   1588.70     0.1279     0.0036     0.0633     0.0280     0.1542     2.7829    44.8000     0.1094     0.3166
  142    2.820   1589.70     0.1331     0.0043     0.0656     0.0282     0.1613     3.2522    45.1200     0.1162     0.3350
  143    2.840   1590.66     0.1386     0.0043     0.0529     0.0284     0.1638     3.0721    45.4400     0.1184     0.2674
  144    2.860   1591.67     0.1366     0.0038     0.0556     0.0286     0.1594     2.7592    45.7600     0.1137     0.2266
  145    2.880   1592.62     0.1387     0.0038     0.0515     0.0288     0.1609     2.7663    46.0800     0.1149     0.2108
  146    2.900   1593.62     0.1368     0.0043     0.0530     0.0290     0.1575     3.1266    46.4000     0.1111     0.1823
  147    2.920   1594.60     0.1328     0.0041     0.0621     0.0292     0.1567     3.0937    46.7200     0.1100     0.2521
  148    2.940   1595.60     0.1342     0.0041     0.0687     0.0294     0.1620     3.0869    47.0400     0.1149     0.3197
  149    2.960   1596.55     0.1352     0.0042     0.0682     0.0296     0.1642     3.0931    47.3600     0.1168     0.3373
  150    2.980   1597.56     0.1342     0.0036     0.0697     0.0298     0.1628     2.6548    47.6800     0.1151     0.3321
  151    3.000   1598.51     0.1355     0.0032     0.0660     0.0300     0.1647     2.3780    48.0000     0.1167     0.3373
  152    3.020   1599.51     0.1375     0.0031     0.0610     0.0302     0.1632     2.2524    48.3200     0.1149     0.2692
  153    3.040   1600.51     0.1358     0.0032     0.0611     0.0304     0.1612     2.3431    48.6400     0.1125     0.2667
  154    3.060   1601.47     0.1341     0.0036     0.0596     0.0306     0.1599     2.6684    48.9600     0.1110     0.2781
  155    3.080   1602.47     0.1356     0.0037     0.0445     0.0308     0.1561     2.7626    49.2800     0.1068     0.1677
  156    3.100   1603.42     0.1335     0.0043     0.0483     0.0310     0.1530     3.2425    49.6000     0.1034     0.1494
  157    3.120   1604.43     0.1280     0.0043     0.0496     0.0312     0.1491     3.3387    49.9200     0.0992     0.1937
  158    3.140   1605.38     0.1225     0.0043     0.0427     0.0314     0.1409     3.4331    50.2400     0.0907     0.1380
  159    3.160   1606.33     0.1189     0.0040     0.0482     0.0316     0.1379     3.3817    50.5600     0.0873     0.1563
  160    3.180   1607.36     0.1199     0.0037     0.0571     0.0318     0.1429     3.1092    50.8800     0.0920     0.2484
  161    3.200   1608.30     0.1193     0.0037     0.0584     0.0320     0.1436     3.0363    51.2000     0.0924     0.2795
  162    3.220   1609.30     0.1246     0.0033     0.0656     0.0322     0.1514     2.6157    51.5200     0.0999     0.3172
  163    3.240   1610.26     0.1256     0.0027     0.0615     0.0324     0.1523     2.1896    51.8400     0.1004     0.3099
  164    3.260   1611.28     0.1257     0.0031     0.0594     0.0326     0.1511     2.4896    52.1600     0.0989     0.2817
  165    3.280   1612.30     0.1176     0.0037     0.0594     0.0328     0.1418     2.9816    52.4800     0.0893     0.2773
  166    3.300   1613.25     0.1177     0.0042     0.0568     0.0330     0.1423     3.4721    52.8000     0.0895     0.2849
  167    3.320   1614.26     0.1158     0.0047     0.0533     0.0332     0.1388     4.0228    53.1200     0.0857     0.2518
  168    3.340   1615.21     0.1333     0.0048     0.0503     0.0334     0.1553     3.9073    53.4400     0.1019     0.1861
  169    3.360   1616.21     0.1461     0.0048     0.0431     0.0336     0.1654     3.3858    53.7600     0.1117     0.1108
  170    3.380   1624.81     0.1481     0.0046     0.0471     0.0338     0.1672     3.1446    54.0800     0.1131     0.1025
  171    3.400   1638.41     0.1487     0.0046     0.0517     0.0340     0.1698     3.0982    54.4000     0.1154     0.1385
  172    3.420   1652.02     0.1493     0.0045     0.0560     0.0342     0.1723     3.0285    54.7200     0.1176     0.1745
  173    3.440   1655.41     0.1429     0.0044     0.0621     0.0344     0.1676     3.0547    55.0400     0.1126     0.2174
  174    3.460   1656.39     0.1425     0.0043     0.0708     0.0346     0.1714     3.0099    55.3600     0.1161     0.2948
  175    3.480   1657.37     0.1404     0.0041     0.0757     0.0348     0.1715     2.9967    55.6800     0.1158     0.3401
  176    3.500   1658.35     0.1443     0.0038     0.0782     0.0350     0.1769     2.6417    56.0000     0.1209     0.3524
  177    3.520   1659.33     0.1405     0.0038     0.0730     0.0352     0.1727     2.6481    56.3200     0.1164     0.3564
  178    3.540   1660.30     0.1383     0.0037     0.0693     0.0354     0.1663     2.6367    56.6400     0.1097     0.2853
  179    3.560   1661.28     0.1359     0.0037     0.0656     0.0356     0.1646     2.6522    56.9600     0.1076     0.3032
  180    3.580   1662.25     0.1295     0.0039     0.0665     0.0358     0.1571     2.9466    57.2800     0.0998     0.2989
  181    3.600   1663.22     0.1223     0.0035     0.0658     0.0360     0.1500     2.8798    57.6000     0.0924     0.3232
  182    3.620   1664.22     0.1197     0.0034     0.0653     0.0362     0.1477     2.8046    57.9200     0.0898     0.3386
  183    3.640   1665.19     0.1163     0.0029     0.0685     0.0364     0.1441     2.4865    58.2400     0.0859     0.3476
  184    3.660   1666.18     0.1197     0.0027     0.0764     0.0366     0.1508     2.3007    58.5600     0.0922     0.4037
  185    3.680   1667.13     0.1256     0.0030     0.0813     0.0368     0.1591     2.4316    58.8800     0.1002     0.4278
  186    3.700   1668.07     0.1330     0.0031     0.0831     0.0370     0.1678     2.3527    59.2000     0.1086     0.4224
  187    3.720   1669.06     0.1403     0.0032     0.0739     0.0372     0.1724     2.2917    59.5200     0.1129     0.3475
  188    3.740   1670.04     0.1468     0.0039     0.0572     0.0374     0.1724     2.6837    59.8400     0.1125     0.2091
  189    3.760   1671.06     0.1681     0.0041     0.0579     0.0376     0.1916     2.5295    60.1600     0.1314     0.1390
  190    3.780   1672.04     0.1699     0.0050     0.0575     0.0378     0.1943     2.9441    60.4800     0.1338     0.1525
  191    3.800   1673.02     0.1674     0.0051     0.0558     0.0380     0.1922     3.0170    60.8000     0.1314     0.1609
  192    3.820   1674.02     0.1664     0.0051     0.0513     0.0382     0.1870     3.0248    61.1200     0.1259     0.0861
  193    3.840   1674.98     0.1623     0.0052     0.0507     0.0384     0.1847     3.1049    61.4400     0.1233     0.1214
  194    3.860   1675.98     0.1574     0.0054     0.0584     0.0386     0.1808     3.4009    61.7600     0.1191     0.1452
  195    3.880   1676.92     0.1536     0.0054     0.0663     0.0388     0.1802     3.4601    62.0800     0.1181     0.2071
  196    3.900   1677.90     0.1524     0.0049     0.0676     0.0390     0.1806     3.2381    62.4000     0.1182     0.2389
  197    3.920   1678.87     0.1506     0.0050     0.0753     0.0392     0.1811     3.3364    62.7200     0.1184     0.2820
  198    3.940   1679.89     0.1537     0.0051     0.0811     0.0394     0.1871     3.3684    63.0400     0.1241     0.3223
  199    3.960   1680.86     0.1535     0.0051     0.0847     0.0396     0.1886     3.3513    63.3600     0.1252     0.3510
  200    3.980   1681.83     0.1540     0.0045     0.0883     0.0398     0.1905     2.9150    63.6800     0.1268     0.3717
  201    4.000   1682.78     0.1508     0.0044     0.0860     0.0400     0.1879     2.9416    64.0000     0.1239     0.3897
  202    4.020   1683.79     0.1529     0.0047     0.0831     0.0402     0.1890     3.0382    64.3200     0.1247     0.3668
  203    4.040   1684.73     0.1487     0.0040     0.0775     0.0404     0.1813     2.6739    64.6400     0.1166     0.3189
  204    4.060   1685.74     0.1488     0.0040     0.0767     0.0406     0.1818     2.6548    64.9600     0.1168     0.3245
  205    4.080   1686.69     0.1488     0.0042     0.0823     0.0408     0.1828     2.8270    65.2800     0.1176     0.3419
  206    4.100   1687.68     0.1503     0.0040     0.0792     0.0410     0.1856     2.6803    65.6000     0.1200     0.3585
  207    4.120   1688.65     0.1569     0.0039     0.0829     0.0412     0.1905     2.5386    65.9200     0.1246     0.3115
  208    4.140   1689.60     0.1699     0.0043     0.0839     0.0414     0.2048     2.5822    66.2400     0.1386     0.3019
  209    4.160   1690.59     0.1692     0.0046     0.0836     0.0416     0.2044     2.6640    66.5600     0.1379     0.3065
  210    4.180   1691.61     0.1748     0.0046     0.0771     0.0418     0.2069     2.6512    66.8800     0.1401     0.2481
  211    4.200   1692.56     0.1745     0.0047     0.0753     0.0420     0.2057     2.6886    67.2000     0.1385     0.2328
  212    4.220   1693.59     0.1752     0.0050     0.0799     0.0422     0.2083     2.8400    67.5200     0.1407     0.2597
  213    4.240   1694.60     0.1748     0.0052     0.0839     0.0424     0.2097     2.9442    67.8400     0.1419     0.2865
  214    4.260   1695.55     0.1768     0.0049     0.0873     0.0426     0.2129     2.8019    68.1600     0.1447     0.2988
  215    4.280   1696.50     0.1786     0.0048     0.0888     0.0428     0.2156     2.6993    68.4800     0.1472     0.3085
  216    4.300   1697.51     0.1754     0.0052     0.0918     0.0430     0.2134     2.9321    68.8000     0.1446     0.3287
  217    4.320   1698.47     0.1785     0.0050     0.0926     0.0432     0.2178     2.7936    69.1200     0.1486     0.3381
  218    4.340   1699.50     0.1797     0.0045     0.0921     0.0434     0.2185     2.5398    69.4400     0.1490     0.3279
  219    4.360   1700.48     0.1808     0.0046     0.0921     0.0436     0.2193     2.5401    69.7600     0.1496     0.3211
  220    4.380   1701.44     0.1858     0.0048     0.0873     0.0438     0.2226     2.5914    70.0800     0.1525     0.2870
  221    4.400   1702.42     0.1821     0.0045     0.0909     0.0440     0.2199     2.4457    70.4000     0.1495     0.3082
  222    4.420   1703.37     0.1828     0.0048     0.0920     0.0442     0.2217     2.5803    70.7200     0.1510     0.3199
  223    4.440   1704.35     0.1807     0.0046     0.0913     0.0444     0.2186     2.5672    71.0400     0.1475     0.3107
  224    4.460   1705.36     0.1786     0.0045     0.0945     0.0446     0.2181     2.5342    71.3600     0.1467     0.3364
  225    4.480   1706.37     0.1838     0.0043     0.0944     0.0448     0.2232     2.3673    71.6800     0.1516     0.3245
  226    4.500   1707.34     0.1826     0.0041     0.0906     0.0450     0.2220     2.2457    72.0000     0.1500     0.3250
  227    4.520   1708.31     0.1818     0.0043     0.0848     0.0452     0.2175     2.3682    72.3200     0.1452     0.2748
  228    4.540   1709.29     0.1802     0.0041     0.0845     0.0454     0.2159     2.2673    72.6400     0.1433     0.2768
  229    4.560   1710.29     0.1774     0.0045     0.0891     0.0456     0.2136     2.5640    72.9600     0.1406     0.2887
  230    4.580   1711.27     0.1722     0.0046     0.0932     0.0458     0.2113     2.6637    73.2800     0.1380     0.3413
  231    4.600   1712.29     0.1715     0.0040     0.0937     0.0460     0.2100     2.3169    73.6000     0.1364     0.3352
  232    4.620   1713.28     0.1723     0.0040     0.0986     0.0462     0.2133     2.3302    73.9200     0.1394     0.3685
  233    4.640   1714.25     0.1707     0.0039     0.0990     0.0464     0.2108     2.2746    74.2400     0.1366     0.3591
  234    4.660   1715.25     0.1693     0.0036     0.1025     0.0466     0.2119     2.0966    74.5600     0.1373     0.3986
  235    4.680   1716.24     0.1684     0.0036     0.1044     0.0468     0.2117     2.1571    74.8800     0.1368     0.4123
  236    4.700   1717.20     0.1723     0.0037     0.1059     0.0470     0.2166     2.1520    75.2000     0.1414     0.4127
  237    4.720   1718.19     0.1666     0.0039     0.0986     0.0472     0.2091     2.2951    75.5200     0.1336     0.4031
  238    4.740   1719.16     0.1627     0.0038     0.0918     0.0474     0.2012     2.3435    75.8400     0.1254     0.3530
  239    4.760   1720.17     0.1613     0.0038     0.0966     0.0476     0.2019     2.3741    76.1600     0.1258     0.3909
  240    4.780   1721.20     0.1609     0.0037     0.0980     0.0478     0.2017     2.3019    76.4800     0.1252     0.3934
  241    4.800   1722.16     0.1582     0.0033     0.1036     0.0480     0.2006     2.0820    76.8000     0.1238     0.4265
  242    4.820   1723.10     0.1558     0.0033     0.1089     0.0482     0.2010     2.1168    77.1200     0.1239     0.4804
  243    4.840   1724.05     0.1583     0.0036     0.1061     0.0484     0.2012     2.2793    77.4400     0.1238     0.4343
  244    4.860   1725.08     0.1647     0.0036     0.1119     0.0486     0.2113     2.1769    77.7600     0.1335     0.4661
  245    4.880   1726.04     0.1777     0.0034     0.1066     0.0488     0.2225     1.9551    78.0800     0.1445     0.4010
  246    4.900   1727.04     0.1777     0.0039     0.0989     0.0490     0.2207     2.1858    78.4000     0.1423     0.3749
  247    4.920   1728.03     0.1771     0.0037     0.0973     0.0492     0.2185     2.0655    78.7200     0.1398     0.3531
  248    4.940   1728.99     0.1694     0.0038     0.1004     0.0494     0.2108     2.1936    79.0400     0.1318     0.3734
  249    4.960   1729.93     0.1696     0.0039     0.1054     0.0496     0.2130     2.2911    79.3600     0.1336     0.4026
  250    4.980   1730.93     0.1686     0.0036     0.1099     0.0498     0.2143     2.1743    79.6800     0.1346     0.4385
  251    5.000   1731.90     0.1670     0.0034     0.1080     0.0500     0.2131     2.0160    80.0000     0.1331     0.4493
  252    5.020   1732.87     0.1641     0.0035     0.1038     0.0502     0.2081     2.0906    80.3200     0.1277     0.4262
  253    5.040   1733.82     0.1629     0.0037     0.1012     0.0504     0.2060     2.2260    80.6400     0.1253     0.4159
  254    5.060   1734.82     0.1600     0.0036     0.1006     0.0506     0.2018     2.2106    80.9600     0.1208     0.4048
  255    5.080   1735.80     0.1557     0.0038     0.1028     0.0508     0.1987     2.4392    81.2800     0.1174     0.4401
  256    5.100   1736.75     0.1551     0.0041     0.1048     0.0510     0.1986     2.6560    81.6000     0.1170     0.4481
  257    5.120   1737.74     0.1532     0.0036     0.1063     0.0512     0.1976     2.3553    81.9200     0.1157     0.4721
  258    5.140   1738.69     0.1512     0.0037     0.1044     0.0514     0.1948     2.4255    82.2400     0.1126     0.4673
  259    5.160   1739.65     0.1539     0.0035     0.1031     0.0516     0.1981     2.3228    82.5600     0.1156     0.4638
  260    5.180   1740.65     0.1566     0.0042     0.1007     0.0518     0.1989     2.7072    82.8800     0.1160     0.4219
  261    5.200   1741.65     0.1571     0.0042     0.0914     0.0520     0.1969     2.6483    83.2000     0.1137     0.3754
  262    5.220   1742.61     0.1613     0.0045     0.0879     0.0522     0.1988     2.7969    83.5200     0.1153     0.3213
  263    5.240   1743.61     0.1729     0.0050     0.0884     0.0524     0.2099     3.0641    83.8400     0.1260     0.2827
  264    5.260   1744.56     0.1654     0.0055     0.0922     0.0526     0.2034     3.3005    84.1600     0.1193     0.3176
  265    5.280   1745.56     0.1767     0.0054     0.0890     0.0528     0.2135     3.1351    84.4800     0.1291     0.2702
  266    5.300   1746.52     0.1921     0.0058     0.0880     0.0530     0.2292     3.2351    84.8000     0.1444     0.2454
  267    5.320   1754.08     0.2031     0.0060     0.0817     0.0532     0.2385     2.9716    85.1200     0.1534     0.2039
  268    5.340   1768.93     0.2084     0.0068     0.0741     0.0534     0.2406     3.4092    85.4400     0.1552     0.1517
  269    5.360   1783.79     0.2137     0.0069     0.0668     0.0536     0.2427     3.4274    85.7600     0.1569     0.0994
  270    5.380   1789.24     0.2133     0.0073     0.0736     0.0538     0.2432     3.4029    86.0800     0.1571     0.1109
  271    5.400   1790.22     0.2128     0.0069     0.0816     0.0540     0.2468     3.2213    86.4000     0.1604     0.1687
  272    5.420   1791.22     0.2069     0.0062     0.0809     0.0542     0.2418     3.0104    86.7200     0.1551     0.1875
  273    5.440   1792.18     0.2165     0.0063     0.0918     0.0544     0.2522     2.9370    87.0400     0.1651     0.1855
  274    5.460   1793.18     0.2220     0.0062     0.0980     0.0546     0.2619     2.8541    87.3600     0.1745     0.2315
  275    5.480   1794.14     0.2251     0.0061     0.0990     0.0548     0.2672     2.7233    87.6800     0.1795     0.2522
  276    5.500   1795.06     0.2320     0.0061     0.0972     0.0550     0.2735     2.6513    88.0000     0.1855     0.2373
  277    5.520   1795.96     0.2253     0.0060     0.0927     0.0552     0.2648     2.6606    88.3200     0.1765     0.2211
  278    5.540   1796.91     0.2224     0.0059     0.0898     0.0554     0.2602     2.6068    88.6400     0.1715     0.2009
  279    5.560   1797.92     0.2175     0.0060     0.0960     0.0556     0.2571     2.7717    88.9600     0.1682     0.2303
  280    5.580   1798.91     0.2222     0.0058     0.0973     0.0558     0.2630     2.6397    89.2800     0.1737     0.2381
  281    5.600   1799.88     0.2181     0.0064     0.0928     0.0560     0.2581     2.9155    89.6000     0.1685     0.2322
  282    5.620   1800.88     0.2142     0.0067     0.0914     0.0562     0.2524     3.1675    89.9200     0.1625     0.2137
  283    5.640   1801.86     0.2173     0.0070     0.0888     0.0564     0.2551     3.2749    90.2400     0.1648     0.2037
  284    5.660   1802.84     0.2250     0.0069     0.0858     0.0566     0.2612     3.1038    90.5600     0.1706     0.1731
  285    5.680   1803.82     0.2268     0.0068     0.0871     0.0568     0.2632     2.9999    90.8800     0.1723     0.1731
  286    5.700   1804.82     0.2284     0.0069     0.0893     0.0570     0.2656     3.0407    91.2000     0.1744     0.1812
  287    5.720   1805.84     0.2272     0.0067     0.0972     0.0572     0.2664     2.9463    91.5200     0.1749     0.2058
  288    5.740   1806.83     0.2283     0.0068     0.0971     0.0574     0.2695     2.9634    91.8400     0.1776     0.2285
  289    5.760   1807.70     0.2275     0.0064     0.0988     0.0576     0.2687     2.8144    92.1600     0.1765     0.2291
  290    5.780   1808.47     0.2221     0.0061     0.1004     0.0578     0.2644     2.7154    92.4800     0.1719     0.2498
  291    5.800   1809.31     0.2200     0.0058     0.1000     0.0580     0.2618     2.6117    92.8000     0.1690     0.2465
  292    5.820   1810.22     0.2180     0.0062     0.1024     0.0582     0.2606     2.8355    93.1200     0.1675     0.2587
  293    5.840   1811.25     0.2217     0.0059     0.1038     0.0584     0.2648     2.6737    93.4400     0.1713     0.2574
  294    5.860   1812.17     0.2226     0.0059     0.1030     0.0586     0.2658     2.6498    93.7600     0.1720     0.2562
  295    5.880   1813.19     0.2323     0.0058     0.1002     0.0588     0.2746     2.5161    94.0800     0.1806     0.2323
  296    5.900   1814.16     0.2305     0.0057     0.0953     0.0590     0.2707     2.4881    94.4000     0.1763     0.2074
  297    5.920   1815.11     0.2298     0.0054     0.0941     0.0592     0.2697     2.3282    94.7200     0.1749     0.2042
  298    5.940   1816.14     0.2169     0.0051     0.0879     0.0594     0.2542     2.3210    95.0400     0.1591     0.1838
  299    5.960   1817.14     0.2063     0.0050     0.1015     0.0596     0.2468     2.4036    95.3600     0.1515     0.2441
  300    5.980   1818.11     0.2018     0.0048     0.1093     0.0598     0.2468     2.3762    95.6800     0.1512     0.3134
  301    6.000   1819.11     0.1976     0.0050     0.1149     0.0600     0.2456     2.5528    96.0000     0.1496     0.3633
  302    6.020   1820.14     0.1991     0.0050     0.1201     0.0602     0.2485     2.5229    96.3200     0.1521     0.3763
  303    6.040   1821.14     0.1986     0.0052     0.1256     0.0604     0.2508     2.6154    96.6400     0.1541     0.4137
  304    6.060   1822.10     0.1990     0.0056     0.1285     0.0606     0.2522     2.8237    96.9600     0.1553     0.4261
  305    6.080   1823.07     0.2033     0.0054     0.1338     0.0608     0.2588     2.6624    97.2800     0.1616     0.4421
  306    6.100   1824.03     0.2104     0.0053     0.1386     0.0610     0.2677     2.5441    97.6000     0.1701     0.4431
  307    6.120   1825.06     0.2142     0.0053     0.1357     0.0612     0.2727     2.5147    97.9200     0.1748     0.4461
  308    6.140   1826.03     0.2230     0.0053     0.1300     0.0614     0.2783     2.4166    98.2400     0.1801     0.3905
  309    6.160   1826.99     0.2185     0.0053     0.1375     0.0616     0.2747     2.4092    98.5600     0.1762     0.4102
  310    6.180   1827.98     0.2171     0.0057     0.1443     0.0618     0.2773     2.6483    98.8800     0.1784     0.4561
  311    6.200   1828.94     0.2185     0.0055     0.1435     0.0620     0.2793     2.5187    99.2000     0.1801     0.4594
  312    6.220   1829.90     0.2189     0.0055     0.1382     0.0622     0.2775     2.5239    99.5200     0.1780     0.4348
  313    6.240   1830.88     0.2265     0.0059     0.1323     0.0624     0.2831     2.6434    99.8400     0.1833     0.3958
  314    6.260   1831.86     0.2286     0.0059     0.1277     0.0626     0.2827     2.5612   100.1600     0.1825     0.3625
  315    6.280   1832.86     0.2251     0.0063     0.1234     0.0628     0.2777     2.7560   100.4800     0.1772     0.3523
  316    6.300   1833.81     0.2244     0.0067     0.1241     0.0630     0.2761     2.9849   100.8000     0.1753     0.3423
  317    6.320   1834.75     0.2191     0.0063     0.1267     0.0632     0.2728     2.8834   101.1200     0.1716     0.3762
  318    6.340   1835.68     0.2245     0.0061     0.1300     0.0634     0.2789     2.7294   101.4400     0.1775     0.3723
  319    6.360   1836.66     0.2202     0.0056     0.1318     0.0636     0.2747     2.5335   101.7600     0.1730     0.3828
  320    6.380   1837.65     0.2211     0.0059     0.1382     0.0638     0.2780     2.6548   102.0800     0.1759     0.4073
  321    6.400   1838.64     0.2171     0.0060     0.1442     0.0640     0.2770     2.7458   102.4000     0.1746     0.4503
  322    6.420   1839.61     0.2138     0.0056     0.1465     0.0642     0.2747     2.6308   102.7200     0.1720     0.4703
  323    6.440   1840.59     0.2196     0.0058     0.1452     0.0644     0.2800     2.6655   103.0400     0.1770     0.4483
  324    6.460   1841.55     0.2257     0.0056     0.1476     0.0646     0.2880     2.5143   103.3600     0.1846     0.4528
  325    6.480   1842.50     0.2331     0.0059     0.1478     0.0648     0.2945     2.5123   103.6800     0.1908     0.4267
  326    6.500   1843.49     0.2346     0.0062     0.1481     0.0650     0.2975     2.6439   104.0000     0.1935     0.4382
  327    6.520   1844.48     0.2373     0.0060     0.1408     0.0652     0.2976     2.5538   104.3200     0.1932     0.4053
  328    6.540   1845.46     0.2338     0.0068     0.1401     0.0654     0.2923     2.8894   104.6400     0.1876     0.3938
  329    6.560   1846.42     0.2369     0.0073     0.1436     0.0656     0.2964     3.1188   104.9600     0.1915     0.3980
  330    6.580   1847.41     0.2362     0.0079     0.1478     0.0658     0.2980     3.3481   105.2800     0.1927     0.4219
  331    6.600   1848.40     0.2363     0.0084     0.1419     0.0660     0.2972     3.5767   105.6000     0.1916     0.4124
  332    6.620   1849.37     0.2433     0.0084     0.1343     0.0662     0.3003     3.4644   105.9200     0.1944     0.3584
  333    6.640   1850.35     0.2402     0.0076     0.1362     0.0664     0.2971     3.1624   106.2400     0.1908     0.3619
  334    6.660   1867.67     0.2410     0.0079     0.1332     0.0666     0.2974     3.2842   106.5600     0.1909     0.3544
  335    6.680   1891.33     0.2434     0.0082     0.1301     0.0668     0.2985     3.4061   106.8800     0.1916     0.3361
  336    6.700   1914.99     0.2457     0.0081     0.1297     0.0670     0.2996     3.3864   107.2000     0.1924     0.3178
  337    6.720   1919.62     0.2498     0.0082     0.1405     0.0672     0.3074     3.2785   107.5200     0.1999     0.3505
  338    6.740   1920.27     0.2591     0.0079     0.1423     0.0674     0.3192     3.0354   107.8400     0.2113     0.3577
  339    6.760   1920.92     0.2561     0.0079     0.1441     0.0676     0.3169     3.0365   108.1600     0.2087     0.3698
  340    6.780   1921.55     0.2490     0.0081     0.1263     0.0678     0.3020     3.2372   108.4800     0.1935     0.3020
  341    6.800   1922.22     0.2462     0.0077     0.1375     0.0680     0.3013     3.1011   108.8000     0.1925     0.3279
  342    6.820   1922.85     0.2398     0.0076     0.1485     0.0682     0.3009     3.1498   109.1200     0.1918     0.4027
  343    6.840   1923.46     0.2416     0.0076     0.1530     0.0684     0.3054     3.2019   109.4400     0.1959     0.4258
  344    6.860   1924.15     0.2396     0.0075     0.1544     0.0686     0.3041     3.1365   109.7600     0.1944     0.4373
  345    6.880   1924.78     0.2308     0.0073     0.1608     0.0688     0.2972     3.0982   110.0800     0.1871     0.4767
  346    6.900   1925.41     0.2332     0.0072     0.1650     0.0690     0.3021     3.0599   110.4000     0.1917     0.4966
  347    6.920   1926.06     0.2320     0.0071     0.1566     0.0692     0.2988     3.0188   110.7200     0.1881     0.4778
  348    6.940   1926.72     0.2309     0.0076     0.1553     0.0694     0.2955     3.3226   111.0400     0.1845     0.4570
  349    6.960   1933.97     0.2347     0.0081     0.1509     0.0696     0.2991     3.4531   111.3600     0.1878     0.4457
  350    6.980   1950.94     0.2338     0.0073     0.1437     0.0698     0.2951     3.1051   111.6800     0.1835     0.4144
  351    7.000   1967.90     0.2328     0.0075     0.1364     0.0700     0.2911     3.1770   112.0000     0.1791     0.3831
  352    7.020   1982.26     0.2336     0.0073     0.1345     0.0702     0.2896     3.1404   112.3200     0.1773     0.3560
  353    7.040   1983.25     0.2326     0.0070     0.1491     0.0704     0.2937     3.0162   112.6400     0.1810     0.4147
  354    7.060   1984.25     0.2244     0.0069     0.1552     0.0706     0.2894     3.0801   112.9600     0.1764     0.4772
  355    7.080   1985.26     0.2238     0.0074     0.1603     0.0708     0.2908     3.3075   113.2800     0.1775     0.4993
  356    7.100   1986.29     0.2192     0.0071     0.1599     0.0710     0.2868     3.2206   113.6000     0.1732     0.5192
  357    7.120   1987.29     0.2122     0.0064     0.1584     0.0712     0.2790     2.9891   113.9200     0.1651     0.5318
  358    7.140   1988.26     0.2052     0.0068     0.1579     0.0714     0.2712     3.2948   114.2400     0.1570     0.5474
  359    7.160   1989.26     0.2029     0.0064     0.1573     0.0716     0.2683     3.1514   114.5600     0.1538     0.5479
  360    7.180   1990.26     0.1987     0.0052     0.1639     0.0718     0.2665     2.5821   114.8800     0.1516     0.5914
  361    7.200   1991.25     0.1930     0.0052     0.1651     0.0720     0.2628     2.6906   115.2000     0.1476     0.6376
  362    7.220   1992.19     0.2005     0.0047     0.1582     0.0722     0.2692     2.4381   115.5200     0.1537     0.5945
  363    7.240   1993.20     0.2157     0.0049     0.1526     0.0724     0.2810     2.5648   115.8400     0.1652     0.5036
  364    7.260   1994.20     0.2192     0.0052     0.1328     0.0726     0.2786     2.6915   116.1600     0.1625     0.4550
  365    7.280   1995.23     0.2947     0.0058     0.1175     0.0728     0.3430     1.9628   116.4800     0.2265     0.1858
  366    7.300   1996.21     0.2994     0.0062     0.1164     0.0730     0.3471     2.0906   116.8000     0.2303     0.1761
  367    7.320   1998.67     0.3033     0.0063     0.1129     0.0732     0.3518     2.0597   117.1200     0.2347     0.1800
  368    7.340   2014.93     0.2650     0.0057     0.1056     0.0734     0.3104     1.8420   117.4400     0.1929     0.1801
  369    7.360   2031.19     0.2266     0.0060     0.0983     0.0736     0.2689     1.9380   117.7600     0.1512     0.1801
  370    7.380   2040.57     0.1896     0.0054     0.1408     0.0738     0.2448     2.7660   118.0800     0.1267     0.4544
  371    7.400   2041.55     0.1740     0.0052     0.1560     0.0740     0.2382     2.9757   118.4000     0.1198     0.6580
  372    7.420   2042.52     0.1894     0.0049     0.1596     0.0742     0.2569     2.6169   118.7200     0.1382     0.6255
  373    7.440   2043.53     0.1894     0.0044     0.1430     0.0744     0.2500     2.3260   119.0400     0.1310     0.5333
  374    7.460   2044.51     0.1926     0.0039     0.1617     0.0746     0.2581     1.9973   119.3600     0.1387     0.5856
  375    7.480   2045.51     0.1941     0.0035     0.1675     0.0748     0.2642     1.8267   119.6800     0.1445     0.6377
  376    7.500   2046.44     0.2041     0.0028     0.1628     0.0750     0.2730     1.4080   120.0000     0.1530     0.5816
  377    7.520   2047.42     0.2220     0.0029     0.1537     0.0752     0.2882     1.2973   120.3200     0.1679     0.4914
  378    7.540   2048.43     0.2409     0.0031     0.1520     0.0754     0.3048     1.3018   120.6400     0.1841     0.4171
  379    7.560   2049.42     0.2803     0.0038     0.1290     0.0756     0.3384     1.4087   120.9600     0.2174     0.2896
  380    7.580   2050.41     0.3151     0.0047     0.1459     0.0758     0.3731     1.4826   121.2800     0.2518     0.2464
  381    7.600   2051.40     0.3068     0.0048     0.1241     0.0760     0.3606     1.5704   121.6000     0.2390     0.2179
  382    7.620   2052.37     0.3174     0.0048     0.1438     0.0762     0.3761     1.4842   121.9200     0.2542     0.2506
  383    7.640   2053.35     0.3363     0.0052     0.1226     0.0764     0.3907     1.5623   122.2400     0.2685     0.1985
  384    7.660   2054.31     0.3323     0.0052     0.1045     0.0766     0.3775     1.5505   122.5600     0.2550     0.1219
  385    7.680   2055.29     0.2863     0.0054     0.1082     0.0768     0.3309     1.8455   122.8800     0.2080     0.1419
  386    7.700   2056.29     0.2572     0.0057     0.1420     0.0770     0.3120     2.2208   123.2000     0.1888     0.2833
  387    7.720   2057.28     0.2512     0.0064     0.1673     0.0772     0.3188     2.5429   123.5200     0.1953     0.4283
  388    7.740   2058.30     0.2439     0.0074     0.1737     0.0774     0.3158     3.0373   123.8400     0.1919     0.4881
  389    7.760   2059.31     0.2428     0.0068     0.1915     0.0776     0.3214     2.8100   124.1600     0.1972     0.5550
  390    7.780   2060.28     0.2436     0.0054     0.1935     0.0778     0.3250     2.1924   124.4800     0.2006     0.5783
  391    7.800   2061.29     0.2480     0.0070     0.2127     0.0780     0.3343     2.8742   124.8000     0.2095     0.6087
  392    7.820   2062.27     0.2874     0.0102     0.2322     0.0782     0.3821     3.6232   125.1200     0.2570     0.5765
  393    7.840   2063.29     0.6144     0.0113     0.2262     0.0784     0.7131     2.2910   125.4400     0.5877     0.2921
  394    7.860   2064.27     1.6353     0.0117     0.1399     0.0786     1.7088     0.7889   125.7600     1.5830     0.0656
  395    7.880   2065.23     2.9050     0.0147     0.0541     0.0788     2.9398     0.5214   126.0800     2.8137     0.0020
  396    7.900   2066.26     3.7321     0.0191     0.0482     0.0790     3.7524     0.5175   126.4000     3.6260    -0.0084
  397    7.920   2067.23     4.2375     0.0244     0.0414     0.0792     4.2561     0.5823   126.7200     4.1294    -0.0084
  398    7.940   2068.25     4.5622     0.0315     0.0441     0.0794     4.5787     0.6908   127.0400     4.4517    -0.0090
  399    7.960   2069.29     4.7555     0.0378     0.0398     0.0796     4.7703     0.8016   127.3600     4.6429    -0.0096
  400    7.980   2070.31     4.9759     0.0382     0.0327     0.0798     4.9867     0.7718   127.6800     4.8590    -0.0112
  401    8.000   2071.27     5.1205     0.0394     0.0345     0.0800     5.1361     0.7721   128.0000     5.0081    -0.0086
  402    8.020   2072.24     5.4386     0.0394     0.0484     0.0802     5.4556     0.7310   128.3200     5.3273    -0.0074
  403    8.040   2073.28     5.9689     0.0361     0.0697     0.0804     5.9962     0.6090   128.6400     5.8675    -0.0027
  404    8.060   2074.26     6.4807     0.0338     0.0725     0.0806     6.5098     0.5278   128.9600     6.3809    -0.0018
  405    8.080   2075.25     6.8574     0.0333     0.0732     0.0808     6.8891     0.4897   129.2800     6.7599    -0.0008
  406    8.100   2076.30     7.1220     0.0328     0.0861     0.0810     7.1559     0.4619   129.6000     7.0263    -0.0001
  407    8.120   2077.30     7.2625     0.0349     0.0828     0.0812     7.2968     0.4851   129.9200     7.1669     0.0001
  408    8.140   2078.32     7.3711     0.0370     0.0789     0.0814     7.4052     0.5039   130.2400     7.2750     0.0000
  409    8.160   2079.30     7.4708     0.0381     0.0834     0.0816     7.5044     0.5132   130.5600     7.3738    -0.0002
  410    8.180   2080.36     7.5433     0.0394     0.0791     0.0818     7.5769     0.5221   130.8800     7.4460    -0.0003
  411    8.200   2081.35     7.5885     0.0386     0.0818     0.0820     7.6237     0.5097   131.2000     7.4925     0.0002
  412    8.220   2082.37     7.7085     0.0348     0.0776     0.0822     7.7411     0.4536   131.5200     7.6096    -0.0006
  413    8.240   2083.38     7.9338     0.0321     0.0794     0.0824     7.9667     0.4110   131.8400     7.8349    -0.0005
  414    8.260   2084.41     8.2358     0.0330     0.0514     0.0826     8.2604     0.4012   132.1600     8.1282    -0.0029
  415    8.280   2085.40     8.2594     0.0372     0.0460     0.0828     8.2796     0.4483   132.4800     8.1471    -0.0043
  416    8.300   2086.40     8.4062     0.0457     0.0263     0.0830     8.4220     0.5505   132.8000     8.2892    -0.0055
  417    8.320   2087.44     8.7020     0.0490     0.0319     0.0832     8.7134     0.5718   133.1200     8.5803    -0.0065
  418    8.340   2088.49     9.0788     0.0513     0.0453     0.0834     9.0973     0.5795   133.4400     8.9639    -0.0044
  419    8.360   2089.50     9.6838     0.0543     0.0326     0.0836     9.6964     0.5789   133.7600     9.5626    -0.0056
  420    8.380   2090.55    10.1795     0.0573     0.0570     0.0838    10.1987     0.5751   134.0800    10.0647    -0.0038
  421    8.400   2091.54    10.5357     0.0583     0.0519     0.0840    10.5608     0.5615   134.4000    10.4264    -0.0023
  422    8.420   2092.56    10.9651     0.0606     0.0340     0.0842    10.9786     0.5618   134.7200    10.8439    -0.0048
  423    8.440   2093.59    11.5617     0.0601     0.0682     0.0844    11.5868     0.5322   135.0400    11.4518    -0.0022
  424    8.460   2094.62    12.2821     0.0603     0.0751     0.0846    12.3151     0.5025   135.3600    12.1797    -0.0005
  425    8.480   2095.62    12.9417     0.0630     0.0581     0.0848    12.9687     0.4960   135.6800    12.8330    -0.0016
  426    8.500   2096.67    13.5703     0.0672     0.0433     0.0850    13.5906     0.5050   136.0000    13.4546    -0.0027
  427    8.520   2097.73    14.0940     0.0746     0.0379     0.0852    14.1070     0.5364   136.3200    13.9707    -0.0039
  428    8.540   2098.76    14.4167     0.0806     0.0592     0.0854    14.4372     0.5646   136.6400    14.3006    -0.0026
  429    8.560   2099.78    14.4259     0.0815     0.0709     0.0856    14.4535     0.5633   136.9600    14.3165    -0.0014
  430    8.580   2100.86    14.1977     0.0822     0.0689     0.0858    14.2269     0.5748   137.2800    14.0896    -0.0012
  431    8.600   2101.86    13.9202     0.0883     0.0724     0.0860    13.9504     0.6280   137.6000    13.8128    -0.0010
  432    8.620   2102.90    13.6832     0.0857     0.0863     0.0862    13.7189     0.6241   137.9200    13.5810    -0.0001
  433    8.640   2103.93    13.8893     0.0809     0.0899     0.0864    13.9266     0.5889   138.2400    13.7883     0.0002
  434    8.660   2104.98    14.4618     0.0758     0.0861     0.0866    14.4990     0.5341   138.5600    14.3604     0.0001
  435    8.680   2105.98    15.1260     0.0730     0.0696     0.0868    15.1597     0.4946   138.8800    15.0208    -0.0004
  436    8.700   2107.01    15.9353     0.0723     0.0218     0.0870    15.9534     0.4566   139.2000    15.8142    -0.0028
  437    8.720   2108.04    16.8509     0.0719    -0.0134     0.0872    16.8382     0.4306   139.5200    16.6986    -0.0070
  438    8.740   2109.13    17.6952     0.0711    -0.0008     0.0874    17.6954     0.4071   139.8400    17.5555    -0.0050
  439    8.760   2110.13    18.4430     0.0735     0.0008     0.0876    18.4445     0.4030   140.1600    18.3043    -0.0046
  440    8.780   2111.13    18.8195     0.0802    -0.0181     0.0878    18.8144     0.4286   140.4800    18.6739    -0.0054
  441    8.800   2112.09    18.9281     0.0846    -0.0141     0.0880    18.9161     0.4481   140.8000    18.7753    -0.0062
  442    8.820   2112.98    19.0512     0.0905     0.0034     0.0882    19.0514     0.4758   141.1200    18.9103    -0.0046
  443    8.840   2113.94    18.9619     0.0929     0.0192     0.0884    18.9675     0.4883   141.4400    18.8261    -0.0040
  444    8.860   2114.89    18.7605     0.0940     0.0390     0.0886    18.7740     0.4989   141.7600    18.6322    -0.0030
  445    8.880   2115.82    18.5781     0.0934     0.0515     0.0888    18.5978     0.5006   142.0800    18.4558    -0.0023
  446    8.900   2116.79    18.3378     0.0930     0.0627     0.0890    18.3631     0.5041   142.4000    18.2207    -0.0016
  447    8.920   2117.72    18.0468     0.0936     0.0723     0.0892    18.0749     0.5157   142.7200    17.9322    -0.0012
  448    8.940   2118.65    17.6815     0.0941     0.0797     0.0894    17.7141     0.5282   143.0400    17.5711    -0.0007
  449    8.960   2119.59    17.0845     0.0935     0.0784     0.0896    17.1180     0.5414   143.3600    16.9747    -0.0006
  450    8.980   2120.52    16.4996     0.0921     0.0875     0.0898    16.5355     0.5545   143.6800    16.3918    -0.0003
  451    9.000   2121.50    15.9271     0.0913     0.0865     0.0900    15.9623     0.5689   144.0000    15.8183    -0.0004
  452    9.020   2122.48    15.5693     0.0924     0.0887     0.0902    15.6066     0.5924   144.3200    15.4622    -0.0001
  453    9.040   2123.46    15.3706     0.0922     0.0890     0.0904    15.4078     0.5996   144.6400    15.2632    -0.0001
  454    9.060   2124.45    15.3065     0.0935     0.0906     0.0906    15.3442     0.6109   144.9600    15.1992    -0.0001
  455    9.080   2125.45    15.2075     0.0941     0.0913     0.0908    15.2455     0.6181   145.2800    15.1002     0.0000
  456    9.100   2126.42    14.9796     0.0949     0.0873     0.0910    15.0169     0.6281   145.6000    14.8713    -0.0001
  457    9.120   2127.44    14.5797     0.0929     0.0818     0.0912    14.6159     0.6293   145.9200    14.4700    -0.0003
  458    9.140   2128.45    14.0747     0.0881     0.0808     0.0914    14.1077     0.6178   146.2400    13.9615    -0.0009
  459    9.160   2129.49    13.4226     0.0885     0.0822     0.0916    13.4577     0.6448   146.5600    13.3112    -0.0006
  460    9.180   2130.53    12.8943     0.0878     0.0845     0.0918    12.9305     0.6645   146.8800    12.7836    -0.0005
  461    9.200   2131.55    12.4881     0.0872     0.0840     0.0920    12.5240     0.6866   147.2000    12.3768    -0.0005
  462    9.220   2132.58    12.1533     0.0851     0.0806     0.0922    12.1881     0.6958   147.5200    12.0405    -0.0008
  463    9.240   2133.59    11.7823     0.0790     0.0837     0.0924    11.8181     0.6649   147.8400    11.6702    -0.0006
  464    9.260   2134.59    11.0790     0.0742     0.0784     0.0926    11.1124     0.6534   148.1600    10.9642    -0.0012
  465    9.280   2141.97    10.1765     0.0692     0.0760     0.0928    10.2087     0.6475   148.4800    10.0602    -0.0016
  466    9.300   2155.33     9.1749     0.0661     0.0736     0.0930     9.2062     0.6178   148.8000     9.0574    -0.0022
  467    9.320   2168.70     8.1735     0.0626     0.0753     0.0932     8.2037     0.6818   149.1200     8.0546    -0.0027
  468    9.340   2171.93     7.6649     0.0576     0.0793     0.0934     7.6987     0.7472   149.4400     7.5493    -0.0017
  469    9.360   2172.90     7.0844     0.0537     0.0768     0.0936     7.1175     0.7509   149.7600     6.9677    -0.0021
  470    9.380   2173.91     6.3920     0.0498     0.0707     0.0938     6.4220     0.7688   150.0800     6.2719    -0.0036
  471    9.400   2174.93     5.6207     0.0468     0.0757     0.0940     5.6514     0.8142   150.4000     5.5010    -0.0038
  472    9.420   2175.95     4.7276     0.0461     0.0724     0.0942     4.7591     0.9339   150.7200     4.6084    -0.0042
  473    9.440   2176.94     3.8652     0.0479     0.0635     0.0944     3.8925     1.1770   151.0400     3.7415    -0.0079
  474    9.460   2177.89     3.0942     0.0508     0.0640     0.0946     3.1211     1.5775   151.3600     2.9697    -0.0104
  475    9.480   2178.89     2.3985     0.0528     0.0675     0.0948     2.4260     2.1123   151.6800     2.2743    -0.0130
  476    9.500   2179.87     1.8107     0.0508     0.0831     0.0950     1.8430     2.7006   152.0000     1.6910    -0.0106
  477    9.520   2180.86     1.4030     0.0480     0.0989     0.0952     1.4419     3.2938   152.3200     1.2896    -0.0017
  478    9.540   2181.82     1.1723     0.0444     0.1106     0.0954     1.2185     3.7214   152.6400     1.0658     0.0136
  479    9.560   2182.83     0.9976     0.0376     0.1112     0.0956     1.0439     3.6457   152.9600     0.8909     0.0166
  480    9.580   2183.84     0.8098     0.0292     0.1209     0.0958     0.8580     3.4838   153.2800     0.7047     0.0274
  481    9.600   2184.85     0.7062     0.0224     0.1389     0.0960     0.7610     3.1156   153.6000     0.6074     0.0572
  482    9.620   2185.82     0.6384     0.0159     0.1803     0.0962     0.7076     2.4388   153.9200     0.5537     0.1246
  483    9.640   2186.80     0.5762     0.0145     0.2339     0.0964     0.6663     2.4626   154.2400     0.5121     0.2313
  484    9.660   2187.78     0.5078     0.0155     0.2702     0.0966     0.6154     2.9905   154.5600     0.4609     0.3477
  485    9.680   2188.79     0.4379     0.0156     0.2923     0.0968     0.5584     3.5411   154.8800     0.4035     0.4713
  486    9.700   2189.77     0.4047     0.0157     0.3018     0.0970     0.5312     3.8452   155.2000     0.3760     0.5430
  487    9.720   2190.77     0.4051     0.0152     0.2902     0.0972     0.5283     3.7419   155.5200     0.3727     0.5257
  488    9.740   2191.75     0.4036     0.0149     0.2888     0.0974     0.5259     3.6883   155.8400     0.3700     0.5237
  489    9.760   2192.76     0.3967     0.0145     0.2972     0.0976     0.5206     3.6253   156.1600     0.3644     0.5417
  490    9.780   2193.72     0.3852     0.0145     0.3092     0.0978     0.5127     3.7458   156.4800     0.3563     0.5781
  491    9.800   2194.72     0.3730     0.0150     0.3210     0.0980     0.5052     4.0024   156.8000     0.3484     0.6220
  492    9.820   2195.71     0.3660     0.0155     0.3337     0.0982     0.5050     4.2220   157.1200     0.3479     0.6695
  493    9.840   2196.68     0.3878     0.0176     0.3416     0.0984     0.5293     4.6434   157.4400     0.3719     0.6419
  494    9.860   2197.70     0.4335     0.0194     0.3502     0.0986     0.5804     4.5689   157.7600     0.4227     0.5949
  495    9.880   2198.67     0.4953     0.0201     0.3278     0.0988     0.6397     4.1847   158.0800     0.4816     0.5097
  496    9.900   2199.67     0.5583     0.0207     0.3209     0.0990     0.6910     3.7621   158.4000     0.5326     0.4075
  497    9.920   2200.60     0.5804     0.0204     0.3223     0.0992     0.7166     3.5337   158.7200     0.5579     0.4034
  498    9.940   2201.61     0.5724     0.0218     0.3302     0.0994     0.7101     3.7951   159.0400     0.5510     0.4144
  499    9.960   2202.63     0.5883     0.0222     0.3451     0.0996     0.7330     3.7875   159.3600     0.5736     0.4267
  500    9.980   2203.59     0.5959     0.0202     0.3468     0.0998     0.7431     3.4044   159.6800     0.5834     0.4296
  501   10.000   2204.59     0.5971     0.0185     0.3477     0.1000     0.7413     3.1321   160.0000     0.5813     0.4183
  502   10.020   2205.59     0.6160     0.0182     0.3590     0.1002     0.7658     2.9826   160.3200     0.6055     0.4238
  503   10.040   2206.57     0.6065     0.0169     0.3878     0.1004     0.7639     2.7728   160.6400     0.6033     0.4549
  504   10.060   2207.52     0.6118     0.0168     0.4274     0.1006     0.7855     2.7616   160.9600     0.6246     0.5013
  505   10.080   2208.52     0.6213     0.0172     0.4339     0.1008     0.8063     2.7846   161.2800     0.6451     0.5266
  506   10.100   2209.50     0.7378     0.0164     0.4145     0.1010     0.9129     2.2869   161.6000     0.7513     0.4213
  507   10.120   2210.52     0.7288     0.0176     0.4158     0.1012     0.9028     2.4020   161.9200     0.7409     0.4226
  508   10.140   2211.50     0.7469     0.0187     0.4016     0.1014     0.9185     2.5111   162.2400     0.7562     0.4062
  509   10.160   2212.50     0.8095     0.0183     0.4096     0.1016     0.9784     2.2530   162.5600     0.8158     0.3683
  510   10.180   2213.50     0.7491     0.0193     0.4226     0.1018     0.9264     2.5682   162.8800     0.7635     0.4194
  511   10.200   2214.49     0.7436     0.0206     0.4329     0.1020     0.9256     2.7807   163.2000     0.7624     0.4346
  512   10.220   2215.48     0.7533     0.0210     0.4352     0.1022     0.9355     2.7578   163.5200     0.7720     0.4295
  513   10.240   2216.47     0.7231     0.0210     0.4563     0.1024     0.9097     2.8842   163.8400     0.7458     0.4584
  514   10.260   2217.50     0.7060     0.0205     0.4758     0.1026     0.9044     2.8968   164.1600     0.7403     0.4997
  515   10.280   2218.47     0.6888     0.0206     0.4806     0.1028     0.8894     2.9804   164.4800     0.7249     0.5172
  516   10.300   2219.45     0.6883     0.0204     0.5095     0.1030     0.8991     2.9579   164.8000     0.7343     0.5431
  517   10.320   2220.45     0.7141     0.0201     0.5001     0.1032     0.9261     2.8363   165.1200     0.7610     0.5278
  518   10.340   2221.42     0.6870     0.0203     0.4813     0.1034     0.8903     2.9325   165.4400     0.7249     0.5251
  519   10.360   2222.47     0.6458     0.0191     0.4714     0.1036     0.8481     2.9407   165.7600     0.6823     0.5540
  520   10.380   2223.44     0.6862     0.0180     0.4579     0.1038     0.8779     2.6235   166.0800     0.7119     0.4954
  521   10.400   2224.44     0.6818     0.0175     0.4756     0.1040     0.8793     2.5584   166.4000     0.7129     0.5136
  522   10.420   2225.43     0.6647     0.0152     0.4842     0.1042     0.8674     2.2876   166.7200     0.7006     0.5399
  523   10.440   2226.39     0.6663     0.0148     0.4745     0.1044     0.8682     2.2177   167.0400     0.7011     0.5368
  524   10.460   2227.38     0.6890     0.0159     0.4783     0.1046     0.8870     2.3293   167.3600     0.7197     0.5099
  525   10.480   2228.38     0.7550     0.0155     0.4656     0.1048     0.9536     2.0899   167.6800     0.7859     0.4686
  526   10.500   2229.36     0.8780     0.0159     0.4764     0.1050     1.0752     1.8293   168.0000     0.9072     0.4018
  527   10.520   2230.35     1.0568     0.0170     0.4098     0.1052     1.2428     1.6551   168.3200     1.0744     0.3151
  528   10.540   2231.36     1.1007     0.0180     0.3904     0.1054     1.2595     1.6205   168.6400     1.0909     0.2502
  529   10.560   2232.35     1.0710     0.0204     0.4063     0.1056     1.2404     1.8912   168.9600     1.0714     0.2779
  530   10.580   2233.38     1.0582     0.0217     0.3915     0.1058     1.2264     2.0613   169.2800     1.0571     0.2790
  531   10.600   2234.36     1.0990     0.0229     0.3757     0.1060     1.2584     2.1027   169.6000     1.0888     0.2514
  532   10.620   2235.34     1.0864     0.0217     0.3870     0.1062     1.2480     1.9726   169.9200     1.0781     0.2586
  533   10.640   2236.31     0.9887     0.0225     0.3903     0.1064     1.1515     2.2601   170.2400     0.9812     0.2866
  534   10.660   2237.33     0.9468     0.0226     0.4316     0.1066     1.1187     2.3859   170.5600     0.9481     0.3191
  535   10.680   2238.30     0.9246     0.0217     0.4607     0.1068     1.1135     2.3338   170.8800     0.9427     0.3639
  536   10.700   2239.29     0.9119     0.0216     0.4904     0.1070     1.1144     2.3708   171.2000     0.9432     0.3975
  537   10.720   2240.29     0.9277     0.0190     0.4759     0.1072     1.1297     2.0435   171.5200     0.9582     0.3901
  538   10.740   2241.26     0.9238     0.0197     0.4932     0.1074     1.1277     2.1381   171.8400     0.9558     0.3954
  539   10.760   2242.30     0.9618     0.0279     0.5064     0.1076     1.1731     2.9336   172.1600     1.0010     0.3956
  540   10.780   2243.30     1.3171     0.0346     0.5195     0.1078     1.5357     2.8823   172.4800     1.3632     0.3096
  541   10.800   2244.32     2.0510     0.0393     0.4156     0.1080     2.2489     1.9943   172.8000     2.0761     0.1765
  542   10.820   2245.32     2.4951     0.0404     0.2025     0.1082     2.6077     1.6699   173.1200     2.4345     0.0664
  543   10.840   2246.28     2.2369     0.0388     0.1671     0.1084     2.3108     1.6965   173.4400     2.1374     0.0315
  544   10.860   2247.29     1.9972     0.0404     0.2153     0.1086     2.0723     2.0296   173.7600     1.8985     0.0366
  545   10.880   2248.29     2.2542     0.0425     0.2658     0.1088     2.3598     1.9078   174.0800     2.1857     0.0652
  546   10.900   2249.30     2.9049     0.0434     0.2818     0.1090     3.0214     1.5355   174.4000     2.8470     0.0593
  547   10.920   2250.27     3.6391     0.0463     0.2343     0.1092     3.7448     1.3188   174.7200     3.5701     0.0402
  548   10.940   2251.31     4.4642     0.0514     0.1489     0.1094     4.5405     1.2153   175.0400     4.3655     0.0168
  549   10.960   2252.34     5.2734     0.0566     0.0457     0.1096     5.3081     1.1118   175.3600     5.1328    -0.0051
  550   10.980   2253.34     5.9382     0.0586    -0.0181     0.1098     5.9347     1.0036   175.6800     5.7590    -0.0205
  551   11.000   2254.33     6.4947     0.0525    -0.0762     0.1100     6.4728     0.8135   176.0000     6.2968    -0.0257
  552   11.020   2255.96     7.0219     0.0468    -0.1125     0.1102     6.9816     0.6808   176.3200     6.8053    -0.0301
  553   11.040   2259.96     7.6986     0.0418    -0.1602     0.1104     7.6382     0.6079   176.6400     7.4616    -0.0334
  554   11.060   2263.96     8.3752     0.0395    -0.2078     0.1106     8.2948     0.5749   176.9600     8.1179    -0.0367
  555   11.080   2267.32     9.0151     0.0459    -0.2472     0.1108     8.9156     0.5937   177.2800     8.7383    -0.0398
  556   11.100   2268.33     9.3591     0.0534    -0.2415     0.1110     9.2562     0.5776   177.6000     9.0786    -0.0392
  557   11.120   2269.36     9.4274     0.0570    -0.2461     0.1112     9.3258     0.6035   177.9200     9.1479    -0.0386
  558   11.140   2270.39     9.3439     0.0637    -0.2531     0.1114     9.2382     0.6799   178.2400     9.0600    -0.0401
  559   11.160   2271.40     9.3013     0.0704    -0.2545     0.1116     9.1942     0.7551   178.5600     9.0156    -0.0407
  560   11.180   2272.43     9.4599     0.0722    -0.2451     0.1118     9.3553     0.7708   178.8800     9.1765    -0.0393
  561   11.200   2273.45     9.4966     0.0705    -0.2318     0.1120     9.3976     0.7504   179.2000     9.2184    -0.0377
  562   11.220   2274.47     8.9177     0.0726    -0.2215     0.1122     8.8226     0.8110   179.5200     8.6431    -0.0392
  563   11.240   2275.47     8.4013     0.0745    -0.2099     0.1124     8.3116     0.8695   179.8400     8.1318    -0.0401
  564   11.260   2276.48     7.7684     0.0726    -0.1936     0.1126     7.6845     0.9034   180.1600     7.5043    -0.0416
  565   11.280   2277.49     7.4302     0.0723    -0.1729     0.1128     7.3543     0.9700   180.4800     7.1738    -0.0409
  566   11.300   2278.50     7.1866     0.0701    -0.1323     0.1130     7.1201     0.9644   180.8000     6.9393    -0.0391
  567   11.320   2298.33     7.1243     0.0678    -0.0359     0.1132     7.0952     0.9470   181.1200     6.9141    -0.0264
  568   11.340   2320.15     7.0802     0.0650     0.0600     0.1134     7.0916     0.9099   181.4400     6.9102    -0.0125
  569   11.360   2328.23     6.9714     0.0622     0.0539     0.1136     6.9959     0.8917   181.7600     6.8141    -0.0081
  570   11.380   2329.22     6.8294     0.0584     0.0496     0.1138     6.8505     0.8497   182.0800     6.6684    -0.0096
  571   11.400   2330.28     6.7669     0.0558     0.0325     0.1140     6.7836     0.8234   182.4000     6.6012    -0.0112
  572   11.420   2331.29     6.7436     0.0537     0.0102     0.1142     6.7517     0.7965   182.7200     6.5690    -0.0144
  573   11.440   2332.29     6.8132     0.0510    -0.0035     0.1144     6.8119     0.7495   183.0400     6.6289    -0.0177
  574   11.460   2333.29     6.9004     0.0519    -0.0248     0.1146     6.8951     0.7551   183.3600     6.7117    -0.0190
  575   11.480   2334.29     6.9151     0.0537    -0.0286     0.1148     6.9027     0.7760   183.6800     6.7190    -0.0215
  576   11.500   2335.32     6.8568     0.0541    -0.0207     0.1150     6.8466     0.7883   184.0000     6.6626    -0.0209
  577   11.520   2336.31     6.7602     0.0568    -0.0120     0.1152     6.7535     0.8389   184.3200     6.5692    -0.0199
  578   11.540   2337.32     6.6746     0.0603    -0.0015     0.1154     6.6716     0.8985   184.6400     6.4870    -0.0189
  579   11.560   2338.32     6.6527     0.0582     0.0168     0.1156     6.6571     0.8759   184.9600     6.4722    -0.0162
  580   11.580   2339.36     6.7601     0.0561     0.0207     0.1158     6.7690     0.8339   185.2800     6.5837    -0.0144
  581   11.600   2340.37     6.9139     0.0555    -0.0130     0.1160     6.9152     0.8076   185.6000     6.7296    -0.0168
  582   11.620   2341.36     7.0350     0.0559    -0.0558     0.1162     7.0183     0.8013   185.9200     6.8324    -0.0228
  583   11.640   2342.38     7.2163     0.0543    -0.0880     0.1164     7.1830     0.7639   186.2400     6.9968    -0.0280
  584   11.660   2343.37     7.3568     0.0505    -0.0886     0.1166     7.3187     0.6976   186.5600     7.1322    -0.0290
  585   11.680   2344.43     7.5162     0.0468    -0.0988     0.1168     7.4767     0.6312   186.8800     7.2898    -0.0289
  586   11.700   2345.47     7.7709     0.0436    -0.1202     0.1170     7.7235     0.5693   187.2000     7.5363    -0.0305
  587   11.720   2346.50     8.0419     0.0426    -0.1524     0.1172     7.9831     0.5384   187.5200     7.7956    -0.0330
  588   11.740   2347.50     8.3480     0.0422    -0.1771     0.1174     8.2717     0.5149   187.8400     8.0838    -0.0370
  589   11.760   2351.80     8.4404     0.0431    -0.1413     0.1176     8.3759     0.5148   188.1600     8.1877    -0.0332
  590   11.780   2356.39     8.5102     0.0481    -0.1055     0.1178     8.4607     0.5738   188.4800     8.2722    -0.0286
  591   11.800   2360.99     8.5800     0.0535    -0.0885     0.1180     8.5456     0.6381   188.8000     8.3568    -0.0239
  592   11.820   2362.15     8.2711     0.0563    -0.0890     0.1182     8.2339     0.6795   189.1200     8.0448    -0.0257
  593   11.840   2363.15     7.8679     0.0553    -0.0973     0.1184     7.8289     0.6850   189.4400     7.6394    -0.0276
  594   11.860   2364.16     7.5090     0.0569    -0.0861     0.1186     7.4695     0.7558   189.7600     7.2797    -0.0292
  595   11.880   2365.16     7.2645     0.0569    -0.0677     0.1188     7.2325     0.7818   190.0800     7.0424    -0.0277
  596   11.900   2366.18     7.0993     0.0551    -0.0433     0.1190     7.0777     0.7738   190.4000     6.8873    -0.0247
  597   11.920   2367.19     6.9543     0.0554    -0.0283     0.1192     6.9414     0.7960   190.7200     6.7507    -0.0222
  598   11.940   2368.23     6.7153     0.0560    -0.0130     0.1194     6.7070     0.8295   191.0400     6.5160    -0.0214
  599   11.960   2369.22     6.4262     0.0586     0.0026     0.1196     6.4246     0.9076   191.3600     6.2332    -0.0198
  600   11.980   2370.20     6.1847     0.0590    -0.0014     0.1198     6.1854     0.9496   191.6800     5.9937    -0.0197
  601   12.000   2371.18     5.9692     0.0568     0.0006     0.1200     5.9701     0.9356   192.0000     5.7781    -0.0204
  602   12.020   2372.18     5.8081     0.0554     0.0154     0.1202     5.8146     0.9533   192.3200     5.6223    -0.0186
  603   12.040   2373.22     5.7797     0.0527     0.0125     0.1204     5.7854     0.9114   192.6400     5.5928    -0.0191
  604   12.060   2374.22     5.7943     0.0487    -0.0304     0.1206     5.7878     0.8422   192.9600     5.5948    -0.0243
  605   12.080   2375.28     5.8442     0.0450    -0.0584     0.1208     5.8229     0.7722   193.2800     5.6296    -0.0305
  606   12.100   2376.30     5.9846     0.0458    -0.0443     0.1210     5.9640     0.7655   193.6000     5.7704    -0.0295
  607   12.120   2377.28     6.1217     0.0484    -0.0392     0.1212     6.1044     0.8001   193.9200     5.9105    -0.0275
  608   12.140   2378.27     6.1728     0.0531    -0.0456     0.1214     6.1552     0.8615   194.2400     5.9610    -0.0274
  609   12.160   2379.29     6.1489     0.0557    -0.0406     0.1216     6.1303     0.9027   194.5600     5.9358    -0.0280
  610   12.180   2380.32     6.1561     0.0522    -0.0118     0.1218     6.1472     0.8488   194.8800     5.9524    -0.0240
  611   12.200   2381.34     6.2472     0.0509    -0.0065     0.1220     6.2450     0.8213   195.2000     6.0498    -0.0210
  612   12.220   2382.36     6.3930     0.0515    -0.0272     0.1222     6.3849     0.8106   195.5200     6.1894    -0.0229
  613   12.240   2383.36     6.5708     0.0547    -0.0402     0.1224     6.5555     0.8402   195.8400     6.3597    -0.0250
  614   12.260   2384.39     6.6002     0.0618    -0.0666     0.1226     6.5762     0.9378   196.1600     6.3800    -0.0282
  615   12.280   2385.44     6.5000     0.0625    -0.0654     0.1228     6.4730     0.9523   196.4800     6.2765    -0.0298
  616   12.300   2386.47     6.4762     0.0615    -0.0719     0.1230     6.4466     0.9530   196.8000     6.2498    -0.0309
  617   12.320   2387.49     6.6615     0.0610    -0.0788     0.1232     6.6304     0.9269   197.1200     6.4333    -0.0306
  618   12.340   2388.51     6.9123     0.0581    -0.0870     0.1234     6.8762     0.8554   197.4400     6.6787    -0.0314
  619   12.360   2389.51     7.2793     0.0482    -0.1242     0.1236     7.2328     0.6668   197.7600     7.0350    -0.0333
  620   12.380   2390.54     7.5572     0.0399    -0.1589     0.1238     7.4961     0.5299   198.0800     7.2980    -0.0369
  621   12.400   2391.57     7.6662     0.0399    -0.1992     0.1240     7.5892     0.5224   198.4000     7.3908    -0.0416
  622   12.420   2392.58     7.7315     0.0382    -0.2155     0.1242     7.6412     0.4963   198.7200     7.4424    -0.0456
  623   12.440   2393.64     7.8723     0.0387    -0.2248     0.1244     7.7803     0.4924   199.0400     7.5812    -0.0453
  624   12.460   2394.65     7.9037     0.0458    -0.2304     0.1246     7.8071     0.5795   199.3600     7.6078    -0.0466
  625   12.480   2395.66     7.8376     0.0533    -0.2273     0.1248     7.7412     0.6800   199.6800     7.5415    -0.0470
  626   12.500   2396.70     7.7901     0.0624    -0.2314     0.1250     7.6943     0.8001   200.0000     7.4943    -0.0471
  627   12.520   2397.69     7.6399     0.0704    -0.2290     0.1252     7.5433     0.9204   200.3200     7.3429    -0.0484
  628   12.540   2398.69     7.3876     0.0772    -0.2235     0.1254     7.2929     1.0428   200.6400     7.0923    -0.0495
  629   12.560   2399.67     7.1413     0.0846    -0.2159     0.1256     7.0490     1.1837   200.9600     6.8481    -0.0504
  630   12.580   2400.70     6.8837     0.0937    -0.2040     0.1258     6.7958     1.3584   201.2800     6.5945    -0.0508
  631   12.600   2401.75     6.4785     0.1029    -0.1844     0.1260     6.3984     1.5782   201.6000     6.1968    -0.0511
  632   12.620   2402.74     5.9286     0.1135    -0.1677     0.1262     5.8558     1.8751   201.9200     5.6539    -0.0530
  633   12.640   2403.74     5.1825     0.1180    -0.1406     0.1264     5.1193     2.2274   202.2400     4.9170    -0.0563
  634   12.660   2404.73     4.3506     0.1029    -0.1135     0.1266     4.2990     2.3103   202.5600     4.0964    -0.0609
  635   12.680   2405.77     3.7306     0.0877    -0.0660     0.1268     3.6949     2.2259   202.8800     3.4920    -0.0606
  636   12.700   2406.79     3.7186     0.0751     0.0781     0.1270     3.7206     2.0743   203.2000     3.5174    -0.0353
  637   12.720   2407.79     4.2299     0.0664     0.1644     0.1272     4.3014     1.6039   203.5200     4.0979     0.0105
  638   12.740   2408.81     4.9542     0.0611     0.0914     0.1274     4.9994     1.3505   203.8400     4.7956    -0.0040
  639   12.760   2409.84     5.6983     0.0602    -0.0547     0.1276     5.7087     1.0799   204.1600     5.5046    -0.0184
  640   12.780   2410.85     5.9503     0.0561    -0.0795     0.1278     5.9180     0.9432   204.4800     5.7135    -0.0358
  641   12.800   2411.89     5.8769     0.0561    -0.0953     0.1280     5.8396     0.9451   204.8000     5.6348    -0.0385
  642   12.820   2412.90     5.6675     0.0539    -0.1062     0.1282     5.6238     0.9483   205.1200     5.4187    -0.0429
  643   12.840   2413.95     5.3931     0.0557    -0.0997     0.1284     5.3496     1.0284   205.4400     5.1442    -0.0451
  644   12.860   2414.94     5.4448     0.0528    -0.0683     0.1286     5.4086     0.9718   205.7600     5.2028    -0.0413
  645   12.880   2415.95     5.8044     0.0492    -0.0329     0.1288     5.7917     0.8523   206.0800     5.5856    -0.0285
  646   12.900   2416.97     5.9093     0.0465    -0.1368     0.1290     5.8629     0.7853   206.4000     5.6565    -0.0424
  647   12.920   2417.96     5.6246     0.0499    -0.1453     0.1292     5.5663     0.8837   206.7200     5.3596    -0.0500
  648   12.940   2418.96     5.3360     0.0593    -0.1651     0.1294     5.2678     1.0958   207.0400     5.0608    -0.0576
  649   12.960   2419.95     4.9695     0.0616    -0.1668     0.1296     4.8997     1.2358   207.3600     4.6924    -0.0631
  650   12.980   2420.97     4.5921     0.0614    -0.1617     0.1298     4.5219     1.2987   207.6800     4.3142    -0.0689
  651   13.000   2422.00     4.0926     0.0565    -0.1233     0.1300     4.0333     1.3637   208.0000     3.8253    -0.0709
  652   13.020   2423.01     3.8026     0.0465    -0.0843     0.1302     3.7636     1.1810   208.3200     3.5553    -0.0627
  653   13.040   2424.00     3.8303     0.0423    -0.1089     0.1304     3.7896     1.1045   208.6400     3.5809    -0.0635
  654   13.060   2425.04     4.2588     0.0376    -0.1013     0.1306     4.2121     0.9042   208.9600     4.0032    -0.0604
  655   13.080   2426.07     5.0415     0.0384    -0.0883     0.1308     5.0064     0.7724   209.2800     4.7971    -0.0447
  656   13.100   2427.08     5.2864     0.0430    -0.1060     0.1310     5.2427     0.8140   209.6000     5.0331    -0.0467
  657   13.120   2428.07     4.8751     0.0450    -0.1255     0.1312     4.8247     0.9130   209.9200     4.6148    -0.0544
  658   13.140   2429.05     4.5013     0.0459    -0.1242     0.1314     4.4480     0.9944   210.2400     4.2377    -0.0610
  659   13.160   2430.04     4.3492     0.0468    -0.1084     0.1316     4.3023     1.0700   210.5600     4.0917    -0.0595
  660   13.180   2431.05     4.5146     0.0444    -0.0989     0.1318     4.4710     0.9865   210.8800     4.2601    -0.0553
  661   13.200   2432.09     4.9356     0.0451    -0.0718     0.1320     4.9002     0.9227   211.2000     4.6890    -0.0461
  662   13.220   2433.10     5.2130     0.0517    -0.0793     0.1322     5.1856     1.0114   211.5200     4.9741    -0.0397
  663   13.240   2445.52     4.9812     0.0614    -0.0356     0.1324     4.9579     1.1847   211.8400     4.7461    -0.0390
  664   13.260   2468.37     4.5968     0.0678     0.0218     0.1326     4.5976     1.3082   212.1600     4.3855    -0.0293
  665   13.280   2478.65     4.1646     0.0653     0.0309     0.1328     4.1765     1.5600   212.4800     3.9640    -0.0264
  666   13.300   2479.67     3.8371     0.0635     0.0697     0.1330     3.8554     1.6526   212.8000     3.6426    -0.0246
  667   13.320   2480.66     3.8806     0.0607     0.0884     0.1332     3.9308     1.5872   213.1200     3.7177    -0.0036
  668   13.340   2481.65     4.3528     0.0576    -0.0101     0.1334     4.3626     1.3486   213.4400     4.1491    -0.0264
  669   13.360   2482.65     4.7339     0.0559    -0.0884     0.1336     4.7020     1.1873   213.7600     4.4882    -0.0467
  670   13.380   2483.66     4.7945     0.0514    -0.0956     0.1338     4.7556     1.0737   214.0800     4.5415    -0.0498
  671   13.400   2484.66     4.9791     0.0525    -0.0732     0.1340     4.9435     1.0663   214.4000     4.7291    -0.0463
  672   13.420   2485.70     5.1694     0.0565    -0.1070     0.1342     5.1347     1.0978   214.7200     4.9200    -0.0440
  673   13.440   2486.68     5.2117     0.0691    -0.1609     0.1344     5.1513     1.3251   215.0400     4.9362    -0.0564
  674   13.460   2487.69     4.9138     0.0783    -0.1721     0.1346     4.8409     1.5661   215.3600     4.6256    -0.0666
  675   13.480   2488.65     4.2329     0.0591    -0.1719     0.1348     4.1598     1.3749   215.6800     3.9441    -0.0784
  676   13.500   2489.63     3.6203     0.0613    -0.1576     0.1350     3.5506     1.6823   216.0000     3.3346    -0.0902
  677   13.520   2490.64     3.1010     0.0680    -0.1313     0.1352     3.0456     2.1830   216.3200     2.8293    -0.0944
  678   13.540   2491.61     3.0743     0.0667    -0.1195     0.1354     3.0186     2.1800   216.6400     2.8020    -0.0956
  679   13.560   2492.66     3.3694     0.0650    -0.1003     0.1356     3.3248     1.9519   216.9600     3.1078    -0.0778
  680   13.580   2493.67     3.4019     0.0615    -0.1040     0.1358     3.3555     1.8065   217.2800     3.1383    -0.0785
  681   13.600   2494.69     3.3797     0.0513    -0.0620     0.1360     3.3508     1.5125   217.6000     3.1332    -0.0654
  682   13.620   2495.65     3.1178     0.0434    -0.0809     0.1362     3.0856     1.3739   217.9200     2.8677    -0.0743
  683   13.640   2496.65     2.5948     0.0428    -0.0172     0.1364     2.5742     1.6373   218.2400     2.3559    -0.0787
  684   13.660   2497.63     2.1395     0.0375     0.0804     0.1366     2.1614     1.7475   218.5600     1.9429    -0.0434
  685   13.680   2498.63     2.5153     0.0370     0.1245     0.1368     2.5548     1.5037   218.8800     2.3359    -0.0187
  686   13.700   2499.68     4.3205     0.0415     0.1742     0.1370     4.3993     1.0273   219.2000     4.1801     0.0123
  687   13.720   2500.67     5.6866     0.0475    -0.0251     0.1372     5.7016     0.8450   219.5200     5.4821    -0.0185
  688   13.740   2501.69     5.6468     0.0630    -0.0756     0.1374     5.6190     1.1045   219.8400     5.3991    -0.0378
  689   13.760   2502.68     5.0317     0.0919    -0.0857     0.1376     4.9970     1.8023   220.1600     4.7769    -0.0461
  690   13.780   2503.69     4.1297     0.0984    -0.0938     0.1378     4.0928     2.3121   220.4800     3.8723    -0.0585
  691   13.800   2504.69     3.2092     0.0953    -0.0907     0.1380     3.1694     2.8355   220.8000     2.9486    -0.0791
  692   13.820   2505.70     2.4807     0.0814    -0.0600     0.1382     2.4493     3.1900   221.1200     2.2282    -0.0956
  693   13.840   2506.68     2.0310     0.0655     0.1454     0.1384     2.0462     3.1152   221.4400     1.8248    -0.0549
  694   13.860   2507.66     1.4277     0.0528     0.1304     0.1386     1.4802     3.5373   221.7600     1.2585    -0.0106
  695   13.880   2508.66     1.1127     0.0497     0.3624     0.1388     1.2364     4.3595   222.0800     1.0144     0.1538
  696   13.900   2509.63     1.0920     0.0358     0.4971     0.1390     1.2834     3.3317   222.4000     1.0610     0.2981
  697   13.920   2510.67     1.4348     0.0283     0.5634     0.1392     1.6703     2.1238   222.7200     1.4476     0.2922
  698   13.940   2511.65     1.8916     0.0268     0.4675     0.1394     2.1186     1.4796   223.0400     1.8956     0.2115
  699   13.960   2512.67     1.8019     0.0268     0.3806     0.1396     1.9491     1.4518   223.3600     1.7257     0.1226
  700   13.980   2513.63     1.5066     0.0292     0.3971     0.1398     1.6741     1.8766   223.6800     1.4504     0.1786
  701   14.000   2514.63     1.3334     0.0290     0.4813     0.1400     1.5143     2.1566   224.0000     1.2903     0.2253
  702   14.020   2515.61     1.3042     0.0248     0.5664     0.1402     1.5429     1.9010   224.3200     1.3186     0.3247
  703   14.040   2516.58     1.3880     0.0198     0.5877     0.1404     1.6331     1.4341   224.6400     1.4085     0.3146
  704   14.060   2517.59     1.3373     0.0172     0.5110     0.1406     1.5566     1.2838   224.9600     1.3316     0.2865
  705   14.080   2518.59     1.2913     0.0128     0.5373     0.1408     1.5113     0.9832   225.2800     1.2860     0.2978
  706   14.100   2519.62     1.1899     0.0117     0.5903     0.1410     1.4324     0.9802   225.6000     1.2068     0.3617
  707   14.120   2520.60     1.1813     0.0162     0.6391     0.1412     1.4412     1.3783   225.9200     1.2153     0.3930
  708   14.140   2521.57     1.5817     0.0261     0.6726     0.1414     1.8615     1.7463   226.2400     1.6352     0.3211
  709   14.160   2522.60     2.7228     0.0436     0.5766     0.1416     2.9965     1.6770   226.5600     2.7700     0.1843
  710   14.180   2523.64     3.5571     0.0573     0.1536     0.1418     3.6758     1.6509   226.8800     3.4489     0.0408
  711   14.200   2524.64     3.5000     0.0591     0.0282     0.1420     3.5190     1.6692   227.2000     3.2918    -0.0294
  712   14.220   2525.61     2.8940     0.0593     0.0425     0.1422     2.9064     1.9817   227.5200     2.6789    -0.0421
  713   14.240   2526.60     2.2905     0.0602     0.1379     0.1424     2.3329     2.5691   227.8400     2.1051    -0.0195
  714   14.260   2527.62     1.6010     0.0566     0.1437     0.1426     1.6564     3.3139   228.1600     1.4283    -0.0074
  715   14.280   2528.60     1.2271     0.0474     0.2953     0.1428     1.3223     3.7212   228.4800     1.0938     0.0770
  716   14.300   2529.57     1.0936     0.0289     0.4133     0.1430     1.2552     2.6092   228.8000     1.0264     0.2355
  717   14.320   2530.58     1.0814     0.0195     0.4864     0.1432     1.2771     1.8048   229.1200     1.0480     0.3080
  718   14.340   2531.58     1.0745     0.0177     0.5483     0.1434     1.3007     1.6384   229.4400     1.0713     0.3688
  719   14.360   2532.57     1.0770     0.0198     0.5893     0.1436     1.3188     1.8431   229.7600     1.0890     0.3967
  720   14.380   2533.58     1.2119     0.0228     0.6123     0.1438     1.4687     1.9203   230.0800     1.2386     0.3775
  721   14.400   2534.54     1.3965     0.0268     0.5974     0.1440     1.6476     1.9501   230.4000     1.4172     0.3204
  722   14.420   2535.57     1.5481     0.0281     0.5519     0.1442     1.7886     1.8312   230.7200     1.5579     0.2751
  723   14.440   2536.53     1.6305     0.0284     0.5073     0.1444     1.8549     1.7435   231.0400     1.6238     0.2401
  724   14.460   2537.55     1.4038     0.0284     0.4294     0.1446     1.5860     1.9695   231.3600     1.3546     0.2133
  725   14.480   2538.55     1.1688     0.0270     0.4758     0.1448     1.3580     2.2308   231.6800     1.1263     0.2718
  726   14.500   2539.53     1.0527     0.0248     0.5590     0.1450     1.2727     2.3415   232.0000     1.0407     0.3640
  727   14.520   2540.53     1.0215     0.0206     0.6262     0.1452     1.2787     2.0184   232.3200     1.0464     0.4465
  728   14.540   2541.56     1.0266     0.0177     0.6699     0.1454     1.3051     1.7221   232.6400     1.0725     0.4826
  729   14.560   2542.54     1.0105     0.0135     0.6853     0.1456     1.2951     1.3333   232.9600     1.0622     0.5011
  730   14.580   2543.49     1.0103     0.0189     0.7127     0.1458     1.3060     1.8705   233.2800     1.0727     0.5202
  731   14.600   2544.50     1.0362     0.0261     0.7454     0.1460     1.3446     2.5323   233.6000     1.1110     0.5296
  732   14.620   2545.51     1.2241     0.0273     0.7678     0.1462     1.5452     2.2901   233.9200     1.3113     0.4723
  733   14.640   2546.50     1.5491     0.0272     0.6640     0.1464     1.8552     1.8001   234.2400     1.6210     0.3606
  734   14.660   2547.53     1.7118     0.0276     0.4166     0.1466     1.9040     1.6116   234.5600     1.6695     0.1859
  735   14.680   2548.51     1.5486     0.0283     0.4087     0.1468     1.7223     1.7948   234.8800     1.4875     0.1798
  736   14.700   2549.52     1.2361     0.0292     0.4880     0.1470     1.4208     2.2937   235.2000     1.1856     0.2482
  737   14.720   2550.51     1.0688     0.0272     0.6088     0.1472     1.3094     2.5190   235.5200     1.0739     0.3967
  738   14.740   2551.52     1.0155     0.0208     0.6804     0.1474     1.2937     2.0327   235.8400     1.0578     0.4868
  739   14.760   2552.48     1.0120     0.0186     0.7161     0.1476     1.3076     1.8442   236.1600     1.0714     0.5192
  740   14.780   2553.50     1.0253     0.0198     0.7522     0.1478     1.3365     1.9378   236.4800     1.1000     0.5391
  741   14.800   2554.48     1.0694     0.0218     0.7692     0.1480     1.3919     2.0568   236.8000     1.1551     0.5367
  742   14.820   2555.51     1.0597     0.0221     0.7671     0.1482     1.3831     2.0720   237.1200     1.1459     0.5425
  743   14.840   2556.47     1.0856     0.0226     0.7260     0.1484     1.3976     2.0991   237.4400     1.1601     0.5125
  744   14.860   2557.47     1.0638     0.0237     0.7272     0.1486     1.3669     2.2088   237.7600     1.1292     0.5077
  745   14.880   2558.46     1.0439     0.0235     0.7674     0.1488     1.3598     2.2430   238.0800     1.1217     0.5379
  746   14.900   2559.43     1.0296     0.0239     0.7957     0.1490     1.3596     2.3170   238.4000     1.1212     0.5680
  747   14.920   2560.46     1.0236     0.0223     0.8153     0.1492     1.3638     2.1830   238.7200     1.1250     0.5873
  748   14.940   2561.44     1.0272     0.0224     0.8252     0.1494     1.3736     2.1813   239.0400     1.1345     0.5952
  749   14.960   2562.45     1.0279     0.0225     0.8307     0.1496     1.3749     2.1907   239.3600     1.1356     0.5959
  750   14.980   2563.42     1.0310     0.0233     0.8476     0.1498     1.3844     2.2679   239.6800     1.1447     0.6043
  751   15.000   2564.43     1.0286     0.0241     0.8475     0.1500     1.3857     2.3440   240.0000     1.1457     0.6112
  752   15.020   2565.42     1.0394     0.0241     0.8433     0.1502     1.3937     2.3226   240.3200     1.1534     0.6012
  753   15.040   2566.42     1.0543     0.0242     0.8549     0.1504     1.4118     2.2968   240.6400     1.1712     0.5984
  754   15.060   2567.41     1.0605     0.0244     0.8536     0.1506     1.4191     2.3029   240.9600     1.1782     0.5969
  755   15.080   2568.41     1.0538     0.0246     0.8490     0.1508     1.4112     2.3309   241.2800     1.1699     0.5985
  756   15.100   2569.41     1.0530     0.0246     0.8541     0.1510     1.4106     2.3401   241.6000     1.1690     0.5993
  757   15.120   2570.39     1.0591     0.0247     0.8630     0.1512     1.4203     2.3369   241.9200     1.1784     0.6015
  758   15.140   2571.42     1.0564     0.0244     0.8658     0.1514     1.4191     2.3166   242.2400     1.1769     0.6052
  759   15.160   2572.39     1.0666     0.0255     0.8713     0.1516     1.4319     2.3908   242.5600     1.1894     0.6039
  760   15.180   2573.36     1.0807     0.0262     0.8808     0.1518     1.4497     2.4466   242.8800     1.2068     0.6022
  761   15.200   2574.37     1.0838     0.0269     0.8768     0.1520     1.4519     2.4864   243.2000     1.2087     0.5994
  762   15.220   2575.39     1.0899     0.0276     0.8801     0.1522     1.4601     2.5236   243.5200     1.2166     0.5994
  763   15.240   2576.42     1.1126     0.0281     0.8728     0.1524     1.4779     2.5446   243.8400     1.2341     0.5814
  764   15.260   2577.42     1.1279     0.0305     0.8996     0.1526     1.5012     2.7137   244.1600     1.2570     0.5856
  765   15.280   2588.91     1.1440     0.0315     0.8947     0.1528     1.5210     2.7875   244.4800     1.2765     0.5837
  766   15.300   2607.38     1.1707     0.0385     0.8865     0.1530     1.5442     3.3974   244.8000     1.2994     0.5668
  767   15.320   2613.77     1.2006     0.0511     0.8774     0.1532     1.5708     4.2715   245.1200     1.3256     0.5494
  768   15.340   2614.74     1.2279     0.0508     0.8689     0.1534     1.5949     4.1457   245.4400     1.3494     0.5339
  769   15.360   2615.72     1.3209     0.0357     0.8079     0.1536     1.6724     2.7553   245.7600     1.4267     0.4798
  770   15.380   2616.74     1.7713     0.0444     0.5829     0.1538     2.0597     2.6082   246.0800     1.8136     0.2964
  771   15.400   2617.74     2.6098     0.0452     0.4553     0.1540     2.8206     1.8642   246.4000     2.5742     0.1370
  772   15.420   2618.74     3.2736     0.0308     0.3029     0.1542     3.4395     0.9646   246.7200     3.1928     0.0759
  773   15.440   2619.76     3.5096     0.0383     0.3281     0.1544     3.6556     1.1435   247.0400     3.4086     0.0573
  774   15.460   2620.73     2.7131     0.0336     0.3014     0.1546     2.8688     1.1966   247.3600     2.6214     0.0814
  775   15.480   2621.74     2.2336     0.0333     0.4030     0.1548     2.3837     1.5021   247.6800     2.1360     0.0945
  776   15.500   2622.70     2.8617     0.0334     0.5068     0.1550     3.0608     1.2085   248.0000     2.8128     0.1133
  777   15.520   2623.67     2.2930     0.0312     0.6887     0.1552     2.5392     1.2287   248.3200     2.2909     0.2175
  778   15.540   2624.71     0.9273     0.0269     0.6505     0.1554     1.1791     2.8639   248.6400     0.9304     0.4772
  779   15.560   2625.71     0.9142     0.0237     0.6713     0.1556     1.1956     2.5958   248.9600     0.9466     0.5435
  780   15.580   2626.71     0.9519     0.0221     0.6835     0.1558     1.2380     2.3288   249.2800     0.9888     0.5315
  781   15.600   2627.68     0.9260     0.0191     0.7489     0.1560     1.2364     2.0501   249.6000     0.9868     0.5910
  782   15.620   2628.67     0.9097     0.0211     0.7540     0.1562     1.2247     2.3218   249.9200     0.9747     0.6091
  783   15.640   2629.69     0.9167     0.0126     0.7482     0.1564     1.2341     1.3783   250.2400     0.9839     0.6091
  784   15.660   2630.69     0.9930     0.0051     0.7195     0.1566     1.3044     0.5620   250.5600     1.0539     0.5660
  785   15.680   2631.62     1.1074     0.0149     0.7188     0.1568     1.4003     1.3248   250.8800     1.1494     0.4707
  786   15.700   2632.68     1.1272     0.0273     0.6032     0.1570     1.3771     2.4366   251.2000     1.1259     0.3895
  787   15.720   2633.65     1.0203     0.0261     0.6754     0.1572     1.2964     2.5619   251.5200     1.0449     0.4787
  788   15.740   2634.68     1.4481     0.0263     0.6886     0.1574     1.7246     2.1583   251.8400     1.4728     0.3596
  789   15.760   2635.69     3.1694     0.0256     0.5558     0.1576     3.3964     0.8328   252.1600     3.1442     0.1220
  790   15.780   2636.66     2.5087     0.0226     0.5293     0.1578     2.7337     0.8496   252.4800     2.4812     0.1545
  791   15.800   2637.65     1.5195     0.0234     0.6033     0.1580     1.7651     1.4840   252.8000     1.5123     0.2835
  792   15.820   2638.66     0.9794     0.0230     0.7513     0.1582     1.2775     2.2815   253.1200     1.0243     0.5388
  793   15.840   2639.57     0.9078     0.0219     0.8474     0.1584     1.2541     2.4109   253.4400     1.0006     0.6656
  794   15.860   2640.60     0.9496     0.0219     0.8711     0.1586     1.3159     2.3275   253.7600     1.0621     0.6720
  795   15.880   2641.58     1.0708     0.0221     0.7821     0.1588     1.4321     2.0899   254.0800     1.1780     0.5955
  796   15.900   2642.61     1.0627     0.0221     0.7667     0.1590     1.3753     2.0410   254.4000     1.1209     0.5222
  797   15.920   2643.62     1.0315     0.0241     0.8183     0.1592     1.3764     2.3269   254.7200     1.1217     0.5901
  798   15.940   2644.62     1.0439     0.0239     0.8473     0.1594     1.3980     2.2975   255.0400     1.1429     0.5981
  799   15.960   2645.59     1.0410     0.0233     0.8547     0.1596     1.3979     2.2461   255.3600     1.1425     0.6040
  800   15.980   2646.60     1.0389     0.0229     0.8730     0.1598     1.4049     2.2052   255.6800     1.1492     0.6191
  801   16.000   2647.60     1.0681     0.0221     0.8831     0.1600     1.4354     2.0842   256.0000     1.1794     0.6058
  802   16.020   2648.53     1.0597     0.0217     0.8865     0.1602     1.4346     2.0445   256.3200     1.1783     0.6217
  803   16.040   2649.51     1.0724     0.0224     0.8863     0.1604     1.4432     2.0852   256.6400     1.1866     0.6089
  804   16.060   2650.52     1.0780     0.0219     0.8980     0.1606     1.4559     2.0363   256.9600     1.1989     0.6165
  805   16.080   2651.50     1.0767     0.0220     0.8823     0.1608     1.4488     2.0407   257.2800     1.1915     0.6085
  806   16.100   2652.52     1.0726     0.0219     0.8740     0.1610     1.4401     2.0451   257.6000     1.1825     0.6037
  807   16.120   2653.55     1.0852     0.0218     0.8518     0.1612     1.4462     2.0190   257.9200     1.1883     0.5876
  808   16.140   2654.55     1.0661     0.0226     0.8805     0.1614     1.4319     2.1152   258.2400     1.1736     0.6046
  809   16.160   2655.51     1.0768     0.0219     0.8798     0.1616     1.4473     2.0394   258.5600     1.1887     0.6061
  810   16.180   2656.54     1.0866     0.0216     0.8872     0.1618     1.4582     1.9863   258.8800     1.1993     0.6028
  811   16.200   2657.52     1.0778     0.0227     0.8748     0.1620     1.4484     2.1074   259.2000     1.1892     0.6056
  812   16.220   2658.52     1.0989     0.0224     0.8763     0.1622     1.4668     2.0379   259.5200     1.2072     0.5911
  813   16.240   2659.53     1.0971     0.0217     0.8786     0.1624     1.4654     1.9696   259.8400     1.2056     0.5927
  814   16.260   2660.52     1.0821     0.0226     0.8719     0.1626     1.4497     2.0850   260.1600     1.1895     0.5991
  815   16.280   2661.53     1.0865     0.0234     0.8381     0.1628     1.4490     2.1580   260.4800     1.1885     0.5892
  816   16.300   2662.54     1.0801     0.0232     0.8505     0.1630     1.4337     2.1464   260.8000     1.1729     0.5789
  817   16.320   2663.54     1.0893     0.0231     0.8551     0.1632     1.4493     2.1221   261.1200     1.1882     0.5842
  818   16.340   2664.51     1.1001     0.0225     0.8517     0.1634     1.4578     2.0461   261.4400     1.1964     0.5754
  819   16.360   2665.54     1.0918     0.0221     0.8538     0.1636     1.4506     2.0176   261.7600     1.1888     0.5809
  820   16.380   2666.55     1.0891     0.0217     0.8565     0.1638     1.4477     1.9918   262.0800     1.1856     0.5820
  821   16.400   2667.51     1.0804     0.0213     0.8676     0.1640     1.4449     1.9704   262.4000     1.1825     0.5953
  822   16.420   2668.53     1.0956     0.0210     0.8666     0.1642     1.4584     1.9173   262.7200     1.1956     0.5850
  823   16.440   2669.51     1.0638     0.0207     0.8669     0.1644     1.4278     1.9447   263.0400     1.1648     0.6030
  824   16.460   2670.53     1.0716     0.0208     0.8591     0.1646     1.4354     1.9429   263.3600     1.1720     0.5985
  825   16.480   2671.51     1.0738     0.0209     0.8661     0.1648     1.4364     1.9404   263.6800     1.1727     0.5957
  826   16.500   2672.47     1.0593     0.0205     0.8636     0.1650     1.4238     1.9340   264.0000     1.1598     0.6060
  827   16.520   2673.48     1.0592     0.0202     0.8449     0.1652     1.4186     1.9025   264.3200     1.1543     0.5983
  828   16.540   2674.48     1.0557     0.0204     0.8518     0.1654     1.4104     1.9305   264.6400     1.1457     0.5926
  829   16.560   2675.52     1.0531     0.0201     0.8503     0.1656     1.4096     1.9121   264.9600     1.1446     0.5969
  830   16.580   2676.53     1.0378     0.0196     0.8598     0.1658     1.3981     1.8873   265.2800     1.1328     0.6108
  831   16.600   2677.50     1.0241     0.0194     0.8590     0.1660     1.3854     1.8935   265.6000     1.1198     0.6199
  832   16.620   2678.50     1.0289     0.0193     0.8588     0.1662     1.3890     1.8747   265.9200     1.1231     0.6154
  833   16.640   2679.51     1.0157     0.0182     0.8622     0.1664     1.3775     1.7904   266.2400     1.1112     0.6255
  834   16.660   2680.47     0.9959     0.0181     0.8745     0.1666     1.3610     1.8160   266.5600     1.0944     0.6420
  835   16.680   2681.48     0.9988     0.0185     0.8805     0.1668     1.3676     1.8497   266.8800     1.1007     0.6462
  836   16.700   2682.52     0.9965     0.0176     0.8851     0.1670     1.3679     1.7679   267.2000     1.1007     0.6516
  837   16.720   2683.51     0.9751     0.0179     0.8842     0.1672     1.3471     1.8347   267.5200     1.0796     0.6655
  838   16.740   2684.53     0.9768     0.0178     0.8667     0.1674     1.3442     1.8245   267.8400     1.0763     0.6572
  839   16.760   2685.53     0.9892     0.0173     0.8571     0.1676     1.3487     1.7475   268.1600     1.0806     0.6372
  840   16.780   2686.52     0.9815     0.0172     0.8614     0.1678     1.3429     1.7519   268.4800     1.0744     0.6448
  841   16.800   2687.52     0.9907     0.0173     0.8570     0.1680     1.3533     1.7420   268.8000     1.0845     0.6411
  842   16.820   2688.54     0.9844     0.0174     0.8475     0.1682     1.3403     1.7614   269.1200     1.0711     0.6340
  843   16.840   2689.55     0.9934     0.0173     0.8520     0.1684     1.3524     1.7484   269.4400     1.0830     0.6338
  844   16.860   2690.55     1.0056     0.0173     0.8610     0.1686     1.3647     1.7219   269.7600     1.0950     0.6270
  845   16.880   2691.55     1.0070     0.0172     0.8659     0.1688     1.3703     1.7077   270.0800     1.1002     0.6328
  846   16.900   2692.54     1.0063     0.0172     0.8611     0.1690     1.3692     1.7081   270.4000     1.0988     0.6326
  847   16.920   2693.52     1.0080     0.0169     0.8476     0.1692     1.3663     1.6728   270.7200     1.0956     0.6243
  848   16.940   2694.52     0.9816     0.0162     0.8443     0.1694     1.3355     1.6504   271.0400     1.0644     0.6324
  849   16.960   2695.55     0.9985     0.0155     0.8417     0.1696     1.3534     1.5512   271.3600     1.0821     0.6242
  850   16.980   2696.55     1.0027     0.0151     0.8356     0.1698     1.3544     1.5025   271.6800     1.0827     0.6167
  851   17.000   2697.50     0.9934     0.0147     0.8406     0.1700     1.3459     1.4778   272.0000     1.0739     0.6231
  852   17.020   2698.51     0.9874     0.0147     0.8332     0.1702     1.3384     1.4919   272.3200     1.0661     0.6243
  853   17.040   2699.53     0.9838     0.0145     0.8256     0.1704     1.3320     1.4769   272.6400     1.0594     0.6219
  854   17.060   2700.54     0.9520     0.0144     0.8322     0.1706     1.3009     1.5109   272.9600     1.0280     0.6422
  855   17.080   2701.54     0.9429     0.0148     0.8285     0.1708     1.2919     1.5637   273.2800     1.0186     0.6480
  856   17.100   2702.52     0.9494     0.0147     0.8289     0.1710     1.2973     1.5505   273.6000     1.0237     0.6420
  857   17.120   2703.53     0.9572     0.0145     0.8343     0.1712     1.3057     1.5112   273.9200     1.0318     0.6382
  858   17.140   2704.55     0.9356     0.0144     0.8312     0.1714     1.2852     1.5414   274.2400     1.0109     0.6538
  859   17.160   2705.53     0.9402     0.0147     0.8285     0.1716     1.2881     1.5738   274.5600     1.0135     0.6479
  860   17.180   2706.57     0.9467     0.0146     0.8181     0.1718     1.2908     1.5483   274.8800     1.0159     0.6373
  861   17.200   2707.56     0.9428     0.0145     0.8252     0.1720     1.2890     1.5395   275.2000     1.0138     0.6434
  862   17.220   2708.56     0.9536     0.0139     0.8244     0.1722     1.2998     1.4657   275.5200     1.0242     0.6365
  863   17.240   2709.57     0.9580     0.0139     0.8236     0.1724     1.3028     1.4512   275.8400     1.0270     0.6316
  864   17.260   2710.57     0.9689     0.0135     0.8119     0.1726     1.3139     1.3970   276.1600     1.0377     0.6252
  865   17.280   2730.68     0.9975     0.0136     0.7832     0.1728     1.3306     1.3985   276.4800     1.0542     0.5891
  866   17.300   2751.25     1.0269     0.0136     0.7651     0.1730     1.3479     1.3642   276.8000     1.0711     0.5523
  867   17.320   2754.48     1.0096     0.0144     0.7790     0.1732     1.3360     1.4213   277.1200     1.0589     0.5704
  868   17.340   2755.47     0.9887     0.0142     0.7961     0.1734     1.3187     1.4297   277.4400     1.0412     0.5880
  869   17.360   2756.51     0.9690     0.0141     0.8172     0.1736     1.3109     1.4513   277.7600     1.0332     0.6198
  870   17.380   2757.48     0.9657     0.0135     0.8194     0.1738     1.3094     1.3917   278.0800     1.0313     0.6250
  871   17.400   2758.45     0.9693     0.0124     0.8154     0.1740     1.3131     1.2759   278.4000     1.0347     0.6229
  872   17.420   2759.47     0.9604     0.0126     0.8151     0.1742     1.3017     1.3048   278.7200     1.0229     0.6241
  873   17.440   2760.43     0.9494     0.0122     0.8180     0.1744     1.2938     1.2888   279.0400     1.0147     0.6361
  874   17.460   2761.46     0.9585     0.0115     0.8128     0.1746     1.3001     1.1970   279.3600     1.0207     0.6256
  875   17.480   2762.42     0.9699     0.0115     0.8058     0.1748     1.3103     1.1853   279.6800     1.0307     0.6169
  876   17.500   2763.41     0.9812     0.0119     0.7858     0.1750     1.3138     1.2108   280.0000     1.0338     0.5966
  877   17.520   2764.40     0.9817     0.0118     0.7787     0.1752     1.3094     1.1965   280.3200     1.0291     0.5880
  878   17.540   2765.41     0.9702     0.0122     0.7754     0.1754     1.2958     1.2519   280.6400     1.0151     0.5907
  879   17.560   2766.41     0.9922     0.0125     0.7796     0.1756     1.3188     1.2806   280.9600     1.0378     0.5803
  880   17.580   2767.37     1.0378     0.0124     0.7563     0.1758     1.3624     1.1978   281.2800     1.0811     0.5524
  881   17.600   2768.37     1.0573     0.0119     0.7142     0.1760     1.3625     1.1220   281.6000     1.0809     0.5093
  882   17.620   2769.35     1.0524     0.0122     0.7307     0.1762     1.3566     1.1572   281.9200     1.0746     0.5100
  883   17.640   2770.38     1.0489     0.0124     0.7461     0.1764     1.3600     1.1844   282.2400     1.0778     0.5236
  884   17.660   2771.36     1.0337     0.0124     0.7539     0.1766     1.3492     1.1998   282.5600     1.0667     0.5387
  885   17.680   2772.37     1.0267     0.0116     0.7471     0.1768     1.3412     1.1347   282.8800     1.0583     0.5405
  886   17.700   2773.39     1.0375     0.0111     0.7385     0.1770     1.3507     1.0707   283.2000     1.0675     0.5328
  887   17.720   2774.37     1.0060     0.0116     0.7490     0.1772     1.3157     1.1411   283.5200     1.0322     0.5431
  888   17.740   2775.37     0.9672     0.0121     0.7723     0.1774     1.2868     1.2456   283.8400     1.0030     0.5820
  889   17.760   2776.38     0.9413     0.0116     0.8009     0.1776     1.2740     1.2273   284.1600     0.9898     0.6209
  890   17.780   2777.40     0.9269     0.0118     0.8193     0.1778     1.2695     1.2735   284.4800     0.9851     0.6476
  891   17.800   2778.40     0.9370     0.0128     0.8236     0.1780     1.2829     1.3627   284.8000     0.9981     0.6468
  892   17.820   2779.35     0.9671     0.0135     0.8231     0.1782     1.3134     1.4033   285.1200     1.0283     0.6286
  893   17.840   2780.39     1.0099     0.0145     0.8134     0.1784     1.3521     1.4412   285.4400     1.0667     0.5966
  894   17.860   2781.37     1.0360     0.0138     0.8051     0.1786     1.3771     1.3342   285.7600     1.0914     0.5806
  895   17.880   2782.37     1.0602     0.0141     0.7806     0.1788     1.3902     1.3304   286.0800     1.1041     0.5496
  896   17.900   2783.42     1.0325     0.0134     0.7799     0.1790     1.3595     1.2948   286.4000     1.0731     0.5586
  897   17.920   2784.43     1.0247     0.0130     0.7942     0.1792     1.3546     1.2639   286.7200     1.0679     0.5679
  898   17.940   2785.41     0.9994     0.0128     0.8014     0.1794     1.3359     1.2721   287.0400     1.0489     0.5928
  899   17.960   2786.39     0.9804     0.0128     0.8257     0.1796     1.3244     1.3100   287.3600     1.0370     0.6166
  900   17.980   2787.37     0.9910     0.0122     0.8437     0.1798     1.3432     1.2316   287.6800     1.0556     0.6242
  901   18.000   2788.39     1.0109     0.0127     0.8358     0.1800     1.3647     1.2614   288.0000     1.0767     0.6152
  902   18.020   2789.40     1.0181     0.0134     0.8394     0.1802     1.3687     1.3162   288.3200     1.0804     0.6059
  903   18.040   2790.38     1.0271     0.0138     0.8192     0.1804     1.3752     1.3463   288.6400     1.0866     0.5968
  904   18.060   2791.38     1.0150     0.0139     0.8348     0.1806     1.3626     1.3646   288.9600     1.0737     0.6027
  905   18.080   2792.39     1.0122     0.0149     0.8383     0.1808     1.3636     1.4753   289.2800     1.0743     0.6106
  906   18.100   2793.37     1.0208     0.0149     0.8393     0.1810     1.3732     1.4642   289.6000     1.0836     0.6073
  907   18.120   2794.42     1.0209     0.0150     0.8566     0.1812     1.3791     1.4722   289.9200     1.0892     0.6167
  908   18.140   2795.43     1.0207     0.0157     0.8580     0.1814     1.3811     1.5430   290.2400     1.0908     0.6203
  909   18.160   2796.43     1.0368     0.0159     0.8553     0.1816     1.3957     1.5415   290.5600     1.1051     0.6089
  910   18.180   2797.43     1.0880     0.0143     0.8558     0.1818     1.4483     1.3231   290.8800     1.1574     0.5843
  911   18.200   2798.42     1.1600     0.0151     0.8293     0.1820     1.5140     1.3241   291.2000     1.2228     0.5406
  912   18.220   2799.47     1.2001     0.0155     0.8052     0.1822     1.5396     1.2940   291.5200     1.2481     0.5016
  913   18.240   2800.44     1.2177     0.0151     0.7978     0.1824     1.5527     1.2482   291.8400     1.2609     0.4881
  914   18.260   2801.47     1.1853     0.0174     0.8138     0.1826     1.5269     1.4581   292.1600     1.2347     0.5108
  915   18.280   2802.47     1.1532     0.0145     0.8312     0.1828     1.4960     1.2525   292.4800     1.2035     0.5263
  916   18.300   2803.48     1.1478     0.0102     0.8503     0.1830     1.5035     0.8929   292.8000     1.2107     0.5484
  917   18.320   2804.50     1.2040     0.0119     0.8663     0.1832     1.5662     1.0163   293.1200     1.2731     0.5337
  918   18.340   2805.50     1.2659     0.0147     0.8914     0.1834     1.6354     1.1833   293.4400     1.3420     0.5190
  919   18.360   2806.49     1.7525     0.0196     0.9201     0.1836     2.1438     1.3529   293.7600     1.8501     0.4061
  920   18.380   2807.52     3.1534     0.0231     0.6739     0.1838     3.4859     0.9726   294.0800     3.1918     0.1944
  921   18.400   2808.58     5.7648     0.0253     0.3838     0.1840     5.9533     0.5534   294.4000     5.6589     0.0472
  922   18.420   2809.66     8.7101     0.0464     0.1811     0.1842     8.8145     0.6220   294.7200     8.5198     0.0076
  923   18.440   2810.67    10.1215     0.0678    -0.0363     0.1844    10.1219     0.6975   295.0400     9.8268    -0.0187
  924   18.460   2811.68    10.7089     0.0807    -0.0278     0.1846    10.6997     0.7660   295.3600    10.4043    -0.0199
  925   18.480   2812.72    10.5990     0.0850    -0.0873     0.1848    10.5689     0.7929   295.6800    10.2732    -0.0250
  926   18.500   2813.75    10.2472     0.0963    -0.1005     0.1850    10.2028     0.9292   296.0000     9.9068    -0.0293
  927   18.520   2814.78    10.2295     0.0999    -0.0436     0.1852    10.1993     0.9811   296.3200     9.9030    -0.0260
  928   18.540   2815.83    10.7077     0.1040     0.0445     0.1854    10.7242     0.9913   296.6400    10.4276    -0.0140
  929   18.560   2816.85    10.8226     0.1000     0.0338     0.1856    10.8333     0.9239   296.9600    10.5363    -0.0152
  930   18.580   2817.88    10.8418     0.0970     0.0987     0.1858    10.8761     0.8935   297.2800    10.5789    -0.0098
  931   18.600   2818.89    10.8471     0.0840     0.0453     0.1860    10.8745     0.7778   297.6000    10.5769    -0.0114
  932   18.620   2819.94    11.2266     0.0713     0.0119     0.1862    11.2367     0.6495   297.9200    10.9388    -0.0148
  933   18.640   2820.99    12.1927     0.0621    -0.1147     0.1864    12.1653     0.5180   298.2400    11.8671    -0.0212
  934   18.660   2822.00    13.1505     0.0581    -0.1425     0.1866    13.0895     0.4429   298.5600    12.7910    -0.0259
  935   18.680   2823.09    13.8703     0.0617    -0.1290     0.1868    13.8167     0.4488   298.8800    13.5178    -0.0233
  936   18.700   2824.11    14.5969     0.0689    -0.1516     0.1870    14.5325     0.4782   299.2000    14.2333    -0.0239
  937   18.720   2825.09    15.1872     0.0800    -0.1822     0.1872    15.1173     0.5327   299.5200    14.8178    -0.0239
  938   18.740   2826.09    15.8466     0.0923    -0.1896     0.1874    15.7640     0.5940   299.8400    15.4641    -0.0248
  939   18.760   2827.05    16.5630     0.1001    -0.1850     0.1876    16.4854     0.6138   300.1600    16.1853    -0.0230
  940   18.780   2828.00    17.0848     0.1130    -0.1578     0.1878    17.0126     0.6704   300.4800    16.7121    -0.0215
  941   18.800   2828.95    17.2960     0.1200    -0.1217     0.1880    17.2418     0.6941   300.8000    16.9410    -0.0187
  942   18.820   2829.87    17.2218     0.1277    -0.1226     0.1882    17.1709     0.7399   301.1200    16.8698    -0.0183
  943   18.840   2830.84    17.2454     0.1359    -0.1067     0.1884    17.1973     0.7894   301.4400    16.8958    -0.0179
  944   18.860   2831.79    17.1862     0.1354    -0.0700     0.1886    17.1507     0.7851   301.7600    16.8489    -0.0162
  945   18.880   2832.74    16.9930     0.1331    -0.0320     0.1888    16.9748     0.7792   302.0800    16.6727    -0.0139
  946   18.900   2833.67    16.6749     0.1330     0.0052     0.1890    16.6721     0.7894   302.4000    16.3697    -0.0120
  947   18.920   2834.62    16.1601     0.1331     0.0527     0.1892    16.1769     0.8107   302.7200    15.8741    -0.0094
  948   18.940   2835.56    15.6900     0.1400     0.0900     0.1894    15.7223     0.8786   303.0400    15.4193    -0.0073
  949   18.960   2836.52    15.2377     0.1386     0.1074     0.1896    15.2813     0.8975   303.3600    14.9779    -0.0057
  950   18.980   2837.47    14.7500     0.1342     0.1306     0.1898    14.8035     0.8959   303.6800    14.4998    -0.0043
  951   19.000   2838.38    14.2797     0.1249     0.1294     0.1900    14.3321     0.8617   304.0000    14.0281    -0.0046
  952   19.020   2839.34    13.8608     0.1188     0.1675     0.1902    13.9253     0.8485   304.3200    13.6210    -0.0027
  953   19.040   2840.25    13.5868     0.1183     0.1457     0.1904    13.6592     0.8663   304.6400    13.3545    -0.0014
  954   19.060   2841.20    13.3788     0.1130     0.0877     0.1906    13.4216     0.8411   304.9600    13.1166    -0.0068
  955   19.080   2842.15    13.0523     0.1016     0.0563     0.1908    13.0789     0.7744   305.2800    12.7736    -0.0100
  956   19.100   2843.09    12.4296     0.1058     0.0479     0.1910    12.4478     0.8459   305.6000    12.1422    -0.0122
  957   19.120   2844.05    11.4715     0.1162     0.0662     0.1912    11.4954     1.0100   305.9200    11.1895    -0.0120
  958   19.140   2845.05    10.1930     0.1215     0.0839     0.1914    10.2251     1.1870   306.2400     9.9189    -0.0116
  959   19.160   2846.05     8.9802     0.1203     0.1077     0.1916     9.0228     1.3193   306.5600     8.7162    -0.0103
  960   19.180   2847.06     7.9578     0.1184     0.1370     0.1918     8.0088     1.4443   306.8800     7.7019    -0.0091
  961   19.200   2848.08     7.0738     0.1196     0.1809     0.1920     7.1522     1.6208   307.2000     6.8450    -0.0007
  962   19.220   2849.13     6.5868     0.1310     0.1158     0.1922     6.6469     1.9389   307.5200     6.3393    -0.0078
  963   19.240   2850.13     5.9149     0.1268     0.1217     0.1924     5.9668     2.0389   307.8400     5.6589    -0.0122
  964   19.260   2858.53     5.0275     0.1116     0.1736     0.1926     5.0913     2.0386   308.1600     4.7831    -0.0049
  965   19.280   2874.59     4.1226     0.1024     0.2365     0.1928     4.2128     1.8711   308.4800     3.9043     0.0132
  966   19.300   2890.65     3.2175     0.0850     0.2740     0.1930     3.3342     2.0228   308.8000     3.0254     0.0313
  967   19.320   2895.39     2.5128     0.0717     0.3931     0.1932     2.6312     2.7888   309.1200     2.3220     0.0403
  968   19.340   2896.39     1.9890     0.0581     0.5861     0.1934     2.2139     2.8782   309.4400     1.9045     0.1803
  969   19.360   2897.41     1.8363     0.0523     0.6871     0.1936     2.1198     2.8308   309.7600     1.8100     0.2660
  970   19.380   2898.38     1.7982     0.0506     0.6984     0.1938     2.0868     2.8092   310.0800     1.7767     0.2777
  971   19.400   2899.43     1.7343     0.0478     0.7095     0.1940     2.0322     2.7232   310.4000     1.7218     0.2993
  972   19.420   2900.44     1.6559     0.0475     0.7229     0.1942     1.9563     2.8600   310.7200     1.6456     0.3167
  973   19.440   2901.42     1.6205     0.0481     0.7418     0.1944     1.9296     2.9644   311.0400     1.6186     0.3347
  974   19.460   2902.43     1.5887     0.0478     0.7688     0.1946     1.9061     2.9971   311.3600     1.5947     0.3519
  975   19.480   2903.41     1.5233     0.0470     0.8097     0.1948     1.8569     3.0777   311.6800     1.5453     0.3881
  976   19.500   2904.46     1.4920     0.0469     0.8615     0.1950     1.8497     3.1444   312.0000     1.5377     0.4270
  977   19.520   2905.43     1.5019     0.0443     0.8767     0.1952     1.8685     2.9571   312.3200     1.5561     0.4353
  978   19.540   2906.41     1.5109     0.0459     0.8809     0.1954     1.8805     3.0430   312.6400     1.5679     0.4366
  979   19.560   2907.44     1.5174     0.0499     0.8808     0.1956     1.8875     3.2908   312.9600     1.5745     0.4354
  980   19.580   2908.46     1.5248     0.0539     0.8886     0.1958     1.8956     3.5386   313.2800     1.5823     0.4341
  981   19.600   2909.45     1.5411     0.0589     0.8986     0.1960     1.9176     3.8303   313.6000     1.6040     0.4366
  982   19.620   2910.45     1.5829     0.0616     0.9185     0.1962     1.9662     3.9110   313.9200     1.6523     0.4336
  983   19.640   2911.48     1.6255     0.0639     0.8998     0.1964     2.0072     3.9301   314.2400     1.6930     0.4208
  984   19.660   2927.92     1.7018     0.0693     0.8814     0.1966     2.0747     4.2642   314.5600     1.7601     0.3947
  985   19.680   2946.70     1.7901     0.0701     0.8630     0.1968     2.1552     4.3121   314.8800     1.8403     0.3673
  986   19.700   2962.31     1.8890     0.0762     0.8680     0.1970     2.2506     4.4499   315.2000     1.9354     0.3431
  987   19.720   2963.32     2.0291     0.0783     0.8072     0.1972     2.3795     3.8790   315.5200     2.0640     0.3088
  988   19.740   2964.35     2.0688     0.0679     0.7397     0.1974     2.3840     3.2674   315.8400     2.0681     0.2674
  989   19.760   2965.34     1.8300     0.0584     0.7636     0.1976     2.1493     3.1339   316.1600     1.8331     0.3074
  990   19.780   2966.37     1.6957     0.0604     0.8827     0.1978     2.0379     3.5654   316.4800     1.7215     0.3581
  991   19.800   2967.37     2.0339     0.0720     1.0439     0.1980     2.4527     3.5965   316.8000     2.1359     0.3751
  992   19.820   2968.34     2.7628     0.0728     1.0079     0.1982     3.2092     3.0987   317.1200     2.8921     0.3008
  993   19.840   2969.34     3.8005     0.0731     0.4761     0.1984     4.1003     2.1954   317.4400     3.7829     0.1388
  994   19.860   2970.35     4.6859     0.0758     0.1541     0.1986     4.7671     1.7662   317.7600     4.4493    -0.0008
  995   19.880   2971.40     5.5044     0.0695     0.1013     0.1988     5.5670     1.3565   318.0800     5.2490    -0.0094
  996   19.900   2972.43     6.3940     0.0614    -0.1027     0.1990     6.3774     1.0024   318.4000     6.0590    -0.0391
  997   19.920   2973.46     7.2248     0.0562    -0.1659     0.1992     7.1582     0.8073   318.7200     6.8394    -0.0523
  998   19.940   2974.52     7.7850     0.0512    -0.1607     0.1994     7.7174     0.6603   319.0400     7.3984    -0.0487
  999   19.960   2975.51     8.1308     0.0520    -0.1662     0.1996     8.0617     0.6527   319.3600     7.7423    -0.0470
 1000   19.980   2976.51     8.6109     0.0561    -0.1702     0.1998     8.5403     0.6676   319.6800     8.2206    -0.0448
 1001   20.000   2977.52     9.0234     0.0575    -0.1668     0.2000     8.9525     0.6489   320.0000     8.6325    -0.0427
 1002   20.020   2978.54     9.2855     0.0557    -0.1553     0.2002     9.2194     0.6062   320.3200     8.8991    -0.0402
 1003   20.040   2979.55     9.4750     0.0569    -0.1449     0.2004     9.4127     0.6043   320.6400     9.0920    -0.0384
 1004   20.060   2980.60     9.5816     0.0597    -0.1265     0.2006     9.5261     0.6262   320.9600     9.2051    -0.0362
 1005   20.080   2981.64     9.6261     0.0608    -0.1000     0.2008     9.5792     0.6319   321.2800     9.2580    -0.0337
 1006   20.100   2982.67     9.6720     0.0747    -0.0552     0.2010     9.6405     0.7739   321.6000     9.3189    -0.0296
 1007   20.120   2983.71     9.5061     0.0779    -0.0395     0.2012     9.4877     0.8190   321.9200     9.1658    -0.0267
 1008   20.140   2984.73     9.2963     0.0828    -0.0405     0.2014     9.2780     0.8814   322.2400     8.9558    -0.0274
 1009   20.160   2985.74     9.0967     0.0980    -0.0455     0.2016     9.0785     1.0764   322.5600     8.7559    -0.0280
 1010   20.180   2986.73     8.5768     0.1065    -0.0584     0.2018     8.5533     1.1990   322.8800     8.2304    -0.0313
 1011   20.200   2987.77     7.7475     0.0998    -0.0634     0.2020     7.7223     1.2372   323.2000     7.3991    -0.0354
 1012   20.220   2988.81     7.3131     0.0961    -0.0265     0.2022     7.2974     1.2864   323.5200     6.9739    -0.0343
 1013   20.240   2989.80     7.1721     0.1015     0.0759     0.2024     7.1819     1.4066   323.8400     6.8580    -0.0261
 1014   20.260   2990.82     7.4331     0.1001     0.0585     0.2026     7.4655     1.3863   324.1600     7.1414    -0.0175
 1015   20.280   2991.84     7.9552     0.0910    -0.1017     0.2028     7.9420     1.1676   324.4800     7.6175    -0.0308
 1016   20.300   2992.91     7.9533     0.0807    -0.1433     0.2030     7.8947     1.0136   324.8000     7.5699    -0.0452
 1017   20.320   2993.93     7.8293     0.0692    -0.1404     0.2032     7.7704     0.8881   325.1200     7.4453    -0.0461
 1018   20.340   2994.97     8.2593     0.0673    -0.1528     0.2034     8.1969     0.8296   325.4400     7.8714    -0.0447
 1019   20.360   2995.99     8.6196     0.0690    -0.1538     0.2036     8.5557     0.8104   325.7600     8.2300    -0.0432
 1020   20.380   2997.00     8.9222     0.0673    -0.1778     0.2038     8.8501     0.7629   326.0800     8.5240    -0.0441
 1021   20.400   2997.99     8.9555     0.0625    -0.1725     0.2040     8.8811     0.6960   326.4000     8.5547    -0.0446
 1022   20.420   2998.99     8.7838     0.0699    -0.1648     0.2042     8.7141     0.7930   326.7200     8.3874    -0.0441
 1023   20.440   3000.02     8.3459     0.0811    -0.1598     0.2044     8.2781     0.9674   327.0400     7.9511    -0.0460
 1024   20.460   3001.06     7.6823     0.0801    -0.1591     0.2046     7.6144     1.0351   327.3600     7.2870    -0.0503
 1025   20.480   3002.05     6.7957     0.0699    -0.1488     0.2048     6.7329     1.0176   327.6800     6.4052    -0.0553
 1026   20.500   3003.08     6.0811     0.0665    -0.1312     0.2050     6.0189     1.0846   328.0000     5.6909    -0.0621
 1027   20.520   3004.10     5.6239     0.0755    -0.0939     0.2052     5.5883     1.3302   328.3200     5.2600    -0.0551
 1028   20.540   3005.06     5.0823     0.0906    -0.0831     0.2054     5.0413     1.7682   328.6400     4.7127    -0.0643
 1029   20.560   3006.09     4.5075     0.1048    -0.0465     0.2056     4.4854     2.3030   328.9600     4.1564    -0.0621
 1030   20.580   3007.10     4.0150     0.0841    -0.0119     0.2058     4.0035     2.0721   329.2800     3.6742    -0.0635
 1031   20.600   3008.13     3.5847     0.0725     0.0505     0.2060     3.5948     2.0024   329.6000     3.2652    -0.0557
 1032   20.620   3009.16     3.0892     0.0744     0.1698     0.2062     3.1485     2.3768   329.9200     2.8185    -0.0231
 1033   20.640   3010.16     2.5897     0.0633     0.2229     0.2064     2.6674     2.4057   330.2400     2.3371    -0.0090
 1034   20.660   3011.12     2.1183     0.0467     0.3410     0.2066     2.2454     1.9951   330.5600     1.9148     0.0502
 1035   20.680   3012.12     1.8722     0.0396     0.4695     0.2068     2.0520     2.1074   330.8800     1.7211     0.1287
 1036   20.700   3013.14     1.7240     0.0336     0.5771     0.2070     1.9574     1.9310   331.2000     1.6262     0.2145
 1037   20.720   3014.15     1.6183     0.0298     0.6377     0.2072     1.8779     1.8316   331.5200     1.5463     0.2656
 1038   20.740   3015.19     1.6279     0.0298     0.6602     0.2074     1.9016     1.8359   331.8400     1.5698     0.2830
 1039   20.760   3016.19     1.7295     0.0259     0.6681     0.2076     2.0079     1.5053   332.1600     1.6758     0.2717
 1040   20.780   3017.19     1.7424     0.0220     0.6744     0.2078     2.0245     1.2589   332.4800     1.6920     0.2742
 1041   20.800   3018.21     1.6600     0.0235     0.7210     0.2080     1.9555     1.4084   332.8000     1.6227     0.3055
 1042   20.820   3019.20     1.5550     0.0223     0.7810     0.2082     1.8754     1.4320   333.1200     1.5423     0.3597
 1043   20.840   3020.20     1.4878     0.0224     0.7872     0.2084     1.8185     1.5020   333.4400     1.4850     0.3899
 1044   20.860   3021.21     1.4396     0.0208     0.7907     0.2086     1.7700     1.4403   333.7600     1.4362     0.4025
 1045   20.880   3022.22     1.3819     0.0262     0.8302     0.2088     1.7244     1.8951   334.0800     1.3903     0.4364
 1046   20.900   3023.22     1.3828     0.0291     0.8453     0.2090     1.7344     2.1128   334.4000     1.4000     0.4487
 1047   20.920   3024.23     1.5141     0.0267     0.8199     0.2092     1.8640     1.7726   334.7200     1.5293     0.4082
 1048   20.940   3025.22     1.5828     0.0277     0.8264     0.2094     1.9309     1.7637   335.0400     1.5959     0.3883
 1049   20.960   3026.23     1.8054     0.0310     0.8138     0.2096     2.1496     1.7412   335.3600     1.8143     0.3367
 1050   20.980   3027.24     2.1210     0.0416     0.6960     0.2098     2.4347     1.9748   335.6800     2.0990     0.2562
 1051   21.000   3028.25     2.3686     0.0477     0.5790     0.2100     2.6276     2.0305   336.0000     2.2916     0.1776
 1052   21.020   3029.27     2.4708     0.0452     0.5631     0.2102     2.7033     1.8272   336.3200     2.3670     0.1451
 1053   21.040   3030.27     2.3158     0.0448     0.6008     0.2104     2.5588     1.9301   336.6400     2.2221     0.1658
 1054   21.060   3031.28     2.0812     0.0456     0.6577     0.2106     2.3496     2.1813   336.9600     2.0127     0.2132
 1055   21.080   3032.30     1.7685     0.0460     0.7672     0.2108     2.0725     2.5371   337.2800     1.7352     0.2967
 1056   21.100   3033.28     1.5592     0.0413     0.8781     0.2110     1.9146     2.6301   337.6000     1.5770     0.4029
 1057   21.120   3034.31     1.5079     0.0399     0.8933     0.2112     1.8817     2.6150   337.9200     1.5438     0.4397
 1058   21.140   3035.29     1.4668     0.0385     0.8847     0.2114     1.8404     2.5999   338.2400     1.5022     0.4514
 1059   21.160   3036.32     1.4414     0.0379     0.8519     0.2116     1.8047     2.6311   338.5600     1.4662     0.4457
 1060   21.180   3037.27     1.4237     0.0423     0.8372     0.2118     1.7743     2.9667   338.8800     1.4354     0.4339
 1061   21.200   3038.29     1.4020     0.0465     0.8443     0.2120     1.7565     3.2884   339.2000     1.4173     0.4460
 1062   21.220   3049.88     1.4539     0.0448     0.7809     0.2122     1.7910     3.1948   339.5200     1.4515     0.4096
 1063   21.240   3065.71     1.5276     0.0409     0.7174     0.2124     1.8381     2.9154   339.8400     1.4983     0.3552
 1064   21.260   3081.55     1.6013     0.0378     0.6587     0.2126     1.8852     2.5609   340.1600     1.5450     0.3008
 1065   21.280   3085.89     1.5025     0.0343     0.6559     0.2128     1.7774     2.2590   340.4800     1.4369     0.3078
 1066   21.300   3086.91     1.3370     0.0314     0.6471     0.2130     1.6105     2.3140   340.8000     1.2697     0.3455
 1067   21.320   3087.89     1.2221     0.0302     0.6394     0.2132     1.4868     2.4560   341.1200     1.1457     0.3643
 1068   21.340   3088.91     1.1269     0.0296     0.6865     0.2134     1.4088     2.6190   341.4400     1.0674     0.4291
 1069   21.360   3089.91     1.0813     0.0275     0.7160     0.2136     1.3793     2.5288   341.7600     1.0375     0.4779
 1070   21.380   3090.91     1.0468     0.0255     0.7345     0.2138     1.3519     2.4303   342.0800     1.0098     0.5077
 1071   21.400   3091.89     1.0291     0.0230     0.7578     0.2140     1.3442     2.2314   342.4000     1.0018     0.5353
 1072   21.420   3092.90     1.0196     0.0197     0.7502     0.2142     1.3368     1.9309   342.7200     0.9941     0.5442
 1073   21.440   3093.91     0.9975     0.0189     0.7363     0.2144     1.3078     1.8819   343.0400     0.9648     0.5437
 1074   21.460   3094.91     0.9555     0.0186     0.7520     0.2146     1.2673     1.9396   343.3600     0.9239     0.5714
 1075   21.480   3095.88     0.9305     0.0211     0.7819     0.2148     1.2554     2.2654   343.6800     0.9117     0.6128
 1076   21.500   3096.87     0.9674     0.0216     0.7795     0.2150     1.2967     2.2534   344.0000     0.9527     0.5976
 1077   21.520   3097.89     1.0858     0.0163     0.7628     0.2152     1.4079     1.5181   344.3200     1.0636     0.5190
 1078   21.540   3098.91     1.1751     0.0188     0.7102     0.2154     1.4830     1.6070   344.6400     1.1384     0.4548
 1079   21.560   3099.91     1.2044     0.0220     0.6960     0.2156     1.4934     1.8346   344.9600     1.1485     0.4116
 1080   21.580   3100.90     1.2325     0.0245     0.7248     0.2158     1.5368     1.9877   345.2800     1.1915     0.4270
 1081   21.600   3101.88     1.2466     0.0255     0.6798     0.2160     1.5405     2.0498   345.6000     1.1949     0.4049
 1082   21.620   3102.90     1.2255     0.0240     0.6395     0.2162     1.4950     1.9542   345.9200     1.1491     0.3702
 1083   21.640   3103.87     1.1425     0.0210     0.6473     0.2164     1.4146     1.8225   346.2400     1.0684     0.4042
 1084   21.660   3104.88     1.0308     0.0201     0.6769     0.2166     1.3076     1.9230   346.5600     0.9611     0.4607
 1085   21.680   3105.89     1.0015     0.0196     0.7098     0.2168     1.2963     1.9552   346.8800     0.9495     0.5109
 1086   21.700   3106.90     1.0069     0.0179     0.7364     0.2170     1.3142     1.7827   347.2000     0.9670     0.5321
 1087   21.720   3107.95     1.0108     0.0174     0.7540     0.2172     1.3243     1.7213   347.5200     0.9767     0.5418
 1088   21.740   3108.96     1.0441     0.0183     0.7787     0.2174     1.3657     1.7548   347.8400     1.0179     0.5387
 1089   21.760   3109.93     1.0617     0.0178     0.8037     0.2176     1.3974     1.6842   348.1600     1.0492     0.5545
 1090   21.780   3110.96     1.0821     0.0181     0.8056     0.2178     1.4220     1.6752   348.4800     1.0735     0.5510
 1091   21.800   3111.94     1.0977     0.0180     0.7812     0.2180     1.4275     1.6444   348.8000     1.0787     0.5259
 1092   21.820   3112.93     1.0655     0.0199     0.8011     0.2182     1.3993     1.8599   349.1200     1.0501     0.5492
 1093   21.840   3113.97     1.0565     0.0217     0.7918     0.2184     1.3911     2.0644   349.4400     1.0417     0.5551
 1094   21.860   3114.96     1.1023     0.0224     0.7824     0.2186     1.4334     2.0497   349.7600     1.0836     0.5258
 1095   21.880   3115.95     1.1967     0.0200     0.7333     0.2188     1.5120     1.6856   350.0800     1.1619     0.4581
 1096   21.900   3116.92     1.2656     0.0176     0.7132     0.2190     1.5642     1.3934   350.4000     1.2138     0.4053
 1097   21.920   3117.96     1.2493     0.0179     0.7484     0.2192     1.5587     1.4245   350.7200     1.2080     0.4284
 1098   21.940   3118.97     1.1607     0.0188     0.7683     0.2194     1.4821     1.6062   351.0400     1.1310     0.4826
 1099   21.960   3119.95     1.1218     0.0206     0.7933     0.2196     1.4499     1.8337   351.3600     1.0986     0.5113
 1100   21.980   3120.96     1.1484     0.0192     0.7940     0.2198     1.4858     1.6794   351.6800     1.1341     0.5146
 1101   22.000   3121.94     1.1527     0.0193     0.7861     0.2200     1.4818     1.6605   352.0000     1.1298     0.4990
 1102   22.020   3122.94     1.1272     0.0201     0.7937     0.2202     1.4594     1.7829   352.3200     1.1070     0.5156
 1103   22.040   3123.94     1.1837     0.0197     0.7806     0.2204     1.5158     1.6762   352.6400     1.1631     0.4903
 1104   22.060   3124.97     1.2499     0.0195     0.7614     0.2206     1.5693     1.5691   352.9600     1.2163     0.4438
 1105   22.080   3125.98     1.3180     0.0196     0.7721     0.2208     1.6423     1.4915   353.2800     1.2890     0.4278
 1106   22.100   3126.99     1.4975     0.0211     0.7244     0.2210     1.8111     1.4852   353.6000     1.4575     0.3613
 1107   22.120   3127.99     1.7504     0.0239     0.6540     0.2212     2.0362     1.3780   353.9200     1.6822     0.2737
 1108   22.140   3128.98     2.0250     0.0264     0.6235     0.2214     2.2863     1.3119   354.2400     1.9321     0.2076
 1109   22.160   3129.98     2.1279     0.0278     0.6164     0.2216     2.3897     1.3154   354.5600     2.0352     0.1975
 1110   22.180   3130.98     2.0774     0.0275     0.6090     0.2218     2.3334     1.3221   354.8800     1.9785     0.1960
 1111   22.200   3132.02     1.9682     0.0280     0.6052     0.2220     2.2235     1.4207   355.2000     1.8683     0.2066
 1112   22.220   3133.06     1.7561     0.0271     0.6155     0.2222     2.0096     1.5373   355.5200     1.6541     0.2309
 1113   22.240   3134.05     1.5603     0.0246     0.6573     0.2224     1.8306     1.5655   355.8400     1.4748     0.2857
 1114   22.260   3135.01     1.5140     0.0264     0.6876     0.2226     1.7987     1.7351   356.1600     1.4425     0.3156
 1115   22.280   3136.05     1.5052     0.0295     0.7093     0.2228     1.7983     1.9409   356.4800     1.4418     0.3295
 1116   22.300   3137.04     1.4899     0.0340     0.7249     0.2230     1.7910     2.2747   356.8000     1.4342     0.3444
 1117   22.320   3138.10     1.5240     0.0377     0.7158     0.2232     1.8252     2.5326   357.1200     1.4681     0.3365
 1118   22.340   3139.14     1.7735     0.0400     0.6892     0.2234     2.0692     2.4507   357.4400     1.7118     0.2810
 1119   22.360   3140.14     2.3875     0.0412     0.6304     0.2236     2.6658     1.9768   357.7600     2.3080     0.1903
 1120   22.380   3141.20     3.2784     0.0452     0.4776     0.2238     3.5045     1.5749   358.0800     3.1464     0.1004
 1121   22.400   3142.23     4.5255     0.0468     0.2870     0.2240     4.6679     1.0731   358.4000     4.3095     0.0273
 1122   22.420   3143.25     5.8312     0.0436     0.1669     0.2242     5.9155     0.8376   358.7200     5.5568    -0.0040
 1123   22.440   3144.29     6.9613     0.0431     0.0902     0.2244     7.0006     0.6623   359.0400     6.6416    -0.0197
 1124   22.460   3145.26     7.4937     0.0447     0.0465     0.2246     7.5161     0.6103   359.3600     7.1568    -0.0239
 1125   22.480   3146.32     7.5779     0.0459    -0.0115     0.2248     7.5829     0.6059   359.6800     7.2232    -0.0295
 1126   22.500   3147.36     7.5123     0.0485    -0.0278     0.2250     7.5033     0.6421   360.0000     7.1433    -0.0345
 1127   22.520   3148.40     7.3659     0.0551    -0.0227     0.2252     7.3557     0.7435   360.3200     6.9954    -0.0357
 1128   22.540   3149.42     7.4413     0.0623    -0.0398     0.2254     7.4305     0.8445   360.6400     7.0699    -0.0355
 1129   22.560   3150.43     7.5835     0.0677    -0.0797     0.2256     7.5555     0.8966   360.9600     7.1945    -0.0406
 1130   22.580   3151.47     7.6635     0.0687    -0.1048     0.2258     7.6205     0.9033   361.2800     7.2592    -0.0452
 1131   22.600   3152.51     7.8254     0.0680    -0.1222     0.2260     7.7781     0.8778   361.6000     7.4165    -0.0456
 1132   22.620   3153.53     8.1187     0.0624    -0.1515     0.2262     8.0602     0.7820   361.9200     7.6983    -0.0475
 1133   22.640   3154.59     8.7119     0.0533    -0.1724     0.2264     8.6412     0.6337   362.2400     8.2790    -0.0477
 1134   22.660   3155.65     9.4370     0.0468    -0.2065     0.2266     9.3531     0.4972   362.5600     8.9905    -0.0474
 1135   22.680   3156.69    10.2230     0.0534    -0.2170     0.2268    10.1328     0.5251   362.8800     9.7699    -0.0452
 1136   22.700   3157.75    11.0238     0.0619    -0.2123     0.2270    10.9337     0.5674   363.2000    10.5705    -0.0418
 1137   22.720   3158.79    11.6861     0.0516    -0.2000     0.2272    11.6021     0.4439   363.5200    11.2386    -0.0380
 1138   22.740   3159.79    12.1052     0.0589    -0.1979     0.2274    12.0232     0.4882   363.8400    11.6594    -0.0363
 1139   22.760   3160.80    12.2000     0.0945    -0.1911     0.2276    12.1177     0.7749   364.1600    11.7535    -0.0360
 1140   22.780   3161.80    12.0028     0.1250    -0.1551     0.2278    11.9335     1.0180   364.4800    11.5691    -0.0339
 1141   22.800   3162.79    11.3140     0.1275    -0.1812     0.2280    11.2408     1.0274   364.8000    10.8760    -0.0370
 1142   22.820   3163.76    10.8258     0.1300    -0.1819     0.2282    10.7467     1.0368   365.1200    10.3816    -0.0401
 1143   22.840   3164.72    10.4466     0.1324    -0.1389     0.2284    10.3767     1.0463   365.4400    10.0112    -0.0394
 1144   22.860   3165.66    10.4146     0.1349     0.1118     0.2286    10.4047     1.0557   365.7600    10.0389    -0.0251
 1145   22.880   3167.34    13.4915     0.1374     0.3596     0.2288    13.6471     1.0651   366.0800    13.2810     0.0110
 1146   22.900   3174.48    16.2122     0.1399     0.3279     0.2290    16.3545     1.0745   366.4000    15.9881     0.0092
 1147   22.920   3181.63    18.9330     0.1424     0.2962     0.2292    19.0620     1.0840   366.7200    18.6953     0.0074
 1148   22.940   3188.78    21.6535     0.1403     0.2645     0.2294    21.7692     1.0620   367.0400    21.4021     0.0056
 1149   22.960   3195.92    24.3743     0.1417     0.2328     0.2296    24.4766     1.0724   367.3600    24.1093     0.0039
 1150   22.980   3203.07    27.0951     0.1555     0.2011     0.2298    27.1841     1.1772   367.6800    26.8164     0.0021
 1151   23.000   3210.22    29.8158     0.1774     0.1694     0.2300    29.8916     1.3430   368.0000    29.5236     0.0003
 1152   23.020   3217.36    32.5363     0.2019     0.1377     0.2302    32.5988     1.5287   368.3200    32.2304    -0.0015
 1153   23.040   3224.51    35.2571     0.2172     0.1361     0.2304    35.3062     1.1219   368.6400    34.9376    -0.0032
 1154   23.060   3225.57    34.8455     0.2251     0.1747     0.2306    34.9232     0.6434   368.9600    34.5543    -0.0013
 1155   23.080   3226.51    34.1219     0.2347     0.1823     0.2308    34.1981     0.6855   369.2800    33.8288    -0.0015
 1156   23.100   3227.50    33.6880     0.2481     0.1812     0.2310    33.7613     0.7361   369.6000    33.3917    -0.0017
 1157   23.120   3228.50    33.9811     0.2619     0.2012     0.2312    34.0693     0.7725   369.9200    33.6994    -0.0006
 1158   23.140   3229.49    34.3220     0.2791     0.2029     0.2314    34.4073     0.8137   370.2400    34.0370    -0.0008
 1159   23.160   3230.47    34.0930     0.2944     0.1656     0.2316    34.1678     0.8619   370.5600    33.7972    -0.0016
 1160   23.180   3231.46    33.4888     0.3085     0.1880     0.2318    33.5610     0.9168   370.8800    33.1902    -0.0018
 1161   23.200   3232.44    32.9748     0.3018     0.1889     0.2320    33.0534     0.9107   371.2000    32.6822    -0.0014
 1162   23.220   3233.45    32.6955     0.2881     0.1890     0.2322    32.7761     0.8803   371.5200    32.4045    -0.0013
 1163   23.240   3234.43    32.6313     0.2825     0.2022     0.2324    32.7172     0.8653   371.8400    32.3454    -0.0009
 1164   23.260   3235.45    32.6006     0.2833     0.1657     0.2326    32.6756     0.8686   372.1600    32.3035    -0.0017
 1165   23.280   3236.40    32.6024     0.2852     0.1133     0.2328    32.6528     0.8852   372.4800    32.2803    -0.0035
 1166   23.300   3239.75    29.9874     0.2903     0.1650     0.2330    30.0784     0.9900   372.8000    29.7056    -0.0005
 1167   23.320   3240.79    33.9066     0.3034     0.1732     0.2332    33.9811     0.8961   373.1200    33.6080    -0.0017
 1168   23.340   3241.80    34.5519     0.3218     0.1587     0.2334    34.6241     0.9319   373.4400    34.2506    -0.0018
 1169   23.360   3242.83    34.9854     0.3464     0.1851     0.2336    35.0604     0.9909   373.7600    34.6867    -0.0016
 1170   23.380   3243.81    35.3990     0.3630     0.1771     0.2338    35.4719     1.0256   374.0800    35.0978    -0.0017
 1171   23.400   3244.81    35.0807     0.3681     0.1667     0.2340    35.1539     1.0449   374.4000    34.7795    -0.0017
 1172   23.420   3245.84    34.5826     0.3662     0.1753     0.2342    34.6612     1.0583   374.7200    34.2865    -0.0014
 1173   23.440   3246.86    33.9552     0.3590     0.1667     0.2344    34.0223     1.0502   375.0400    33.6473    -0.0022
 1174   23.460   3247.86    33.5731     0.3519     0.1945     0.2346    33.6543     1.0420   375.3600    33.2789    -0.0012
 1175   23.480   3248.88    33.0923     0.3438     0.1487     0.2348    33.1583     1.0357   375.6800    32.7826    -0.0024
 1176   23.500   3249.91    33.0112     0.3277     0.1656     0.2350    33.0776     0.9921   376.0000    32.7016    -0.0024
 1177   23.520   3250.89    33.3168     0.3163     0.1561     0.2352    33.3814     0.9539   376.3200    33.0051    -0.0025
 1178   23.540   3255.15    33.7942     0.3108     0.1650     0.2354    33.8622     0.9295   376.6400    33.4856    -0.0022
 1179   23.560   3260.52    34.2821     0.3044     0.1738     0.2356    34.3538     0.9105   376.9600    33.9768    -0.0019
 1180   23.580   3265.89    34.7699     0.3061     0.1548     0.2358    34.8454     0.8850   377.2800    34.4681    -0.0016
 1181   23.600   3267.17    35.5614     0.3021     0.1321     0.2360    35.6174     0.8505   377.6000    35.2398    -0.0029
 1182   23.620   3268.16    36.2332     0.3141     0.1102     0.2362    36.2857     0.8715   377.9200    35.9078    -0.0031
 1183   23.640   3269.15    36.9470     0.3165     0.1174     0.2364    36.9884     0.8594   378.2400    36.6102    -0.0038
 1184   23.660   3270.16    37.5298     0.3302     0.1114     0.2366    37.5752     0.8821   378.5600    37.1967    -0.0035
 1185   23.680   3271.17    37.7810     0.3474     0.1164     0.2368    37.8339     0.9209   378.8800    37.4551    -0.0030
 1186   23.700   3272.22    37.8396     0.3652     0.1492     0.2370    37.8992     0.9644   379.2000    37.5200    -0.0025
 1187   23.720   3274.09    37.4115     0.3749     0.1472     0.2372    37.4710     0.9958   379.5200    37.0914    -0.0026
 1188   23.740   3276.56    37.0735     0.3828     0.1921     0.2374    37.1496     1.0331   379.8400    36.7698    -0.0015
 1189   23.760   3277.59    36.8025     0.3903     0.2083     0.2376    36.8823     1.0593   380.1600    36.5021    -0.0013
 1190   23.780   3278.62    36.5076     0.3884     0.1947     0.2378    36.5972     1.0608   380.4800    36.2168    -0.0007
 1191   23.800   3279.58    36.3437     0.3866     0.1968     0.2380    36.4218     1.0623   380.8000    36.0410    -0.0014
 1192   23.820   3280.60    36.1803     0.3864     0.2460     0.2382    36.2797     1.0679   381.1200    35.8986     0.0000
 1193   23.840   3281.59    36.0153     0.3940     0.2465     0.2384    36.1209     1.0912   381.4400    35.7395     0.0004
 1194   23.860   3282.59    35.7109     0.4051     0.2299     0.2386    35.8095     1.1336   381.7600    35.4277    -0.0001
 1195   23.880   3284.94    35.2293     0.4052     0.2161     0.2388    35.3221     1.1351   382.0800    34.9400    -0.0005
 1196   23.900   3287.33    34.7414     0.3955     0.2024     0.2390    34.8284     1.1077   382.4000    34.4460    -0.0009
 1197   23.920   3289.69    34.2461     0.3949     0.1819     0.2392    34.3271     1.1390   382.7200    33.9444    -0.0014
 1198   23.940   3290.69    33.5401     0.3993     0.2160     0.2394    33.6277     1.1858   383.0400    33.2446    -0.0009
 1199   23.960   3291.68    32.7763     0.3996     0.2267     0.2396    32.8741     1.2132   383.3600    32.4907    -0.0002
 1200   23.980   3292.63    32.1702     0.3966     0.2122     0.2398    32.2605     1.2292   383.6800    31.8769    -0.0008
 1201   24.000   3293.65    31.7539     0.3797     0.2018     0.2400    31.8462     1.1945   384.0000    31.4622    -0.0006
 1202   24.020   3294.59    31.6872     0.3653     0.1911     0.2402    31.7611     1.1529   384.3200    31.3767    -0.0021
 1203   24.040   3295.60    31.4962     0.3534     0.2074     0.2404    31.5831     1.1217   384.6400    31.1984    -0.0011
 1204   24.060   3296.59    31.4519     0.3513     0.2260     0.2406    31.5474     1.1168   384.9600    31.1625    -0.0004
 1205   24.080   3297.59    31.3011     0.3440     0.1866     0.2408    31.3843     1.0990   385.2800    30.9990    -0.0014
 1206   24.100   3298.59    31.3820     0.3358     0.1610     0.2410    31.4485     1.0699   385.6000    31.0629    -0.0027
 1207   24.120   3299.57    31.6379     0.3320     0.1482     0.2412    31.7048     1.0505   385.9200    31.3189    -0.0026
 1208   24.140   3300.55    32.1515     0.3349     0.1499     0.2414    32.2114     1.0434   386.2400    31.8251    -0.0031
 1209   24.160   3301.56    32.6945     0.3554     0.1375     0.2416    32.7490     1.0919   386.5600    32.3624    -0.0035
 1210   24.180   3302.53    33.1671     0.3558     0.1458     0.2418    33.2308     1.0770   386.8800    32.8439    -0.0027
 1211   24.200   3303.56    33.5140     0.3653     0.1602     0.2420    33.5832     1.0930   387.2000    33.1960    -0.0023
 1212   24.220   3304.49    33.9945     0.3701     0.1334     0.2422    34.0557     1.0932   387.5200    33.6681    -0.0029
 1213   24.240   3305.55    34.5326     0.3732     0.1520     0.2424    34.6020     1.0821   387.8400    34.2142    -0.0023
 1214   24.260   3306.55    34.8670     0.3771     0.1792     0.2426    34.9284     1.0853   388.1600    34.5402    -0.0028
 1215   24.280   3309.34    34.2442     0.3871     0.1903     0.2428    34.3350     1.1350   388.4800    33.9466    -0.0008
 1216   24.300   3310.38    34.8004     0.3934     0.1866     0.2430    34.8788     1.1301   388.8000    34.4900    -0.0016
 1217   24.320   3311.36    34.7955     0.3862     0.1773     0.2432    34.8711     1.1101   389.1200    34.4820    -0.0018
 1218   24.340   3312.35    34.7999     0.3824     0.1625     0.2434    34.8686     1.0989   389.4400    34.4792    -0.0023
 1219   24.360   3313.34    34.4820     0.3884     0.1469     0.2436    34.5443     1.1279   389.7600    34.1545    -0.0028
 1220   24.380   3314.34    34.0231     0.3945     0.1422     0.2438    34.0855     1.1568   390.0800    33.6954    -0.0028
 1221   24.400   3315.37    33.8367     0.3981     0.1317     0.2440    33.8951     1.1770   390.4000    33.5047    -0.0031
 1222   24.420   3316.40    33.7745     0.3950     0.1604     0.2442    33.8372     1.1665   390.7200    33.4465    -0.0028
 1223   24.440   3317.41    33.4892     0.3961     0.1870     0.2444    33.5655     1.1789   391.0400    33.1744    -0.0019
 1224   24.460   3319.51    33.0388     0.3989     0.1950     0.2446    33.1195     1.1941   391.3600    32.7282    -0.0016
 1225   24.480   3322.01    32.5409     0.3936     0.2029     0.2448    32.6250     1.1783   391.6800    32.2333    -0.0014
 1226   24.500   3324.51    32.0430     0.3823     0.1912     0.2450    32.1304     1.1786   392.0000    31.7384    -0.0012
 1227   24.520   3325.59    31.7038     0.3617     0.1908     0.2452    31.7838     1.1396   392.3200    31.3915    -0.0017
 1228   24.540   3326.67    31.3523     0.3473     0.1930     0.2454    31.4343     1.1047   392.6400    31.0416    -0.0016
 1229   24.560   3327.61    31.0334     0.3414     0.1920     0.2456    31.1129     1.0982   392.9600    30.7199    -0.0018
 1230   24.580   3328.60    30.8553     0.3349     0.1788     0.2458    30.9322     1.0846   393.2800    30.5389    -0.0021
 1231   24.600   3329.62    30.7285     0.3257     0.1526     0.2460    30.7955     1.0580   393.6000    30.4019    -0.0029
 1232   24.620   3330.61    30.5449     0.3136     0.1272     0.2462    30.5947     1.0256   393.9200    30.2008    -0.0042
 1233   24.640   3331.59    30.1853     0.3071     0.1084     0.2464    30.2368     1.0142   394.2400    29.8426    -0.0041
 1234   24.660   3332.57    29.6263     0.3046     0.1094     0.2466    29.6697     1.0201   394.5600    29.2751    -0.0049
 1235   24.680   3333.53    29.0945     0.3009     0.0691     0.2468    29.1255     1.0298   394.8800    28.7306    -0.0060
 1236   24.700   3334.51    28.4579     0.2905     0.0822     0.2470    28.4911     1.0166   395.2000    28.0959    -0.0060
 1237   24.720   3335.49    27.6938     0.2880     0.0842     0.2472    27.7293     1.0335   395.5200    27.3337    -0.0060
 1238   24.740   3336.46    27.0651     0.2853     0.1012     0.2474    27.1042     1.0497   395.8400    26.7083    -0.0058
 1239   24.760   3337.44    26.5572     0.2803     0.1028     0.2476    26.6019     1.0526   396.1600    26.2057    -0.0054
 1240   24.780   3338.43    25.9371     0.2698     0.1028     0.2478    25.9774     1.0362   396.4800    25.5809    -0.0059
 1241   24.800   3339.44    25.2845     0.2574     0.1272     0.2480    25.3371     1.0139   396.8000    24.9403    -0.0049
 1242   24.820   3340.41    24.8773     0.2439     0.1218     0.2482    24.9299     0.9780   397.1200    24.5328    -0.0050
 1243   24.840   3341.37    24.7792     0.2273     0.1078     0.2484    24.8271     0.9189   397.4400    24.4296    -0.0055
 1244   24.860   3342.38    25.3713     0.2085     0.1085     0.2486    25.4171     0.8257   397.7600    25.0193    -0.0056
 1245   24.880   3343.38    26.1922     0.2028     0.0929     0.2488    26.2307     0.7782   398.0800    25.8326    -0.0061
 1246   24.900   3344.34    26.9377     0.2092     0.0429     0.2490    26.9596     0.7801   398.4000    26.5612    -0.0074
 1247   24.920   3345.36    27.2840     0.2242     0.0395     0.2492    27.3024     0.8217   398.7200    26.9037    -0.0076
 1248   24.940   3346.36    27.5741     0.2384    -0.0010     0.2494    27.5763     0.8668   399.0400    27.1772    -0.0090
 1249   24.960   3347.34    28.0722     0.2474     0.0229     0.2496    28.0766     0.8827   399.3600    27.6773    -0.0086
 1250   24.980   3348.27    28.7961     0.2668     0.0114     0.2498    28.8108     0.9292   399.6800    28.4111    -0.0076
 1251   25.000   3349.27    29.9370     0.2859     0.0144     0.2500    29.9458     0.9523   400.0000    29.5458    -0.0078
 1252   25.020   3350.29    31.4102     0.3051     0.0040     0.2502    31.4088     0.9755   400.3200    31.0085    -0.0082
 1253   25.040   3351.34    32.5361     0.3228     0.0031     0.2504    32.5391     0.9990   400.6400    32.1384    -0.0076
 1254   25.060   3352.34    33.1863     0.3396     0.0127     0.2506    33.1914     1.0276   400.9600    32.7904    -0.0073
 1255   25.080   3353.32    33.4225     0.3420     0.0321     0.2508    33.4323     1.0231   401.2800    33.0310    -0.0069
 1256   25.100   3364.40    33.6135     0.3523     0.0895     0.2510    33.6428     1.0542   401.6000    33.2412    -0.0055
 1257   25.120   3380.24    33.8926     0.3715     0.1469     0.2512    33.9460     1.1115   401.9200    33.5441    -0.0037
 1258   25.140   3394.71    34.1649     0.3928     0.1943     0.2514    34.2415     1.1693   402.2400    33.8393    -0.0020
 1259   25.160   3395.72    34.4972     0.4134     0.2023     0.2516    34.5854     1.2047   402.5600    34.1828    -0.0012
 1260   25.180   3396.76    34.9044     0.4336     0.1829     0.2518    34.9811     1.2480   402.8800    34.5783    -0.0020
 1261   25.200   3397.83    35.6225     0.4423     0.2087     0.2520    35.7048     1.2498   403.2000    35.3016    -0.0016
 1262   25.220   3398.84    36.5814     0.4433     0.2473     0.2522    36.6789     1.2156   403.5200    36.2754    -0.0006
 1263   25.240   3399.87    37.4495     0.4461     0.2294     0.2524    37.5461     1.1920   403.8400    37.1423    -0.0006
 1264   25.260   3400.88    37.7457     0.4506     0.2406     0.2526    37.8471     1.1926   404.1600    37.4429    -0.0003
 1265   25.280   3401.89    37.6538     0.4538     0.1790     0.2528    37.7410     1.2027   404.4800    37.3365    -0.0012
 1266   25.300   3402.88    37.2167     0.4462     0.1437     0.2530    37.2816     1.1948   404.8000    36.8768    -0.0027
 1267   25.320   3403.87    36.5912     0.4384     0.1193     0.2532    36.6466     1.1930   405.1200    36.2415    -0.0033
 1268   25.340   3404.85    35.2754     0.4389     0.1211     0.2534    35.3246     1.2331   405.4400    34.9191    -0.0039
 1269   25.360   3405.83    33.2645     0.4320     0.1302     0.2536    33.3180     1.2869   405.7600    32.9122    -0.0038
 1270   25.380   3406.84    31.1109     0.4144     0.1231     0.2538    31.1628     1.3136   406.0800    30.7567    -0.0042
 1271   25.400   3407.80    28.9574     0.3932     0.1288     0.2540    29.0092     1.3367   406.4000    28.6028    -0.0046
 1272   25.420   3408.77    26.8826     0.3552     0.1281     0.2542    26.9392     1.3069   406.7200    26.5324    -0.0045
 1273   25.440   3409.78    25.7460     0.3145     0.1464     0.2544    25.8089     1.2174   407.0400    25.4019    -0.0041
 1274   25.460   3410.78    25.6370     0.2842     0.1760     0.2546    25.7121     1.1104   407.3600    25.3047    -0.0030
 1275   25.480   3411.75    25.8956     0.2637     0.1771     0.2548    25.9711     1.0188   407.6800    25.5634    -0.0029
 1276   25.500   3412.78    25.8538     0.2578     0.1308     0.2550    25.9149     0.9955   408.0000    25.5069    -0.0043
 1277   25.520   3413.75    25.5836     0.2510     0.0656     0.2552    25.6245     0.9726   408.3200    25.2161    -0.0063
 1278   25.540   3414.78    25.5613     0.2442     0.0450     0.2554    25.5800     0.9496   408.6400    25.1713    -0.0084
 1279   25.560   3415.80    25.9084     0.2386     0.0562     0.2556    25.9314     0.9219   408.9600    25.5224    -0.0079
 1280   25.580   3416.75    26.4020     0.2425     0.0533     0.2558    26.4179     0.9222   409.2800    26.0086    -0.0084
 1281   25.600   3417.79    26.9196     0.2456     0.0094     0.2560    26.9292     0.9187   409.6000    26.5196    -0.0088
 1282   25.620   3420.07    27.3498     0.2501     0.0528     0.2562    27.3655     0.9260   409.9200    26.9556    -0.0082
 1283   25.640   3423.10    27.8895     0.2550     0.0971     0.2564    27.9239     0.9443   410.2400    27.5136    -0.0064
 1284   25.660   3425.82    28.4936     0.2619     0.1088     0.2566    28.5425     0.9472   410.5600    28.1319    -0.0050
 1285   25.680   3426.82    29.3754     0.2714     0.0660     0.2568    29.4100     0.9369   410.8800    28.9992    -0.0060
 1286   25.700   3427.87    30.7105     0.2847     0.0792     0.2570    30.7413     0.9366   411.2000    30.3301    -0.0061
 1287   25.720   3428.92    31.9923     0.2948     0.0889     0.2572    32.0305     0.9322   411.5200    31.6190    -0.0053
 1288   25.740   3429.99    33.0356     0.3090     0.0840     0.2574    33.0706     0.9373   411.8400    32.6588    -0.0053
 1289   25.760   3431.01    33.2715     0.3297     0.1016     0.2576    33.3107     0.9906   412.1600    32.8985    -0.0050
 1290   25.780   3432.00    33.0750     0.3403     0.0859     0.2578    33.1140     1.0276   412.4800    32.7016    -0.0050
 1291   25.800   3433.01    32.8431     0.3466     0.0723     0.2580    32.8721     1.0553   412.8000    32.4593    -0.0058
 1292   25.820   3434.01    32.8759     0.3537     0.0642     0.2582    32.9039     1.0773   413.1200    32.4908    -0.0059
 1293   25.840   3435.00    32.8293     0.3700     0.0781     0.2584    32.8592     1.1270   413.4400    32.4457    -0.0058
 1294   25.860   3436.04    32.4440     0.3953     0.1163     0.2586    32.4873     1.2172   413.7600    32.0735    -0.0048
 1295   25.880   3437.03    32.0598     0.4010     0.1277     0.2588    32.1119     1.2469   414.0800    31.6978    -0.0043
 1296   25.900   3438.03    32.0151     0.3913     0.1525     0.2590    32.0814     1.2103   414.4000    31.6670    -0.0032
 1297   25.920   3439.03    32.5429     0.3816     0.1456     0.2592    32.6001     1.1737   414.7200    32.1854    -0.0038
 1298   25.940   3440.04    32.7068     0.3760     0.1687     0.2594    32.7711     1.1519   415.0400    32.3560    -0.0033
 1299   25.960   3441.02    32.6052     0.3689     0.1730     0.2596    32.6863     1.1318   415.3600    32.2709    -0.0021
 1300   25.980   3442.03    32.2571     0.3664     0.1381     0.2598    32.3153     1.1268   415.6800    31.8996    -0.0038
 1301   26.000   3444.26    30.6803     0.3676     0.1520     0.2600    30.7422     1.1422   416.0000    30.3262    -0.0037
 1302   26.020   3446.66    28.9619     0.3822     0.1658     0.2602    29.0295     1.1875   416.3200    28.6132    -0.0034
 1303   26.040   3448.80    27.0982     0.3965     0.1566     0.2604    27.1681     1.4380   416.6400    26.7514    -0.0035
 1304   26.060   3449.74    24.6715     0.3975     0.1782     0.2606    24.7409     1.5974   416.9600    24.3239    -0.0039
 1305   26.080   3450.71    22.5166     0.3720     0.1554     0.2608    22.5831     1.6421   417.2800    22.1658    -0.0046
 1306   26.100   3451.68    21.5810     0.3387     0.2174     0.2610    21.6555     1.5697   417.6000    21.2379    -0.0039
 1307   26.120   3452.71    22.3123     0.3134     0.3315     0.2612    22.4288     1.4080   417.9200    22.0109     0.0007
 1308   26.140   3453.75    23.6011     0.2916     0.4431     0.2614    23.7754     1.2444   418.2400    23.3572     0.0066
 1309   26.160   3454.78    25.0879     0.2999     0.3338     0.2616    25.2522     1.2033   418.5600    24.8336     0.0052
 1310   26.180   3455.78    25.4396     0.3138     0.1239     0.2618    25.4986     1.2307   418.8800    25.0797    -0.0048
 1311   26.200   3456.79    24.7727     0.2965     0.0099     0.2620    24.7934     1.1790   419.2000    24.3742    -0.0087
 1312   26.220   3457.76    24.1389     0.2701    -0.0080     0.2622    24.1308     1.1111   419.5200    23.7112    -0.0119
 1313   26.240   3458.81    24.6573     0.2547    -0.0134     0.2624    24.6544     1.0518   419.8400    24.2345    -0.0111
 1314   26.260   3459.85    26.7384     0.2558    -0.0051     0.2626    26.7344     0.9767   420.1600    26.3142    -0.0104
 1315   26.280   3460.88    30.0984     0.2582     0.0359     0.2628    30.1085     0.8623   420.4800    29.6880    -0.0081
 1316   26.300   3461.91    33.4370     0.2689     0.0483     0.2630    33.4557     0.8089   420.8000    33.0349    -0.0066
 1317   26.320   3462.98    35.4756     0.2784     0.0136     0.2632    35.4860     0.7883   421.1200    35.0649    -0.0068
 1318   26.340   3463.96    35.5042     0.2768    -0.0247     0.2634    35.4983     0.7764   421.4400    35.0768    -0.0079
 1319   26.360   3464.97    33.9621     0.2745    -0.0366     0.2636    33.9461     0.7955   421.7600    33.5244    -0.0090
 1320   26.380   3465.97    31.6499     0.2805    -0.0263     0.2638    31.6412     0.8690   422.0800    31.2191    -0.0091
 1321   26.400   3466.96    29.4240     0.2882    -0.0566     0.2640    29.4041     0.9636   422.4000    28.9817    -0.0108
 1322   26.420   3467.92    27.6170     0.2990    -0.0837     0.2642    27.5847     1.0699   422.7200    27.1620    -0.0126
 1323   26.440   3468.89    26.3510     0.3077    -0.0857     0.2644    26.3147     1.1636   423.0400    25.8917    -0.0135
 1324   26.460   3469.85    25.4472     0.3036    -0.0810     0.2646    25.4127     1.1852   423.3600    24.9893    -0.0139
 1325   26.480   3470.79    25.1550     0.2924    -0.0614     0.2648    25.1252     1.1616   423.6800    24.7015    -0.0136
 1326   26.500   3471.81    25.8790     0.2760    -0.0375     0.2650    25.8594     1.0859   424.0000    25.4354    -0.0123
 1327   26.520   3472.82    27.5763     0.2647    -0.0201     0.2652    27.5661     0.9782   424.3200    27.1418    -0.0107
 1328   26.540   3473.88    30.3267     0.2488    -0.0142     0.2654    30.3209     0.8458   424.6400    29.8963    -0.0093
 1329   26.560   3474.94    33.7366     0.2391    -0.0280     0.2656    33.7279     0.7152   424.9600    33.3029    -0.0086
 1330   26.580   3475.97    36.3461     0.2580    -0.0566     0.2658    36.3280     0.7121   425.2800    35.9027    -0.0086
 1331   26.600   3477.00    36.9759     0.2908    -0.0942     0.2660    36.9382     0.7862   425.6000    36.5126    -0.0097
 1332   26.620   3477.97    36.2716     0.3214    -0.1063     0.2662    36.2283     0.8855   425.9200    35.8024    -0.0103
 1333   26.640   3478.96    35.3995     0.3494    -0.1037     0.2664    35.3561     0.9780   426.2400    34.9299    -0.0106
 1334   26.660   3479.96    34.9820     0.3694    -0.1175     0.2666    34.9337     1.0586   426.5600    34.5071    -0.0111
 1335   26.680   3480.99    35.1915     0.3875    -0.1154     0.2668    35.1435     1.0969   426.8800    34.7166    -0.0110
 1336   26.700   3482.00    35.9813     0.4058    -0.1067     0.2670    35.9339     1.1343   427.2000    35.5067    -0.0107
 1337   26.720   3483.05    36.7661     0.4183    -0.0807     0.2672    36.7275     1.1433   427.5200    36.3000    -0.0099
 1338   26.740   3484.06    36.7028     0.4258    -0.0587     0.2674    36.6760     1.1562   427.8400    36.2482    -0.0091
 1339   26.760   3485.15    35.7219     0.4203    -0.0456     0.2676    35.7014     1.1632   428.1600    35.2732    -0.0090
 1340   26.780   3488.26    34.3678     0.4131     0.0397     0.2678    34.3720     1.3188   428.4800    33.9435    -0.0075
 1341   26.800   3492.41    33.2435     0.4028     0.1190     0.2680    33.2839     1.2677   428.8000    32.8551    -0.0052
 1342   26.820   3494.39    32.5204     0.4002     0.1056     0.2682    32.5613     1.2283   429.1200    32.1322    -0.0053
 1343   26.840   3495.40    32.3553     0.3929     0.1231     0.2684    32.4057     1.2141   429.4400    31.9763    -0.0046
 1344   26.860   3496.39    32.6079     0.3950     0.1487     0.2686    32.6656     1.2149   429.7600    32.2358    -0.0041
 1345   26.880   3497.38    32.5639     0.3976     0.1748     0.2688    32.6337     1.2177   430.0800    32.2036    -0.0032
 1346   26.900   3498.37    31.9204     0.3914     0.1801     0.2690    31.9972     1.2183   430.4000    31.5668    -0.0027
 1347   26.920   3499.38    31.0701     0.3678     0.1186     0.2692    31.1261     1.1714   430.7200    30.6953    -0.0044
 1348   26.940   3500.30    29.6072     0.3580     0.0996     0.2694    29.6507     1.1951   431.0400    29.2197    -0.0057
 1349   26.960   3501.26    27.6482     0.3817     0.0903     0.2696    27.6877     1.3663   431.3600    27.2564    -0.0064
 1350   26.980   3502.25    25.5914     0.3885     0.1143     0.2698    25.6363     1.5028   431.6800    25.2047    -0.0065
 1351   27.000   3503.23    23.5475     0.3984     0.1406     0.2700    23.6006     1.6242   432.0000    23.1686    -0.0062
 1352   27.020   3504.20    21.6980     0.3938     0.1565     0.2702    21.7660     1.7521   432.3200    21.3337    -0.0051
 1353   27.040   3505.23    20.2801     0.3661     0.1710     0.2704    20.3496     1.7706   432.6400    19.9169    -0.0053
 1354   27.060   3506.29    21.3857     0.3401     0.3167     0.2706    21.4843     1.6598   432.9600    21.0513    -0.0018
 1355   27.080   3507.37    25.2422     0.3257     0.5487     0.2708    25.4682     1.3959   433.2800    25.0349     0.0107
 1356   27.100   3508.40    28.2259     0.3273     0.5036     0.2710    28.4385     1.2597   433.6000    28.0049     0.0084
 1357   27.120   3509.43    29.8992     0.3289     0.2245     0.2712    30.0251     1.1235   433.9200    29.5912     0.0010
 1358   27.140   3510.49    31.0451     0.3330     0.1388     0.2714    31.1218     1.0964   434.2400    30.6876    -0.0029
 1359   27.160   3511.54    31.8646     0.3372     0.0702     0.2716    31.9019     1.0780   434.5600    31.4673    -0.0058
 1360   27.180   3512.57    32.7714     0.3415     0.0511     0.2718    32.7847     1.0597   434.8800    32.3498    -0.0074
 1361   27.200   3529.63    33.8295     0.3744     0.1161     0.2720    33.8689     1.1232   435.2000    33.4337    -0.0054
 1362   27.220   3547.07    34.8790     0.3982     0.1812     0.2722    34.9456     1.1590   435.5200    34.5101    -0.0033
 1363   27.240   3556.34    35.9104     0.4220     0.2090     0.2724    35.9948     1.1949   435.8400    35.5590    -0.0020
 1364   27.260   3558.56    36.9261     0.4272     0.2319     0.2726    37.0202     1.1949   436.1600    36.5841    -0.0014
 1365   27.280   3560.77    37.9418     0.4381     0.2547     0.2728    38.0455     1.1965   436.4800    37.6090    -0.0007
 1366   27.300   3562.45    37.7013     0.4490     0.2267     0.2730    37.7991     1.1981   436.8000    37.3623    -0.0011
 1367   27.320   3565.38    37.0947     0.4250     0.2091     0.2732    37.1851     1.1254   437.1200    36.7480    -0.0016
 1368   27.340   3568.31    36.4881     0.3916     0.1914     0.2734    36.5711     1.0370   437.4400    36.1336    -0.0021
 1369   27.360   3570.28    35.9353     0.3861     0.1868     0.2736    36.0124     1.0686   437.7600    35.5747    -0.0025
 1370   27.380   3572.80    34.9256     0.4137     0.1959     0.2738    35.0066     1.1492   438.0800    34.5685    -0.0023
 1371   27.400   3575.32    33.9160     0.4436     0.2051     0.2740    34.0008     1.2322   438.4000    33.5624    -0.0021
 1372   27.420   3577.44    32.7287     0.4401     0.1787     0.2742    32.8061     1.3406   438.7200    32.3674    -0.0028
 1373   27.440   3578.43    31.5676     0.4159     0.1923     0.2744    31.6498     1.2940   439.0400    31.2108    -0.0025
 1374   27.460   3579.44    31.1385     0.4015     0.2004     0.2746    31.2220     1.2546   439.3600    30.7826    -0.0025
 1375   27.480   3580.47    31.9092     0.3912     0.2283     0.2748    31.9989     1.2181   439.6800    31.5592    -0.0019
 1376   27.500   3581.45    32.1606     0.3823     0.2300     0.2750    32.2610     1.1876   440.0000    31.8210    -0.0011
 1377   27.520   3582.48    31.8754     0.3723     0.1626     0.2752    31.9512     1.1667   440.3200    31.5109    -0.0030
 1378   27.540   3583.52    31.3632     0.3386     0.1201     0.2754    31.4162     1.0757   440.6400    30.9756    -0.0048
 1379   27.560   3585.09    30.4849     0.2952     0.1151     0.2756    30.5348     0.9602   440.9600    30.0938    -0.0052
 1380   27.580   3587.57    29.8347     0.2812     0.1044     0.2758    29.8801     0.9148   441.2800    29.4388    -0.0057
 1381   27.600   3590.06    29.1846     0.2716     0.0923     0.2760    29.2255     0.8971   441.6000    28.7839    -0.0062
 1382   27.620   3591.43    28.5205     0.2586     0.0626     0.2762    28.5499     0.9050   441.9200    28.1080    -0.0073
 1383   27.640   3592.45    27.6777     0.2766     0.0675     0.2764    27.7060     0.9975   442.2400    27.2638    -0.0077
 1384   27.660   3593.43    26.7807     0.3013     0.0677     0.2766    26.8092     1.1060   442.5600    26.3666    -0.0079
 1385   27.680   3594.40    25.8248     0.3107     0.0675     0.2768    25.8529     1.1839   442.8800    25.4101    -0.0083
 1386   27.700   3595.39    25.2642     0.2949     0.0738     0.2770    25.2920     1.1590   443.2000    24.8488    -0.0085
 1387   27.720   3596.45    25.5387     0.2819     0.1119     0.2772    25.5810     1.1084   443.5200    25.1375    -0.0070
 1388   27.740   3597.51    27.5940     0.2607     0.2064     0.2774    27.6666     0.9584   443.8400    27.2228    -0.0039
 1389   27.760   3598.51    30.4552     0.2393     0.1450     0.2776    30.5362     0.7985   444.1600    30.0920    -0.0028
 1390   27.780   3599.53    31.6301     0.2157    -0.0346     0.2778    31.6376     0.6834   444.4800    31.1931    -0.0083
 1391   27.800   3600.56    30.9442     0.2114    -0.0476     0.2780    30.9230     0.6765   444.8000    30.4782    -0.0108
 1392   27.820   3601.53    29.5735     0.2075    -0.0481     0.2782    29.5497     0.6910   445.1200    29.1046    -0.0115
 1393   27.840   3602.50    28.2864     0.2187    -0.0014     0.2784    28.2802     0.7642   445.4400    27.8347    -0.0105
 1394   27.860   3603.47    26.4774     0.2471     0.0177     0.2786    26.4867     0.9197   445.7600    26.0410    -0.0098
 1395   27.880   3604.44    24.6801     0.2538    -0.0354     0.2788    24.6705     1.0131   446.0800    24.2244    -0.0125
 1396   27.900   3605.41    22.7905     0.2308    -0.0651     0.2790    22.7665     0.9998   446.4000    22.3201    -0.0151
 1397   27.920   3606.36    21.3534     0.2208    -0.0816     0.2792    21.3214     1.0326   446.7200    20.8747    -0.0170
 1398   27.940   3607.34    21.1507     0.2329    -0.0820     0.2794    21.1144     1.1048   447.0400    20.6673    -0.0177
 1399   27.960   3608.34    22.2090     0.2390    -0.0198     0.2796    22.1893     1.1075   447.3600    21.7420    -0.0150
 1400   27.980   3609.35    24.1384     0.2514    -0.0041     0.2798    24.1424     1.0850   447.6800    23.6947    -0.0114
 1401   28.000   3610.38    25.8322     0.2604    -0.0339     0.2800    25.8248     1.0353   448.0000    25.3768    -0.0117
 1402   28.020   3611.41    26.8974     0.2856    -0.0023     0.2802    26.8880     1.0843   448.3200    26.4397    -0.0115
 1403   28.040   3612.45    28.6858     0.3243    -0.0217     0.2804    28.6846     1.1500   448.6400    28.2359    -0.0100
 1404   28.060   3613.48    30.8384     0.3553    -0.0285     0.2806    30.8250     1.1621   448.9600    30.3760    -0.0103
 1405   28.080   3614.47    32.9332     0.3807    -0.0261     0.2808    32.9225     1.1794   449.2800    32.4732    -0.0094
 1406   28.100   3615.48    34.2622     0.4118    -0.0222     0.2810    34.2541     1.2198   449.6000    33.8045    -0.0089
 1407   28.120   3616.52    34.6667     0.4423    -0.0173     0.2812    34.6573     1.2783   449.9200    34.2074    -0.0089
 1408   28.140   3617.53    34.9763     0.4532    -0.0049     0.2814    34.9712     1.3028   450.2400    34.5209    -0.0085
 1409   28.160   3618.50    35.1716     0.4518     0.0189     0.2816    35.1777     1.2851   450.5600    34.7271    -0.0077
 1410   28.180   3619.54    35.0548     0.4515     0.0298     0.2818    35.0663     1.2853   450.8800    34.6154    -0.0074
 1411   28.200   3620.60    34.5947     0.4498     0.0420     0.2820    34.6141     1.2917   451.2000    34.1629    -0.0069
 1412   28.220   3621.66    34.0227     0.4456     0.0507     0.2822    34.0444     1.2989   451.5200    33.5929    -0.0069
 1413   28.240   3622.74    33.4925     0.4330     0.0566     0.2824    33.5188     1.2907   451.8400    33.0669    -0.0066
 1414   28.260   3623.75    32.9101     0.3929     0.0660     0.2826    32.9327     1.1912   452.1600    32.4805    -0.0070
 1415   28.280   3624.78    32.6666     0.3766     0.0789     0.2828    32.6980     1.1513   452.4800    32.2455    -0.0064
 1416   28.300   3625.76    32.1383     0.3898     0.1132     0.2830    32.1793     1.2061   452.8000    31.7265    -0.0058
 1417   28.320   3626.76    30.7871     0.3907     0.1319     0.2832    30.8411     1.2587   453.1200    30.3880    -0.0051
 1418   28.340   3627.76    28.8039     0.3791     0.1749     0.2834    28.8716     1.3146   453.4400    28.4182    -0.0043
 1419   28.360   3628.71    26.1201     0.3687     0.1887     0.2836    26.2048     1.3968   453.7600    25.7511    -0.0032
 1420   28.380   3629.69    23.2896     0.3582     0.0788     0.2838    23.3389     1.4791   454.0800    22.8848    -0.0073
 1421   28.400   3630.69    23.1151     0.3324     0.1836     0.2840    23.1684     1.4463   454.4000    22.7140    -0.0069
 1422   28.420   3631.72    25.7054     0.3032     0.3574     0.2842    25.8749     1.1937   454.7200    25.4201     0.0047
 1423   28.440   3632.82    27.3812     0.2884     0.1762     0.2844    27.4635     1.0551   455.0400    27.0084    -0.0033
 1424   28.460   3635.41    26.8350     0.2846     0.1190     0.2846    26.8933     1.0378   455.3600    26.4379    -0.0056
 1425   28.480   3638.01    26.2889     0.2700     0.0619     0.2848    26.3231     0.9846   455.6800    25.8675    -0.0079
 1426   28.500   3640.31    25.4849     0.2686     0.0569     0.2850    25.5029     1.0164   456.0000    25.0469    -0.0097
 1427   28.520   3641.28    23.0364     0.3170     0.0567     0.2852    23.0604     1.3245   456.3200    22.6041    -0.0101
 1428   28.540   3642.21    19.6802     0.3633    -0.0006     0.2854    19.6923     1.7469   456.6400    19.2357    -0.0134
 1429   28.560   3643.15    16.5586     0.3933    -0.0261     0.2856    16.5491     2.2656   456.9600    16.0921    -0.0192
 1430   28.580   3644.13    15.0460     0.4627     0.0343     0.2858    15.0517     3.0506   457.2800    14.5944    -0.0187
 1431   28.600   3645.06    15.1471     0.5053     0.2092     0.2860    15.1991     3.3486   457.6000    14.7415    -0.0110
 1432   28.620   3646.06    14.3842     0.5249     0.3769     0.2862    14.5370     3.6277   457.9200    14.0791     0.0055
 1433   28.640   3647.02    14.1293     0.4959     0.2548     0.2864    14.2454     3.4947   458.2400    13.7871    -0.0008
 1434   28.660   3647.99    12.8923     0.4202     0.3723     0.2866    13.0239     3.2236   458.5600    12.5653     0.0022
 1435   28.680   3648.99    13.1152     0.3512     0.5450     0.2868    13.3070     2.7622   458.8800    12.8481     0.0132
 1436   28.700   3650.04    16.3001     0.3170     0.5667     0.2870    16.5436     2.0863   459.2000    16.0844     0.0184
 1437   28.720   3651.05    19.7603     0.3132     0.4769     0.2872    19.9955     1.6692   459.5200    19.5360     0.0140
 1438   28.740   3652.01    21.1303     0.3273     0.1335     0.2874    21.2268     1.5579   459.8400    20.7669    -0.0028
 1439   28.760   3653.02    20.2806     0.3033     0.0365     0.2876    20.3007     1.4558   460.1600    19.8405    -0.0121
 1440   28.780   3653.95    17.8828     0.2894     0.0100     0.2878    17.8927     1.5208   460.4800    17.4322    -0.0152
 1441   28.800   3654.88    13.6615     0.2952    -0.0366     0.2880    13.6524     1.9566   460.8000    13.1916    -0.0237
 1442   28.820   3655.84    11.5378     0.3127    -0.0244     0.2882    11.5181     2.6776   461.1200    11.0570    -0.0303
 1443   28.840   3656.79    12.1739     0.3160     0.3036     0.2884    12.2390     2.6623   461.4400    11.7776    -0.0116
 1444   28.860   3657.80    13.7342     0.3169     0.3655     0.2886    13.9126     2.3395   461.7600    13.4509     0.0102
 1445   28.880   3658.77    13.1310     0.3097    -0.0554     0.2888    13.1582     2.3147   462.0800    12.6961    -0.0178
 1446   28.900   3659.69    11.6182     0.2776    -0.0921     0.2890    11.5792     2.3029   462.4000    11.1168    -0.0344
 1447   28.920   3660.69    11.5640     0.2455    -0.0695     0.2892    11.5301     2.1777   462.7200    11.0674    -0.0335
 1448   28.940   3661.70    13.6846     0.2486     0.0853     0.2894    13.6909     1.8810   463.0400    13.2278    -0.0209
 1449   28.960   3662.68    15.4284     0.2764     0.2179     0.2896    15.4923     1.8197   463.3600    15.0289    -0.0092
 1450   28.980   3663.64    15.2714     0.3037     0.0156     0.2898    15.3094     1.9769   463.6800    14.8457    -0.0134
 1451   29.000   3664.59    14.9625     0.2853     0.0112     0.2900    14.9602     1.8988   464.0000    14.4962    -0.0204
 1452   29.020   3665.59    14.7671     0.2890     0.0501     0.2902    14.7788     1.9635   464.3200    14.3144    -0.0183
 1453   29.040   3666.59    14.8032     0.3063     0.1093     0.2904    14.8357     2.0418   464.6400    14.3711    -0.0148
 1454   29.060   3667.56    15.6100     0.2903     0.2331     0.2906    15.6979     1.8551   464.9600    15.2330    -0.0054
 1455   29.080   3668.52    16.2782     0.2778     0.1378     0.2908    16.3584     1.7084   465.2800    15.8931    -0.0063
 1456   29.100   3669.48    15.2288     0.2898     0.0124     0.2910    15.2464     1.8828   465.6000    14.7808    -0.0169
 1457   29.120   3670.44    14.3089     0.2973    -0.0120     0.2912    14.3037     2.0472   465.9200    13.8378    -0.0219
 1458   29.140   3672.03    14.7788     0.2787     0.0472     0.2914    14.7934     1.8963   466.2400    14.3271    -0.0179
 1459   29.160   3702.67    15.8014     0.2661     0.0681     0.2916    15.8270     1.7971   466.5600    15.3604    -0.0152
 1460   29.180   3734.49    16.8397     0.2811     0.0777     0.2918    16.8740     1.7775   466.8800    16.4071    -0.0128
 1461   29.200   3738.09    17.2329     0.2728     0.0459     0.2920    17.2464     1.5921   467.2000    16.7792    -0.0155
 1462   29.220   3739.05    17.7839     0.2652    -0.0248     0.2922    17.7952     1.4976   467.5200    17.3277    -0.0153
 1463   29.240   3740.04    18.5943     0.2515    -0.1204     0.2924    18.5495     1.3696   467.8400    18.0816    -0.0221
 1464   29.260   3741.01    20.1622     0.2359    -0.1141     0.2926    20.1123     1.1795   468.1600    19.6442    -0.0209
 1465   29.280   3742.03    20.8827     0.2461    -0.0743     0.2928    20.8444     1.1814   468.4800    20.3759    -0.0189
 1466   29.300   3743.04    21.4582     0.2622    -0.0304     0.2930    21.4386     1.2265   468.8000    20.9698    -0.0162
 1467   29.320   3744.04    22.6548     0.2796     0.0581     0.2932    22.6635     1.2683   469.1200    22.1944    -0.0123
 1468   29.340   3745.01    24.2236     0.2860     0.0639     0.2934    24.2574     1.2174   469.4400    23.7880    -0.0089
 1469   29.360   3746.01    25.6222     0.2840     0.0016     0.2936    25.6280     1.1278   469.7600    25.1582    -0.0111
 1470   29.380   3747.05    26.6679     0.2302    -0.0024     0.2938    26.6724     0.8837   470.0800    26.2023    -0.0108
 1471   29.400   3748.08    30.5103     0.1793     0.0580     0.2940    30.5205     0.6287   470.4000    30.0501    -0.0090
 1472   29.420   3749.17    34.6566     0.1569     0.0616     0.2942    34.6991     0.4567   470.7200    34.2283    -0.0056
 1473   29.440   3750.19    38.1072     0.1511    -0.0234     0.2944    38.1024     0.3982   471.0400    37.6313    -0.0081
 1474   29.460   3751.20    39.0682     0.1341    -0.1061     0.2946    39.0357     0.3435   471.3600    38.5643    -0.0096
 1475   29.480   3752.24    38.4809     0.1243    -0.1327     0.2948    38.4275     0.3215   471.6800    37.9558    -0.0111
 1476   29.500   3753.23    37.0566     0.1327    -0.1579     0.2950    36.9948     0.3557   472.0000    36.5228    -0.0121
 1477   29.520   3754.23    35.2021     0.1402    -0.1834     0.2952    35.1284     0.3968   472.3200    34.6561    -0.0136
 1478   29.540   3755.21    33.8948     0.1336    -0.1966     0.2954    33.8142     0.3933   472.6400    33.3415    -0.0146
 1479   29.560   3756.19    33.3819     0.1300    -0.2059     0.2956    33.2963     0.3871   472.9600    32.8234    -0.0152
 1480   29.580   3757.15    33.2514     0.1312    -0.2052     0.2958    33.1652     0.3948   473.2800    32.6919    -0.0153
 1481   29.600   3758.15    33.4879     0.1312    -0.2029     0.2960    33.4022     0.3935   473.6000    32.9286    -0.0152
 1482   29.620   3759.23    34.6933     0.1365    -0.1988     0.2962    34.6095     0.4005   473.9200    34.1356    -0.0145
 1483   29.640   3760.24    36.7537     0.1429    -0.1980     0.2964    36.6705     0.4004   474.2400    36.1962    -0.0137
 1484   29.660   3761.29    39.1922     0.1473    -0.1954     0.2966    39.1096     0.3849   474.5600    38.6351    -0.0128
 1485   29.680   3762.35    40.7472     0.1558    -0.1913     0.2968    40.6661     0.3847   474.8800    40.1912    -0.0122
 1486   29.700   3763.38    41.5978     0.1580    -0.1816     0.2970    41.5198     0.3829   475.2000    41.0446    -0.0118
 1487   29.720   3764.44    41.9381     0.1581    -0.1703     0.2972    41.8651     0.3773   475.5200    41.3896    -0.0114
 1488   29.740   3765.42    41.8682     0.1634    -0.1598     0.2974    41.7994     0.3892   475.8400    41.3235    -0.0112
 1489   29.760   3766.41    41.0665     0.1638    -0.1400     0.2976    41.0037     0.3974   476.1600    40.5275    -0.0110
 1490   29.780   3767.42    40.1795               -0.1126     0.2978    40.1292              476.4800    39.6527    -0.0105
 1491   29.800   3768.48    40.0734               -0.0995     0.2980    40.0293              476.8000    39.5525    -0.0102
 1492   29.820   3769.55    41.6027               -0.0823     0.2982    41.5648              477.1200    41.0877    -0.0095
 1493   29.840   3770.67    45.0987               -0.0464     0.2984    45.0762              477.4400    44.5988    -0.0079
 1494   29.860   3771.77    49.4414                0.0049     0.2986    49.4347              477.7600    48.9569    -0.0064
 1495   29.875   3772.66    52.8992                           0.2987    52.9140              477.9989    52.4360    -0.0050
 
 
