

 Program UNIPLOT                         version 05.36.02
 _______________
 (c) Fugro Netherlands Marine, Nootdorp, The Netherlands


 ASCII representation of data plotted on a graph.

 This ASCII file presents data interpolated to values per fixed depth interval.
 The data are corrected for the depth-offset differences between the various 
 transducers in the penetrometer.

 The records at the start of penetration may include no values or anomalous
 values where a depth offset implies incomplete penetration of a particular
 sensor into the ground.

 The records at the end of penetration may include no values for data channels
 where the transducer did not reach this depth.

 The reference level for test values is (1) the ground surface for onshore tests and (2) the seafloor for nearshore and offshore tests.

 UNICAS data file          : CPT-1041.000                            
 Output using command file : PlotASCII.cmd

 ASCII file created at : date          :19-Mar-2022
                         time          :10:32:03
 Project number                        :20024805                                                                                            
 Date of testing                       :18-Mar-2022                                                                                         
 Location                              :Hong Kong Offshore Wind Farm Project                                                                
 Test name                             :CPT-1041
 Penetrometer                          :F7.5CKE2HAW2/B/3342
 Serial no                             :1701-3342

 Table description:
 Column ID                             :Parameter name
 ___________________________________________________________________________________
 Rec                                   :Record ID, Record ID [-]
 Depth                                 :Depth, Depth [m]
 Time                                  :Time, Time [s]
 Cone                                  :Cone Resistance, Cone Resistance [MPa]
 Friction                              :Sleeve Friction, Sleeve Friction [MPa]
 Pore 2                                :Porewater Pressure, Porewater Pressure at Shoulder [MPa]
 HydroPress                            :Hydrostatic Pressure, Hydrostatic Pressure [MPa]
 qt                                    :Total Cone Resistance, Total Cone Resistance [MPa]
 Fric_ratio                            :Friction Ratio, Friction Ratio [%]
 SigmaVert                             :Vertical stress, Vertical stress [kPa] as specified in ground model
 Qnet                                  :Net Cone Resistance, Net Cone Resistance [MPa], unit weight as specified in ground model
 Bq                                    :Porewater Pressure Ratio, Porewater Pressure Ratio [-], unit weight as specified in ground model


 Data table:
  Rec    Depth      Time       Cone   Friction     Pore 2 HydroPress         qt Fric_ratio  SigmaVert       Qnet         Bq
   No        m         s        MPa        MPa        MPa        MPa        MPa          %        kPa        MPa          -
    1    0.000   1915.22     0.0000                           0.0000     0.0000                0.0000     0.0000           
    2    0.020   1918.72     0.0012                           0.0002     0.0011                0.3200     0.0007           
    3    0.040   1922.21     0.0023                           0.0004     0.0021                0.6400     0.0015           
    4    0.060   1924.71     0.0039     0.0004    -0.0010     0.0006     0.0035    12.9108     0.9600     0.0026    -0.5965
    5    0.080   1925.81     0.0056     0.0005    -0.0004     0.0008     0.0053     9.9540     1.2800     0.0040    -0.3884
    6    0.100   1926.82     0.0062     0.0005    -0.0007     0.0010     0.0059     9.0512     1.6000     0.0043    -0.3822
    7    0.120   1927.87     0.0083     0.0007     0.0003     0.0012     0.0084     9.3853     1.9200     0.0065    -0.1125
    8    0.140   1928.93     0.0097     0.0007     0.0008     0.0014     0.0100     7.9601     2.2400     0.0077    -0.0896
    9    0.160   1929.98     0.0114     0.0008     0.0010     0.0016     0.0118     7.3736     2.5600     0.0092    -0.0812
   10    0.180   1931.00     0.0113     0.0009     0.0010     0.0018     0.0117     7.5648     2.8800     0.0088    -0.1062
   11    0.200   1932.07     0.0128     0.0011     0.0018     0.0020     0.0135     8.9573     3.2000     0.0103    -0.0281
   12    0.220   1933.10     0.0134     0.0014     0.0019     0.0022     0.0140    10.3993     3.5200     0.0105    -0.0737
   13    0.240   1934.18     0.0158     0.0016     0.0038     0.0024     0.0172    11.1058     3.8400     0.0134     0.0707
   14    0.260   1935.21     0.0185     0.0016     0.0030     0.0026     0.0199     9.5326     4.1600     0.0158     0.0436
   15    0.280   1936.24     0.0207     0.0015     0.0041     0.0028     0.0223     7.9951     4.4800     0.0178     0.0596
   16    0.300   1946.60     0.0224     0.0017     0.0025     0.0030     0.0237     7.2686     4.8000     0.0189    -0.0128
   17    0.320   1964.74     0.0214     0.0018     0.0005     0.0032     0.0219     7.9948     5.1200     0.0168    -0.1553
   18    0.340   1982.88     0.0205     0.0019    -0.0014     0.0034     0.0201     8.4227     5.4400     0.0147    -0.2979
   19    0.360   1988.97     0.0194     0.0019    -0.0013     0.0036     0.0187     9.4447     5.7600     0.0130    -0.3922
   20    0.380   1990.02     0.0172     0.0018    -0.0006     0.0038     0.0168    10.2180     6.0800     0.0107    -0.4450
   21    0.400   1991.05     0.0145     0.0018     0.0012     0.0040     0.0147    11.0079     6.4000     0.0083    -0.4231
   22    0.420   1992.08     0.0114     0.0016     0.0033     0.0042     0.0125    12.5823     6.7200     0.0058    -0.2769
   23    0.440   1993.13     0.0103     0.0016     0.0047     0.0044     0.0121    15.5828     7.0400     0.0051    -0.0037
   24    0.460   1994.12     0.0114     0.0013     0.0056     0.0046     0.0136    12.6449     7.3600     0.0062     0.0992
   25    0.480   1995.17     0.0108     0.0013     0.0058     0.0048     0.0134    12.5806     7.6800     0.0057     0.2389
   26    0.500   1996.26     0.0120     0.0013     0.0049     0.0050     0.0141    11.0511     8.0000     0.0061    -0.0250
   27    0.520   1997.25     0.0137     0.0014     0.0057     0.0052     0.0158    11.1417     8.3200     0.0075    -0.0268
   28    0.540   1998.31     0.0160     0.0015     0.0072     0.0054     0.0189     9.7745     8.6400     0.0102     0.1317
   29    0.560   1999.34     0.0174     0.0014     0.0083     0.0056     0.0208     8.8144     8.9600     0.0119     0.2090
   30    0.580   2000.40     0.0180     0.0016     0.0062     0.0058     0.0210     8.7648     9.2800     0.0117     0.1130
   31    0.600   2001.45     0.0167     0.0017     0.0045     0.0060     0.0187     9.6582     9.6000     0.0091    -0.1294
   32    0.620   2002.46     0.0161     0.0017     0.0057     0.0062     0.0183    10.0419     9.9200     0.0083    -0.1313
   33    0.640   2003.49     0.0141     0.0016     0.0068     0.0064     0.0167    10.5996    10.2400     0.0065    -0.0010
   34    0.660   2004.52     0.0126     0.0015     0.0071     0.0066     0.0155    12.4675    10.5600     0.0049     0.0701
   35    0.680   2005.56     0.0105     0.0014     0.0082     0.0068     0.0140    11.4163    10.8800     0.0031     0.5725
   36    0.700   2006.60     0.0110     0.0013     0.0084     0.0070     0.0143    12.4790    11.2000     0.0031     0.2885
   37    0.720   2007.62     0.0097     0.0011     0.0099     0.0072     0.0137    10.4887    11.5200     0.0022     1.0547
   38    0.740   2008.69     0.0098     0.0010     0.0108     0.0074     0.0142    10.2350    11.8400     0.0024     1.3134
   39    0.760   2009.69     0.0089     0.0010     0.0117     0.0076     0.0136    11.2054    12.1600     0.0015     2.4927
   40    0.780   2010.74     0.0072     0.0010     0.0120     0.0078     0.0123    13.0880    12.4800    -0.0001   -23.3504
   41    0.800   2011.75     0.0087     0.0010     0.0132     0.0080     0.0140    11.4132    12.8000     0.0012     3.8065
   42    0.820   2012.82     0.0098     0.0009     0.0139     0.0082     0.0156     9.9091    13.1200     0.0024     2.3022
   43    0.840   2013.81     0.0106     0.0010     0.0147     0.0084     0.0166     9.7047    13.4400     0.0032     1.9132
   44    0.860   2014.87     0.0126     0.0010     0.0153     0.0086     0.0190     8.6504    13.7600     0.0052     1.2551
   45    0.880   2015.93     0.0144     0.0011     0.0137     0.0088     0.0206     7.8921    14.0800     0.0065     0.8975
   46    0.900   2016.92     0.0179     0.0012     0.0156     0.0090     0.0242     7.3831    14.4000     0.0098     0.6271
   47    0.920   2018.01     0.0223     0.0013     0.0157     0.0092     0.0287     6.1834    14.7200     0.0140     0.4434
   48    0.940   2019.00     0.0233     0.0013     0.0166     0.0094     0.0300     5.7364    15.0400     0.0150     0.4416
   49    0.960   2020.01     0.0232     0.0015     0.0141     0.0096     0.0298     6.7510    15.3600     0.0145     0.4176
   50    0.980   2021.08     0.0213     0.0016     0.0115     0.0098     0.0264     7.2327    15.6800     0.0107     0.2113
   51    1.000   2022.15     0.0216     0.0015     0.0123     0.0100     0.0264     7.1110    16.0000     0.0104     0.1420
   52    1.020   2023.17     0.0202     0.0016     0.0126     0.0102     0.0256     8.1371    16.3200     0.0093     0.3000
   53    1.040   2024.24     0.0187     0.0016     0.0122     0.0104     0.0236     8.1755    16.6400     0.0070     0.1881
   54    1.060   2025.30     0.0193     0.0015     0.0160     0.0106     0.0255     8.0332    16.9600     0.0085     0.4943
   55    1.080   2026.29     0.0202     0.0015     0.0178     0.0108     0.0275     7.4068    17.2800     0.0102     0.6502
   56    1.100   2027.31     0.0203     0.0015     0.0189     0.0110     0.0281     7.4103    17.6000     0.0105     0.7201
   57    1.120   2028.34     0.0211     0.0015     0.0197     0.0112     0.0293     7.2634    17.9200     0.0114     0.7238
   58    1.140   2029.36     0.0243     0.0016     0.0206     0.0114     0.0329     6.9789    18.2400     0.0147     0.6167
   59    1.160   2030.44     0.0276     0.0015     0.0224     0.0116     0.0366     5.8510    18.5600     0.0180     0.5447
   60    1.180   2031.47     0.0332     0.0016     0.0230     0.0118     0.0429     5.3230    18.8800     0.0241     0.4753
   61    1.200   2032.50     0.0374     0.0018     0.0231     0.0120     0.0471     5.1338    19.2000     0.0279     0.4003
   62    1.220   2033.52     0.0400     0.0020     0.0234     0.0122     0.0499     5.0557    19.5200     0.0304     0.3727
   63    1.240   2034.56     0.0410     0.0021     0.0230     0.0124     0.0507     5.1226    19.8400     0.0308     0.3462
   64    1.260   2035.59     0.0421     0.0021     0.0211     0.0126     0.0511     5.2202    20.1600     0.0309     0.2838
   65    1.280   2036.58     0.0419     0.0023     0.0210     0.0128     0.0509     5.3840    20.4800     0.0304     0.2820
   66    1.300   2037.68     0.0400     0.0023     0.0201     0.0130     0.0483     5.7199    20.8000     0.0275     0.2462
   67    1.320   2038.69     0.0414     0.0025     0.0175     0.0132     0.0499     6.0261    21.1200     0.0288     0.2460
   68    1.340   2039.73     0.0333     0.0025     0.0172     0.0134     0.0399     6.8423    21.4400     0.0185     0.1344
   69    1.360   2040.77     0.0301     0.0025     0.0201     0.0136     0.0382     8.1053    21.7600     0.0164     0.3501
   70    1.380   2041.82     0.0285     0.0024     0.0224     0.0138     0.0376     8.1825    22.0800     0.0156     0.5086
   71    1.400   2042.82     0.0295     0.0024     0.0244     0.0140     0.0394     8.1503    22.4000     0.0170     0.5687
   72    1.420   2043.83     0.0306     0.0021     0.0267     0.0142     0.0414     6.9612    22.7200     0.0187     0.6174
   73    1.440   2044.88     0.0336     0.0022     0.0296     0.0144     0.0456     6.6686    23.0400     0.0225     0.6225
   74    1.460   2045.92     0.0396     0.0022     0.0300     0.0146     0.0524     5.8659    23.3600     0.0290     0.5499
   75    1.480   2046.97     0.0461     0.0023     0.0310     0.0148     0.0591     5.0794    23.6800     0.0354     0.4556
   76    1.500   2048.01     0.0458     0.0024     0.0281     0.0150     0.0582     5.3051    24.0000     0.0342     0.4227
   77    1.520   2049.06     0.0450     0.0024     0.0239     0.0152     0.0556     5.2911    24.3200     0.0312     0.3177
   78    1.540   2050.11     0.0417     0.0023     0.0262     0.0154     0.0521     5.4324    24.6400     0.0274     0.3407
   79    1.560   2051.14     0.0415     0.0024     0.0301     0.0156     0.0537     5.7406    24.9600     0.0287     0.4654
   80    1.580   2052.17     0.0410     0.0023     0.0346     0.0158     0.0548     5.6275    25.2800     0.0295     0.5826
   81    1.600   2053.19     0.0415     0.0023     0.0387     0.0160     0.0571     5.5227    25.6000     0.0315     0.6752
   82    1.620   2054.20     0.0506     0.0022     0.0421     0.0162     0.0679     4.7320    25.9200     0.0420     0.5931
   83    1.640   2055.28     0.0583     0.0023     0.0417     0.0164     0.0754     4.1092    26.2400     0.0492     0.4948
   84    1.660   2056.30     0.0603     0.0024     0.0395     0.0166     0.0780     4.0792    26.5600     0.0514     0.4935
   85    1.680   2057.34     0.0626     0.0026     0.0388     0.0168     0.0786     4.2461    26.8800     0.0517     0.4128
   86    1.700   2058.35     0.0629     0.0027     0.0409     0.0170     0.0797     4.2720    27.2000     0.0525     0.4380
   87    1.720   2059.36     0.0633     0.0029     0.0443     0.0172     0.0814     4.6275    27.5200     0.0538     0.4806
   88    1.740   2060.43     0.0621     0.0028     0.0443     0.0174     0.0809     4.4724    27.8400     0.0531     0.5177
   89    1.760   2061.44     0.0631     0.0027     0.0458     0.0176     0.0818     4.2212    28.1600     0.0537     0.5043
   90    1.780   2062.49     0.0625     0.0026     0.0483     0.0178     0.0824     4.1757    28.4800     0.0539     0.5474
   91    1.800   2063.49     0.0629     0.0026     0.0500     0.0180     0.0837     4.1132    28.8000     0.0549     0.5735
   92    1.820   2064.56     0.0619     0.0026     0.0490     0.0182     0.0829     4.2046    29.1200     0.0537     0.5883
   93    1.840   2065.57     0.0624     0.0026     0.0457     0.0184     0.0823     4.1542    29.4400     0.0528     0.5453
   94    1.860   2066.60     0.0596     0.0026     0.0416     0.0186     0.0774     4.1431    29.7600     0.0476     0.4979
   95    1.880   2067.64     0.0583     0.0025     0.0410     0.0188     0.0755     4.2298    30.0800     0.0454     0.4899
   96    1.900   2068.67     0.0622     0.0027     0.0392     0.0190     0.0791     4.4981    30.4000     0.0487     0.4376
   97    1.920   2069.72     0.0681     0.0030     0.0392     0.0192     0.0846     4.5960    30.7200     0.0539     0.3740
   98    1.940   2070.73     0.0701     0.0030     0.0398     0.0194     0.0870     4.2475    31.0400     0.0559     0.3711
   99    1.960   2071.78     0.0633     0.0029     0.0364     0.0196     0.0793     4.4185    31.3600     0.0479     0.3850
  100    1.980   2072.79     0.0642     0.0031     0.0363     0.0198     0.0793     4.8918    31.6800     0.0476     0.3378
  101    2.000   2073.86     0.0676     0.0033     0.0384     0.0200     0.0832     5.1146    32.0000     0.0512     0.3333
  102    2.020   2074.85     0.0715     0.0033     0.0434     0.0202     0.0890     4.6282    32.3200     0.0566     0.3799
  103    2.040   2075.94     0.0740     0.0034     0.0459     0.0204     0.0933     4.7857    32.6400     0.0607     0.4202
  104    2.060   2076.98     0.0788     0.0036     0.0418     0.0206     0.0970     4.6975    32.9600     0.0640     0.3536
  105    2.080   2078.01     0.0814     0.0037     0.0387     0.0208     0.0982     4.5832    33.2800     0.0649     0.2969
  106    2.100   2079.05     0.0844     0.0041     0.0370     0.0210     0.0997     5.0505    33.6000     0.0661     0.2340
  107    2.120   2080.07     0.0838     0.0046     0.0388     0.0212     0.1000     5.6241    33.9200     0.0661     0.2630
  108    2.140   2081.13     0.0786     0.0048     0.0384     0.0214     0.0950     5.9180    34.2400     0.0607     0.2889
  109    2.160   2082.15     0.0763     0.0045     0.0387     0.0216     0.0923     5.8852    34.5600     0.0578     0.2859
  110    2.180   2083.19     0.0732     0.0044     0.0386     0.0218     0.0894     6.0346    34.8800     0.0545     0.3071
  111    2.200   2091.94     0.0763     0.0043     0.0390     0.0220     0.0926     5.8370    35.2000     0.0574     0.2964
  112    2.220   2110.21     0.0836     0.0039     0.0393     0.0222     0.1000     5.3924    35.5200     0.0645     0.2682
  113    2.240   2128.48     0.0908     0.0038     0.0403     0.0224     0.1074     5.2366    35.8400     0.0716     0.2400
  114    2.260   2130.23     0.0933     0.0039     0.0415     0.0226     0.1108     4.2194    36.1600     0.0746     0.2552
  115    2.280   2131.31     0.0877     0.0040     0.0412     0.0228     0.1053     4.3352    36.4800     0.0688     0.2757
  116    2.300   2132.32     0.0879     0.0039     0.0398     0.0230     0.1047     4.4480    36.8000     0.0679     0.2506
  117    2.320   2133.32     0.0949     0.0038     0.0403     0.0232     0.1117     4.1940    37.1200     0.0746     0.2272
  118    2.340   2134.40     0.1032     0.0038     0.0457     0.0234     0.1213     3.7899    37.4400     0.0839     0.2351
  119    2.360   2135.39     0.1020     0.0039     0.0476     0.0236     0.1217     3.8096    37.7600     0.0839     0.2767
  120    2.380   2136.44     0.1010     0.0040     0.0572     0.0238     0.1236     3.9159    38.0800     0.0856     0.3502
  121    2.400   2137.45     0.1031     0.0040     0.0644     0.0240     0.1292     3.9013    38.4000     0.0908     0.4210
  122    2.420   2138.47     0.1062     0.0038     0.0685     0.0242     0.1345     3.6027    38.7200     0.0958     0.4510
  123    2.440   2139.50     0.1059     0.0037     0.0700     0.0244     0.1350     3.4840    39.0400     0.0960     0.4692
  124    2.460   2140.53     0.1050     0.0037     0.0711     0.0246     0.1348     3.5042    39.3600     0.0954     0.4841
  125    2.480   2141.57     0.1081     0.0039     0.0716     0.0248     0.1381     3.6985    39.6800     0.0985     0.4738
  126    2.500   2142.57     0.1123     0.0041     0.0721     0.0250     0.1426     3.6488    40.0000     0.1026     0.4589
  127    2.520   2143.66     0.1155     0.0041     0.0680     0.0252     0.1447     3.5618    40.3200     0.1044     0.4241
  128    2.540   2144.68     0.1165     0.0043     0.0639     0.0254     0.1442     3.6814    40.6400     0.1035     0.3922
  129    2.560   2145.74     0.1162     0.0042     0.0573     0.0256     0.1415     3.5876    40.9600     0.1005     0.3428
  130    2.580   2146.73     0.1122     0.0044     0.0566     0.0258     0.1354     3.7884    41.2800     0.0941     0.3122
  131    2.600   2147.78     0.1101     0.0042     0.0607     0.0260     0.1350     3.8506    41.6000     0.0934     0.3577
  132    2.620   2148.81     0.1095     0.0042     0.0615     0.0262     0.1351     3.8605    41.9200     0.0931     0.3710
  133    2.640   2149.83     0.1115     0.0040     0.0659     0.0264     0.1385     3.5857    42.2400     0.0963     0.3949
  134    2.660   2150.90     0.1113     0.0038     0.0617     0.0266     0.1380     3.4661    42.5600     0.0954     0.3878
  135    2.680   2151.92     0.1135     0.0039     0.0653     0.0268     0.1403     3.4612    42.8800     0.0974     0.3802
  136    2.700   2152.94     0.1134     0.0037     0.0675     0.0270     0.1416     3.2557    43.2000     0.0984     0.4079
  137    2.720   2153.94     0.1140     0.0035     0.0655     0.0272     0.1423     3.1200    43.5200     0.0988     0.4064
  138    2.740   2155.00     0.1213     0.0034     0.0613     0.0274     0.1471     2.8707    43.8400     0.1033     0.3302
  139    2.760   2156.03     0.1270     0.0035     0.0581     0.0276     0.1522     2.7908    44.1600     0.1080     0.3006
  140    2.780   2157.07     0.1295     0.0041     0.0577     0.0278     0.1539     3.1642    44.4800     0.1094     0.2768
  141    2.800   2158.11     0.1273     0.0043     0.0563     0.0280     0.1508     3.4146    44.8000     0.1060     0.2643
  142    2.820   2159.09     0.1189     0.0040     0.0508     0.0282     0.1415     3.2399    45.1200     0.0963     0.2653
  143    2.840   2160.14     0.1150     0.0042     0.0458     0.0284     0.1347     3.7298    45.4400     0.0893     0.2089
  144    2.860   2161.18     0.1139     0.0043     0.0402     0.0286     0.1324     3.7790    45.7600     0.0867     0.1793
  145    2.880   2162.21     0.1014     0.0041     0.0384     0.0288     0.1176     3.8541    46.0800     0.0715     0.1356
  146    2.900   2163.26     0.0919     0.0038     0.0403     0.0290     0.1086     4.0634    46.4000     0.0622     0.1746
  147    2.920   2164.27     0.0881     0.0038     0.0437     0.0292     0.1056     4.2531    46.7200     0.0589     0.2121
  148    2.940   2165.27     0.0829     0.0036     0.0492     0.0294     0.1028     4.2392    47.0400     0.0557     0.3204
  149    2.960   2166.32     0.0883     0.0036     0.0547     0.0296     0.1106     4.2393    47.3600     0.0632     0.3713
  150    2.980   2167.38     0.0942     0.0038     0.0597     0.0298     0.1184     4.1812    47.6800     0.0708     0.3957
  151    3.000   2168.40     0.1038     0.0037     0.0654     0.0300     0.1306     3.7150    48.0000     0.0826     0.4072
  152    3.020   2169.42     0.1175     0.0037     0.0714     0.0302     0.1469     3.3496    48.3200     0.0985     0.4026
  153    3.040   2170.43     0.1286     0.0037     0.0709     0.0304     0.1589     3.0367    48.6400     0.1102     0.3799
  154    3.060   2171.50     0.1275     0.0038     0.0695     0.0306     0.1566     2.9145    48.9600     0.1077     0.3608
  155    3.080   2172.53     0.1300     0.0038     0.0724     0.0308     0.1594     2.9377    49.2800     0.1101     0.3552
  156    3.100   2173.58     0.1330     0.0036     0.0768     0.0310     0.1650     2.7131    49.6000     0.1154     0.3914
  157    3.120   2174.60     0.1353     0.0036     0.0751     0.0312     0.1672     2.7035    49.9200     0.1173     0.3813
  158    3.140   2175.65     0.1362     0.0038     0.0756     0.0314     0.1675     2.8322    50.2400     0.1173     0.3688
  159    3.160   2176.67     0.1369     0.0037     0.0804     0.0316     0.1698     2.6885    50.5600     0.1193     0.3925
  160    3.180   2177.69     0.1394     0.0036     0.0803     0.0318     0.1737     2.6312    50.8800     0.1228     0.4055
  161    3.200   2178.71     0.1457     0.0036     0.0766     0.0320     0.1781     2.5555    51.2000     0.1269     0.3551
  162    3.220   2179.76     0.1508     0.0038     0.0795     0.0322     0.1837     2.5494    51.5200     0.1322     0.3490
  163    3.240   2180.77     0.1523     0.0036     0.0776     0.0324     0.1852     2.3927    51.8400     0.1334     0.3459
  164    3.260   2181.77     0.1589     0.0038     0.0751     0.0326     0.1906     2.4191    52.1600     0.1384     0.3086
  165    3.280   2182.83     0.1633     0.0037     0.0751     0.0328     0.1950     2.3059    52.4800     0.1425     0.2991
  166    3.300   2183.86     0.1605     0.0039     0.0746     0.0330     0.1916     2.3969    52.8000     0.1388     0.2956
  167    3.320   2184.89     0.1473     0.0040     0.0716     0.0332     0.1781     2.6411    53.1200     0.1250     0.3212
  168    3.340   2185.93     0.1370     0.0041     0.0652     0.0334     0.1651     2.9019    53.4400     0.1116     0.2991
  169    3.360   2186.97     0.1246     0.0043     0.0617     0.0336     0.1510     3.3335    53.7600     0.0973     0.3015
  170    3.380   2188.00     0.1231     0.0043     0.0577     0.0338     0.1479     3.4805    54.0800     0.0938     0.2691
  171    3.400   2189.03     0.1199     0.0041     0.0534     0.0340     0.1430     3.3593    54.4000     0.0886     0.2354
  172    3.420   2190.06     0.1173     0.0040     0.0589     0.0342     0.1410     3.4265    54.7200     0.0863     0.2598
  173    3.440   2191.08     0.1145     0.0040     0.0583     0.0344     0.1397     3.4558    55.0400     0.0847     0.3026
  174    3.460   2192.14     0.1088     0.0038     0.0560     0.0346     0.1320     3.4352    55.3600     0.0767     0.2693
  175    3.480   2193.20     0.1088     0.0029     0.0598     0.0348     0.1334     2.7057    55.6800     0.0777     0.3061
  176    3.500   2194.18     0.1092     0.0028     0.0613     0.0350     0.1352     2.6323    56.0000     0.0792     0.3392
  177    3.520   2195.26     0.1104     0.0029     0.0648     0.0352     0.1367     2.6089    56.3200     0.0804     0.3425
  178    3.540   2196.27     0.1140     0.0028     0.0666     0.0354     0.1421     2.5199    56.6400     0.0855     0.3695
  179    3.560   2197.32     0.1118     0.0028     0.0647     0.0356     0.1395     2.4608    56.9600     0.0826     0.3701
  180    3.580   2198.33     0.0959     0.0028     0.0549     0.0358     0.1209     2.7952    57.2800     0.0636     0.3746
  181    3.600   2199.37     0.0971     0.0026     0.0511     0.0360     0.1190     2.7172    57.6000     0.0614     0.2602
  182    3.620   2200.39     0.0941     0.0028     0.0505     0.0362     0.1152     2.9132    57.9200     0.0573     0.2436
  183    3.640   2201.44     0.0938     0.0026     0.0542     0.0364     0.1161     2.8089    58.2400     0.0579     0.2873
  184    3.660   2202.47     0.0943     0.0028     0.0553     0.0366     0.1174     2.9396    58.5600     0.0589     0.3143
  185    3.680   2203.49     0.0954     0.0027     0.0585     0.0368     0.1193     2.8978    58.8800     0.0605     0.3333
  186    3.700   2204.51     0.1082     0.0027     0.0677     0.0370     0.1350     2.7043    59.2000     0.0758     0.3553
  187    3.720   2205.53     0.1208     0.0027     0.0735     0.0372     0.1513     2.2994    59.5200     0.0917     0.3845
  188    3.740   2206.57     0.1300     0.0029     0.0720     0.0374     0.1605     2.3092    59.8400     0.1007     0.3513
  189    3.760   2207.58     0.1358     0.0035     0.0752     0.0376     0.1665     2.5852    60.1600     0.1064     0.3354
  190    3.780   2208.65     0.1290     0.0038     0.0763     0.0378     0.1613     2.8638    60.4800     0.1008     0.3894
  191    3.800   2209.65     0.1215     0.0039     0.0709     0.0380     0.1521     3.1606    60.8000     0.0913     0.3804
  192    3.820   2210.66     0.1202     0.0042     0.0704     0.0382     0.1494     3.4846    61.1200     0.0882     0.3551
  193    3.840   2211.71     0.1311     0.0042     0.0762     0.0384     0.1621     3.2885    61.4400     0.1007     0.3506
  194    3.860   2212.74     0.1379     0.0043     0.0839     0.0386     0.1722     3.1628    61.7600     0.1104     0.3897
  195    3.880   2213.79     0.1456     0.0043     0.0892     0.0388     0.1825     3.0356    62.0800     0.1204     0.4074
  196    3.900   2214.80     0.1485     0.0046     0.0898     0.0390     0.1860     3.1526    62.4000     0.1236     0.4074
  197    3.920   2215.81     0.1541     0.0048     0.0920     0.0392     0.1929     3.1395    62.7200     0.1302     0.4089
  198    3.940   2216.87     0.1593     0.0048     0.0925     0.0394     0.1979     3.0640    63.0400     0.1348     0.3885
  199    3.960   2217.88     0.1618     0.0049     0.0906     0.0396     0.2004     3.0446    63.3600     0.1370     0.3809
  200    3.980   2218.89     0.1605     0.0049     0.0892     0.0398     0.1983     3.0590    63.6800     0.1346     0.3733
  201    4.000   2219.98     0.1581     0.0052     0.0891     0.0400     0.1956     3.2344    64.0000     0.1316     0.3735
  202    4.020   2220.98     0.1546     0.0053     0.0898     0.0402     0.1924     3.3949    64.3200     0.1281     0.3884
  203    4.040   2222.04     0.1521     0.0056     0.0892     0.0404     0.1895     3.6915    64.6400     0.1248     0.3893
  204    4.060   2223.04     0.1493     0.0060     0.0871     0.0406     0.1864     4.0223    64.9600     0.1214     0.3922
  205    4.080   2224.09     0.1483     0.0060     0.0886     0.0408     0.1853     4.0419    65.2800     0.1201     0.3939
  206    4.100   2225.13     0.1487     0.0059     0.0885     0.0410     0.1858     3.9001    65.6000     0.1202     0.3942
  207    4.120   2226.15     0.1499     0.0058     0.0937     0.0412     0.1876     3.9360    65.9200     0.1217     0.4000
  208    4.140   2234.31     0.1576     0.0057     0.0932     0.0414     0.1972     4.1210    66.2400     0.1310     0.4042
  209    4.160   2248.09     0.1580     0.0056     0.0898     0.0416     0.1962     4.1050    66.5600     0.1297     0.3804
  210    4.180   2260.37     0.1585     0.0060     0.0885     0.0418     0.1955     4.2112    66.8800     0.1286     0.3599
  211    4.200   2261.40     0.1575     0.0061     0.0914     0.0420     0.1955     3.8741    67.2000     0.1283     0.3785
  212    4.220   2262.40     0.1593     0.0062     0.0917     0.0422     0.1980     3.8703    67.5200     0.1305     0.3819
  213    4.240   2263.44     0.1571     0.0059     0.0886     0.0424     0.1944     3.7806    67.8400     0.1265     0.3662
  214    4.260   2264.45     0.1556     0.0059     0.0902     0.0426     0.1932     3.7661    68.1600     0.1251     0.3763
  215    4.280   2265.49     0.1514     0.0061     0.0936     0.0428     0.1901     3.9765    68.4800     0.1216     0.4056
  216    4.300   2266.50     0.1502     0.0060     0.0971     0.0430     0.1906     4.0215    68.8000     0.1218     0.4366
  217    4.320   2267.52     0.1511     0.0058     0.0966     0.0432     0.1915     3.8193    69.1200     0.1224     0.4335
  218    4.340   2268.56     0.1477     0.0055     0.0975     0.0434     0.1888     3.6875    69.4400     0.1193     0.4546
  219    4.360   2269.61     0.1459     0.0055     0.0990     0.0436     0.1872     3.7587    69.7600     0.1175     0.4661
  220    4.380   2270.65     0.1449     0.0056     0.1021     0.0438     0.1872     3.8768    70.0800     0.1171     0.4863
  221    4.400   2271.66     0.1443     0.0053     0.1044     0.0440     0.1877     3.6809    70.4000     0.1173     0.5070
  222    4.420   2272.66     0.1488     0.0053     0.1065     0.0442     0.1933     3.6271    70.7200     0.1225     0.5040
  223    4.440   2273.69     0.1594     0.0053     0.1096     0.0444     0.2050     3.4367    71.0400     0.1340     0.4793
  224    4.460   2274.71     0.1592     0.0057     0.1083     0.0446     0.2056     3.5697    71.3600     0.1342     0.4895
  225    4.480   2275.75     0.1548     0.0058     0.1029     0.0448     0.1995     3.6646    71.6800     0.1278     0.4826
  226    4.500   2276.77     0.1529     0.0059     0.0923     0.0450     0.1926     3.8660    72.0000     0.1206     0.4120
  227    4.520   2277.83     0.1492     0.0061     0.0922     0.0452     0.1876     3.9994    72.3200     0.1153     0.4002
  228    4.540   2278.83     0.1419     0.0061     0.0925     0.0454     0.1802     4.2678    72.6400     0.1076     0.4253
  229    4.560   2279.92     0.1350     0.0060     0.0978     0.0456     0.1754     4.3991    72.9600     0.1024     0.4923
  230    4.580   2280.92     0.1324     0.0056     0.1024     0.0458     0.1746     4.2679    73.2800     0.1013     0.5404
  231    4.600   2281.98     0.1327     0.0052     0.1064     0.0460     0.1771     3.9336    73.6000     0.1035     0.5758
  232    4.620   2283.03     0.1369     0.0051     0.1104     0.0462     0.1827     3.7870    73.9200     0.1087     0.5771
  233    4.640   2284.03     0.1443     0.0052     0.1128     0.0464     0.1913     3.6883    74.2400     0.1170     0.5600
  234    4.660   2285.07     0.1499     0.0053     0.1137     0.0466     0.1976     3.5795    74.5600     0.1230     0.5442
  235    4.680   2286.09     0.1515     0.0053     0.1136     0.0468     0.1992     3.4986    74.8800     0.1243     0.5370
  236    4.700   2287.11     0.1516     0.0052     0.1154     0.0470     0.1997     3.4334    75.2000     0.1245     0.5428
  237    4.720   2288.12     0.1528     0.0056     0.1170     0.0472     0.2018     3.6886    75.5200     0.1263     0.5503
  238    4.740   2289.18     0.1566     0.0057     0.1198     0.0474     0.2068     3.6841    75.8400     0.1310     0.5500
  239    4.760   2290.19     0.1592     0.0056     0.1181     0.0476     0.2091     3.5524    76.1600     0.1329     0.5350
  240    4.780   2291.21     0.1634     0.0055     0.1119     0.0478     0.2110     3.4504    76.4800     0.1345     0.4869
  241    4.800   2292.27     0.1644     0.0053     0.1056     0.0480     0.2100     3.2077    76.8000     0.1332     0.4557
  242    4.820   2293.24     0.1607     0.0052     0.1113     0.0482     0.2066     3.1810    77.1200     0.1295     0.4732
  243    4.840   2294.27     0.1605     0.0053     0.1170     0.0484     0.2088     3.3094    77.4400     0.1314     0.5084
  244    4.860   2295.33     0.1586     0.0053     0.1176     0.0486     0.2079     3.3415    77.7600     0.1302     0.5295
  245    4.880   2296.34     0.1568     0.0051     0.1122     0.0488     0.2046     3.2508    78.0800     0.1265     0.5142
  246    4.900   2297.37     0.1572     0.0050     0.1146     0.0490     0.2047     3.2248    78.4000     0.1263     0.5082
  247    4.920   2298.39     0.1563     0.0050     0.1195     0.0492     0.2059     3.1637    78.7200     0.1271     0.5416
  248    4.940   2299.46     0.1549     0.0049     0.1225     0.0494     0.2060     3.1309    79.0400     0.1270     0.5697
  249    4.960   2300.45     0.1554     0.0048     0.1259     0.0496     0.2078     3.1027    79.3600     0.1285     0.5859
  250    4.980   2301.51     0.1571     0.0046     0.1242     0.0498     0.2097     2.9413    79.6800     0.1300     0.5803
  251    5.000   2302.54     0.1568     0.0044     0.1243     0.0500     0.2090     2.7930    80.0000     0.1290     0.5763
  252    5.020   2303.56     0.1514     0.0043     0.1234     0.0502     0.2035     2.7905    80.3200     0.1232     0.6006
  253    5.040   2304.61     0.1456     0.0044     0.1235     0.0504     0.1972     2.9971    80.6400     0.1166     0.6231
  254    5.060   2305.62     0.1454     0.0044     0.1224     0.0506     0.1977     3.0389    80.9600     0.1167     0.6326
  255    5.080   2306.71     0.1454     0.0044     0.1199     0.0508     0.1957     3.0313    81.2800     0.1144     0.6030
  256    5.100   2307.71     0.1450     0.0047     0.1178     0.0510     0.1953     3.2402    81.6000     0.1137     0.6056
  257    5.120   2308.75     0.1440     0.0049     0.1146     0.0512     0.1927     3.4323    81.9200     0.1107     0.5841
  258    5.140   2309.79     0.1439     0.0047     0.1128     0.0514     0.1906     3.2623    82.2400     0.1084     0.5522
  259    5.160   2310.77     0.1448     0.0048     0.1124     0.0516     0.1927     3.3197    82.5600     0.1101     0.5658
  260    5.180   2311.86     0.1428     0.0046     0.1060     0.0518     0.1886     3.1959    82.8800     0.1057     0.5418
  261    5.200   2312.90     0.1445     0.0046     0.1092     0.0520     0.1904     3.1894    83.2000     0.1072     0.5334
  262    5.220   2313.88     0.1443     0.0047     0.1112     0.0522     0.1905     3.2671    83.5200     0.1069     0.5388
  263    5.240   2314.92     0.1403     0.0047     0.1122     0.0524     0.1876     3.3376    83.8400     0.1038     0.5797
  264    5.260   2315.91     0.1332     0.0047     0.1039     0.0526     0.1769     3.5311    84.1600     0.0927     0.5543
  265    5.280   2316.96     0.1258     0.0047     0.1005     0.0528     0.1679     3.7674    84.4800     0.0834     0.5684
  266    5.300   2317.95     0.1230     0.0047     0.1016     0.0530     0.1653     3.7993    84.8000     0.0805     0.5918
  267    5.320   2318.92     0.1229     0.0046     0.1054     0.0532     0.1666     3.6983    85.1200     0.0815     0.6244
  268    5.340   2319.85     0.1226     0.0040     0.1126     0.0534     0.1686     3.2511    85.4400     0.0831     0.6748
  269    5.360   2320.94     0.1273     0.0033     0.1200     0.0536     0.1765     2.6280    85.7600     0.0907     0.6993
  270    5.380   2321.97     0.1392     0.0033     0.1278     0.0538     0.1921     2.5043    86.0800     0.1060     0.6807
  271    5.400   2322.99     0.1500     0.0034     0.1262     0.0540     0.2036     2.3262    86.4000     0.1172     0.6286
  272    5.420   2324.03     0.1553     0.0043     0.1288     0.0542     0.2087     2.8611    86.7200     0.1220     0.5984
  273    5.440   2325.08     0.1838     0.0040     0.1247     0.0544     0.2372     2.3546    87.0400     0.1501     0.4859
  274    5.460   2326.11     0.2080     0.0045     0.0951     0.0546     0.2520     2.2468    87.3600     0.1647     0.3044
  275    5.480   2327.15     0.2159     0.0051     0.0939     0.0548     0.2550     2.3841    87.6800     0.1674     0.2290
  276    5.500   2328.19     0.2235     0.0053     0.0676     0.0550     0.2574     2.3991    88.0000     0.1694     0.1510
  277    5.520   2329.25     0.1967     0.0058     0.0684     0.0552     0.2236     2.7533    88.3200     0.1353     0.0651
  278    5.540   2330.28     0.1857     0.0064     0.0826     0.0554     0.2181     3.4827    88.6400     0.1294     0.1674
  279    5.560   2331.32     0.1781     0.0063     0.0931     0.0556     0.2159     3.5060    88.9600     0.1270     0.2712
  280    5.580   2332.18     0.1729     0.0057     0.0979     0.0558     0.2134     3.2830    89.2800     0.1241     0.3271
  281    5.600   2333.03     0.1685     0.0054     0.1008     0.0560     0.2105     3.2072    89.6000     0.1209     0.3644
  282    5.620   2333.85     0.1663     0.0054     0.1050     0.0562     0.2092     3.2396    89.9200     0.1193     0.3858
  283    5.640   2334.88     0.1640     0.0056     0.1120     0.0564     0.2098     3.4026    90.2400     0.1196     0.4414
  284    5.660   2335.98     0.1644     0.0054     0.1186     0.0566     0.2135     3.2827    90.5600     0.1229     0.4906
  285    5.680   2337.02     0.1633     0.0054     0.1195     0.0568     0.2133     3.2709    90.8800     0.1224     0.5074
  286    5.700   2338.05     0.1641     0.0055     0.1240     0.0570     0.2157     3.3438    91.2000     0.1245     0.5281
  287    5.720   2339.10     0.1649     0.0056     0.1262     0.0572     0.2179     3.3601    91.5200     0.1263     0.5449
  288    5.740   2340.10     0.1673     0.0056     0.1270     0.0574     0.2203     3.3377    91.8400     0.1285     0.5356
  289    5.760   2341.11     0.1671     0.0056     0.1298     0.0576     0.2210     3.3119    92.1600     0.1288     0.5494
  290    5.780   2342.16     0.1693     0.0056     0.1345     0.0578     0.2254     3.3246    92.4800     0.1329     0.5693
  291    5.800   2343.19     0.1664     0.0055     0.1340     0.0580     0.2230     3.3082    92.8000     0.1302     0.5895
  292    5.820   2344.22     0.1606     0.0056     0.1331     0.0582     0.2165     3.4174    93.1200     0.1233     0.6060
  293    5.840   2345.24     0.1584     0.0055     0.1360     0.0584     0.2151     3.4379    93.4400     0.1217     0.6306
  294    5.860   2346.28     0.1564     0.0054     0.1368     0.0586     0.2138     3.4183    93.7600     0.1201     0.6513
  295    5.880   2347.28     0.1574     0.0053     0.1393     0.0588     0.2159     3.4158    94.0800     0.1218     0.6601
  296    5.900   2348.29     0.1592     0.0054     0.1397     0.0590     0.2178     3.4277    94.4000     0.1234     0.6518
  297    5.920   2349.35     0.1625     0.0056     0.1414     0.0592     0.2218     3.5160    94.7200     0.1270     0.6456
  298    5.940   2350.38     0.1620     0.0057     0.1426     0.0594     0.2218     3.5181    95.0400     0.1267     0.6545
  299    5.960   2351.43     0.1636     0.0058     0.1420     0.0596     0.2232     3.5454    95.3600     0.1278     0.6447
  300    5.980   2352.45     0.1633     0.0058     0.1427     0.0598     0.2231     3.5762    95.6800     0.1275     0.6490
  301    6.000   2353.48     0.1626     0.0058     0.1429     0.0600     0.2226     3.5573    96.0000     0.1266     0.6542
  302    6.020   2354.52     0.1633     0.0056     0.1431     0.0602     0.2234     3.4389    96.3200     0.1271     0.6518
  303    6.040   2355.54     0.1615     0.0056     0.1411     0.0604     0.2211     3.4491    96.6400     0.1244     0.6540
  304    6.060   2356.61     0.1636     0.0057     0.1402     0.0606     0.2226     3.5144    96.9600     0.1256     0.6360
  305    6.080   2357.65     0.1634     0.0059     0.1421     0.0608     0.2228     3.6644    97.2800     0.1255     0.6417
  306    6.100   2358.71     0.1605     0.0060     0.1449     0.0610     0.2210     3.7251    97.6000     0.1234     0.6724
  307    6.120   2359.67     0.1628     0.0059     0.1458     0.0612     0.2241     3.6113    97.9200     0.1261     0.6716
  308    6.140   2360.72     0.1619     0.0059     0.1463     0.0614     0.2230     3.6207    98.2400     0.1248     0.6731
  309    6.160   2366.54     0.1616     0.0058     0.1456     0.0616     0.2231     4.1665    98.5600     0.1245     0.6810
  310    6.180   2385.93     0.1565     0.0058     0.1434     0.0618     0.2170     4.2415    98.8800     0.1181     0.6983
  311    6.200   2405.32     0.1513     0.0056     0.1423     0.0620     0.2109     4.0397    99.2000     0.1117     0.7156
  312    6.220   2406.71     0.1501     0.0053     0.1448     0.0622     0.2106     3.5505    99.5200     0.1111     0.7371
  313    6.240   2407.78     0.1486     0.0052     0.1458     0.0624     0.2095     3.4371    99.8400     0.1097     0.7536
  314    6.260   2408.82     0.1477     0.0051     0.1501     0.0626     0.2102     3.4568   100.1600     0.1101     0.7830
  315    6.280   2409.82     0.1482     0.0052     0.1481     0.0628     0.2118     3.5301   100.4800     0.1113     0.7960
  316    6.300   2410.83     0.1508     0.0052     0.1458     0.0630     0.2121     3.4735   100.8000     0.1113     0.7456
  317    6.320   2411.85     0.1482     0.0054     0.1454     0.0632     0.2095     3.6557   101.1200     0.1084     0.7639
  318    6.340   2412.92     0.1491     0.0054     0.1428     0.0634     0.2093     3.5962   101.4400     0.1079     0.7415
  319    6.360   2413.99     0.1492     0.0054     0.1419     0.0636     0.2090     3.6207   101.7600     0.1073     0.7346
  320    6.380   2414.98     0.1447     0.0057     0.1434     0.0638     0.2045     3.9710   102.0800     0.1025     0.7691
  321    6.400   2416.01     0.1402     0.0061     0.1466     0.0640     0.2013     4.3213   102.4000     0.0989     0.8236
  322    6.420   2417.02     0.1407     0.0062     0.1479     0.0642     0.2027     4.3683   102.7200     0.0999     0.8337
  323    6.440   2418.06     0.1435     0.0059     0.1491     0.0644     0.2059     4.1706   103.0400     0.1029     0.8193
  324    6.460   2419.14     0.1457     0.0058     0.1487     0.0646     0.2085     4.0291   103.3600     0.1051     0.8073
  325    6.480   2439.55     0.1482     0.0057     0.1454     0.0648     0.2098     3.9194   103.6800     0.1061     0.7705
  326    6.500   2462.94     0.1502     0.0056     0.1421     0.0650     0.2104     3.8342   104.0000     0.1064     0.7354
  327    6.520   2478.97     0.1508     0.0059     0.1443     0.0652     0.2107     3.8999   104.3200     0.1064     0.7273
  328    6.540   2479.61     0.1510     0.0061     0.1500     0.0654     0.2133     4.0184   104.6400     0.1086     0.7628
  329    6.560   2480.24     0.1500     0.0063     0.1537     0.0656     0.2137     4.1748   104.9600     0.1088     0.7922
  330    6.580   2480.90     0.1520     0.0061     0.1569     0.0658     0.2177     4.0296   105.2800     0.1124     0.8063
  331    6.600   2481.52     0.1567     0.0061     0.1585     0.0660     0.2230     3.9559   105.6000     0.1174     0.7830
  332    6.620   2482.18     0.1657     0.0064     0.1633     0.0662     0.2337     3.8878   105.9200     0.1278     0.7484
  333    6.640   2482.81     0.1691     0.0066     0.1674     0.0664     0.2388     3.9061   106.2400     0.1325     0.7507
  334    6.660   2483.44     0.1748     0.0064     0.1702     0.0666     0.2460     3.6846   106.5600     0.1394     0.7386
  335    6.680   2484.06     0.1815     0.0068     0.1641     0.0668     0.2515     3.7875   106.8800     0.1446     0.6912
  336    6.700   2484.72     0.1879     0.0073     0.1580     0.0670     0.2543     3.8905   107.2000     0.1471     0.6189
  337    6.720   2485.34     0.1917     0.0077     0.1593     0.0672     0.2582     4.0015   107.5200     0.1507     0.6049
  338    6.740   2485.96     0.1909     0.0078     0.1588     0.0674     0.2579     4.1097   107.8400     0.1501     0.6145
  339    6.760   2486.62     0.1914     0.0077     0.1578     0.0676     0.2578     4.0240   108.1600     0.1497     0.6055
  340    6.780   2497.85     0.1876     0.0075     0.1555     0.0678     0.2533     3.9005   108.4800     0.1448     0.6119
  341    6.800   2511.56     0.1829     0.0073     0.1533     0.0680     0.2476     3.8261   108.8000     0.1388     0.6209
  342    6.820   2525.26     0.1782     0.0072     0.1512     0.0682     0.2419     3.7812   109.1200     0.1328     0.6299
  343    6.840   2530.50     0.1742     0.0072     0.1584     0.0684     0.2397     4.1161   109.4400     0.1303     0.6717
  344    6.860   2531.52     0.1697     0.0071     0.1636     0.0686     0.2379     4.1420   109.7600     0.1282     0.7322
  345    6.880   2532.58     0.1693     0.0068     0.1628     0.0688     0.2379     3.9936   110.0800     0.1278     0.7392
  346    6.900   2533.62     0.1647     0.0064     0.1655     0.0690     0.2334     3.8674   110.4000     0.1230     0.7696
  347    6.920   2534.68     0.1629     0.0062     0.1685     0.0692     0.2334     3.8001   110.7200     0.1227     0.8047
  348    6.940   2535.68     0.1623     0.0059     0.1711     0.0694     0.2338     3.5835   111.0400     0.1227     0.8203
  349    6.960   2536.74     0.1622     0.0057     0.1721     0.0696     0.2350     3.5286   111.3600     0.1237     0.8393
  350    6.980   2537.74     0.1653     0.0055     0.1742     0.0698     0.2384     3.3391   111.6800     0.1267     0.8236
  351    7.000   2538.83     0.1675     0.0055     0.1737     0.0700     0.2410     3.2945   112.0000     0.1290     0.8135
  352    7.020   2539.84     0.1694     0.0057     0.1717     0.0702     0.2415     3.3738   112.3200     0.1292     0.7863
  353    7.040   2540.93     0.1700     0.0058     0.1672     0.0704     0.2409     3.4086   112.6400     0.1283     0.7677
  354    7.060   2541.91     0.1703     0.0058     0.1645     0.0706     0.2388     3.4135   112.9600     0.1258     0.7341
  355    7.080   2542.96     0.1696     0.0058     0.1673     0.0708     0.2393     3.4413   113.2800     0.1260     0.7560
  356    7.100   2544.00     0.1694     0.0057     0.1726     0.0710     0.2408     3.3671   113.6000     0.1272     0.7790
  357    7.120   2545.06     0.1675     0.0058     0.1761     0.0712     0.2410     3.4610   113.9200     0.1271     0.8171
  358    7.140   2546.06     0.1676     0.0060     0.1778     0.0714     0.2420     3.5884   114.2400     0.1278     0.8269
  359    7.160   2547.13     0.1688     0.0060     0.1778     0.0716     0.2433     3.5565   114.5600     0.1287     0.8218
  360    7.180   2548.16     0.1724     0.0061     0.1804     0.0718     0.2478     3.5497   114.8800     0.1329     0.8092
  361    7.200   2549.19     0.1799     0.0062     0.1832     0.0720     0.2565     3.5088   115.2000     0.1413     0.7805
  362    7.220   2550.26     0.1848     0.0059     0.1838     0.0722     0.2627     3.2168   115.5200     0.1471     0.7697
  363    7.240   2551.28     0.1811     0.0059     0.1785     0.0724     0.2564     3.2269   115.8400     0.1405     0.7601
  364    7.260   2552.32     0.1868     0.0057     0.1803     0.0726     0.2619     3.1064   116.1600     0.1458     0.7292
  365    7.280   2553.32     0.1855     0.0057     0.1819     0.0728     0.2624     3.0361   116.4800     0.1460     0.7567
  366    7.300   2554.35     0.1828     0.0057     0.1827     0.0730     0.2588     3.1102   116.8000     0.1420     0.7616
  367    7.320   2555.40     0.1761     0.0057     0.1825     0.0732     0.2527     3.1778   117.1200     0.1356     0.8054
  368    7.340   2556.46     0.1780     0.0054     0.1809     0.0734     0.2540     3.0745   117.4400     0.1366     0.7879
  369    7.360   2557.49     0.1766     0.0052     0.1810     0.0736     0.2525     2.9215   117.7600     0.1348     0.7957
  370    7.380   2558.49     0.1744     0.0054     0.1843     0.0738     0.2513     3.0807   118.0800     0.1333     0.8215
  371    7.400   2559.55     0.1754     0.0054     0.1877     0.0740     0.2538     3.0851   118.4000     0.1354     0.8319
  372    7.420   2560.58     0.1762     0.0056     0.1886     0.0742     0.2552     3.2036   118.7200     0.1365     0.8341
  373    7.440   2561.65     0.1807     0.0057     0.1850     0.0744     0.2591     3.1658   119.0400     0.1401     0.8021
  374    7.460   2562.64     0.1846     0.0059     0.1828     0.0746     0.2615     3.2256   119.3600     0.1422     0.7642
  375    7.480   2563.69     0.1870     0.0061     0.1799     0.0748     0.2631     3.2913   119.6800     0.1434     0.7423
  376    7.500   2564.75     0.1836     0.0061     0.1803     0.0750     0.2591     3.2806   120.0000     0.1391     0.7541
  377    7.520   2565.80     0.1793     0.0061     0.1832     0.0752     0.2556     3.3630   120.3200     0.1353     0.7868
  378    7.540   2566.82     0.1753     0.0060     0.1870     0.0754     0.2534     3.3981   120.6400     0.1327     0.8332
  379    7.560   2567.87     0.1719     0.0059     0.1891     0.0756     0.2509     3.4422   120.9600     0.1299     0.8653
  380    7.580   2568.89     0.1684     0.0056     0.1926     0.0758     0.2490     3.3063   121.2800     0.1278     0.9094
  381    7.600   2569.94     0.1656     0.0056     0.1945     0.0760     0.2472     3.3749   121.6000     0.1256     0.9410
  382    7.620   2570.97     0.1643     0.0056     0.1953     0.0762     0.2461     3.4106   121.9200     0.1242     0.9552
  383    7.640   2572.00     0.1656     0.0053     0.1963     0.0764     0.2479     3.2114   122.2400     0.1257     0.9527
  384    7.660   2573.04     0.1674     0.0053     0.1938     0.0766     0.2490     3.1977   122.5600     0.1264     0.9311
  385    7.680   2574.09     0.1756     0.0053     0.1942     0.0768     0.2574     3.0837   122.8800     0.1345     0.8768
  386    7.700   2575.14     0.1796     0.0056     0.1925     0.0770     0.2607     3.1175   123.2000     0.1375     0.8441
  387    7.720   2576.19     0.1800     0.0057     0.1911     0.0772     0.2604     3.1523   123.5200     0.1368     0.8343
  388    7.740   2577.20     0.1789     0.0056     0.1886     0.0774     0.2586     3.1430   123.8400     0.1348     0.8340
  389    7.760   2578.24     0.1782     0.0057     0.1885     0.0776     0.2574     3.1962   124.1600     0.1333     0.8330
  390    7.780   2579.29     0.1800     0.0058     0.1867     0.0778     0.2584     3.2572   124.4800     0.1340     0.8139
  391    7.800   2580.34     0.1748     0.0058     0.1871     0.0780     0.2536     3.3008   124.8000     0.1288     0.8509
  392    7.820   2581.35     0.1731     0.0058     0.1869     0.0782     0.2517     3.3396   125.1200     0.1266     0.8607
  393    7.840   2582.40     0.1710     0.0058     0.1851     0.0784     0.2490     3.3543   125.4400     0.1236     0.8676
  394    7.860   2583.42     0.1729     0.0058     0.1819     0.0786     0.2500     3.3432   125.7600     0.1242     0.8441
  395    7.880   2584.49     0.1743     0.0057     0.1797     0.0788     0.2495     3.2447   126.0800     0.1235     0.8123
  396    7.900   2585.52     0.1691     0.0056     0.1824     0.0790     0.2454     3.2820   126.4000     0.1190     0.8630
  397    7.920   2586.56     0.1646     0.0056     0.1853     0.0792     0.2419     3.3360   126.7200     0.1151     0.9091
  398    7.940   2587.57     0.1624     0.0054     0.1906     0.0794     0.2418     3.2985   127.0400     0.1147     0.9545
  399    7.960   2588.66     0.1604     0.0052     0.1935     0.0796     0.2414     3.2472   127.3600     0.1140     0.9938
  400    7.980   2589.66     0.1583     0.0053     0.1935     0.0798     0.2394     3.3268   127.6800     0.1118     1.0147
  401    8.000   2590.71     0.1600     0.0056     0.1956     0.0800     0.2418     3.4861   128.0000     0.1138     1.0076
  402    8.020   2591.75     0.1621     0.0059     0.1988     0.0802     0.2451     3.6529   128.3200     0.1168     1.0047
  403    8.040   2592.82     0.1636     0.0061     0.2007     0.0804     0.2479     3.7725   128.6400     0.1193     1.0085
  404    8.060   2593.86     0.1683     0.0062     0.2012     0.0806     0.2526     3.7099   128.9600     0.1236     0.9708
  405    8.080   2594.92     0.1744     0.0061     0.2013     0.0808     0.2588     3.5301   129.2800     0.1296     0.9289
  406    8.100   2598.39     0.1779     0.0060     0.2001     0.0810     0.2623     3.4023   129.6000     0.1327     0.9034
  407    8.120   2611.10     0.1793     0.0061     0.1977     0.0812     0.2627     3.4071   129.9200     0.1328     0.8838
  408    8.140   2623.80     0.1807     0.0063     0.1988     0.0814     0.2631     3.5273   130.2400     0.1328     0.8642
  409    8.160   2625.25     0.1821     0.0065     0.2022     0.0816     0.2669     3.5730   130.5600     0.1363     0.8824
  410    8.180   2626.33     0.1926     0.0065     0.2013     0.0818     0.2775     3.4506   130.8800     0.1466     0.8212
  411    8.200   2627.36     0.2067     0.0068     0.1999     0.0820     0.2909     3.3839   131.2000     0.1597     0.7426
  412    8.220   2628.36     0.2266     0.0073     0.2007     0.0822     0.3106     3.3402   131.5200     0.1791     0.6574
  413    8.240   2629.38     0.2386     0.0079     0.2006     0.0824     0.3228     3.3723   131.8400     0.1909     0.6185
  414    8.260   2630.44     0.2424     0.0081     0.1992     0.0826     0.3263     3.3611   132.1600     0.1942     0.6037
  415    8.280   2631.48     0.2510     0.0082     0.1883     0.0828     0.3321     3.3137   132.4800     0.1996     0.5531
  416    8.300   2632.53     0.2443     0.0084     0.1847     0.0830     0.3197     3.3589   132.8000     0.1869     0.5166
  417    8.320   2633.53     0.2321     0.0084     0.1991     0.0832     0.3139     3.5483   133.1200     0.1808     0.6182
  418    8.340   2634.56     0.2233     0.0084     0.2092     0.0834     0.3099     3.7028   133.4400     0.1765     0.6966
  419    8.360   2635.61     0.2181     0.0081     0.2142     0.0836     0.3076     3.6934   133.7600     0.1738     0.7448
  420    8.380   2636.67     0.2176     0.0078     0.2121     0.0838     0.3072     3.6243   134.0800     0.1731     0.7480
  421    8.400   2637.69     0.2194     0.0074     0.2131     0.0840     0.3086     3.4012   134.4000     0.1742     0.7368
  422    8.420   2638.79     0.2212     0.0073     0.2169     0.0842     0.3114     3.3309   134.7200     0.1767     0.7392
  423    8.440   2639.81     0.2188     0.0072     0.2210     0.0844     0.3115     3.2882   135.0400     0.1764     0.7718
  424    8.460   2640.81     0.2265     0.0072     0.2208     0.0846     0.3186     3.2505   135.3600     0.1832     0.7349
  425    8.480   2641.86     0.2350     0.0070     0.2242     0.0848     0.3282     3.0210   135.6800     0.1925     0.7129
  426    8.500   2642.87     0.2430     0.0072     0.2270     0.0850     0.3384     3.0336   136.0000     0.2024     0.7020
  427    8.520   2643.89     0.2480     0.0071     0.2166     0.0852     0.3429     2.8902   136.3200     0.2066     0.6816
  428    8.540   2644.96     0.2549     0.0071     0.2229     0.0854     0.3485     2.8407   136.6400     0.2119     0.6495
  429    8.560   2646.00     0.2645     0.0072     0.2302     0.0856     0.3603     2.7407   136.9600     0.2233     0.6382
  430    8.580   2647.05     0.2674     0.0069     0.2296     0.0858     0.3643     2.6216   137.2800     0.2271     0.6384
  431    8.600   2648.11     0.2645     0.0066     0.2281     0.0860     0.3608     2.4635   137.6000     0.2232     0.6422
  432    8.620   2649.08     0.2586     0.0069     0.2293     0.0862     0.3539     2.6477   137.9200     0.2159     0.6506
  433    8.640   2650.12     0.2612     0.0073     0.2392     0.0864     0.3605     2.8101   138.2400     0.2223     0.6756
  434    8.660   2651.19     0.2671     0.0077     0.2404     0.0866     0.3677     2.9253   138.5600     0.2292     0.6673
  435    8.680   2652.28     0.2768     0.0076     0.2408     0.0868     0.3780     2.7663   138.8800     0.2391     0.6446
  436    8.700   2653.25     0.2762     0.0077     0.2357     0.0870     0.3767     2.7578   139.2000     0.2375     0.6418
  437    8.720   2654.33     0.2779     0.0074     0.2387     0.0872     0.3783     2.6475   139.5200     0.2388     0.6355
  438    8.740   2655.31     0.2671     0.0076     0.2420     0.0874     0.3685     2.7935   139.8400     0.2287     0.6743
  439    8.760   2656.37     0.2581     0.0079     0.2447     0.0876     0.3598     3.0128   140.1600     0.2196     0.7041
  440    8.780   2657.41     0.2604     0.0078     0.2525     0.0878     0.3657     3.0166   140.4800     0.2252     0.7234
  441    8.800   2658.41     0.2680     0.0078     0.2531     0.0880     0.3741     2.9765   140.8000     0.2333     0.7058
  442    8.820   2659.43     0.2818     0.0081     0.2560     0.0882     0.3885     2.9218   141.1200     0.2474     0.6704
  443    8.840   2660.50     0.3031     0.0081     0.2438     0.0884     0.4071     2.7595   141.4400     0.2657     0.5996
  444    8.860   2661.56     0.2979     0.0079     0.2500     0.0886     0.4020     2.6287   141.7600     0.2602     0.6120
  445    8.880   2662.59     0.2967     0.0079     0.2448     0.0888     0.4003     2.6701   142.0800     0.2582     0.6115
  446    8.900   2663.62     0.2967     0.0078     0.2473     0.0890     0.4003     2.6173   142.4000     0.2579     0.6116
  447    8.920   2664.59     0.2878     0.0076     0.2507     0.0892     0.3921     2.6116   142.7200     0.2494     0.6383
  448    8.940   2665.63     0.2807     0.0076     0.2574     0.0894     0.3878     2.6831   143.0400     0.2447     0.6769
  449    8.960   2666.71     0.2798     0.0075     0.2628     0.0896     0.3904     2.6742   143.3600     0.2470     0.7033
  450    8.980   2667.77     0.2742     0.0072     0.2617     0.0898     0.3828     2.6156   143.6800     0.2391     0.7059
  451    9.000   2668.80     0.2771     0.0073     0.2694     0.0900     0.3901     2.6545   144.0000     0.2461     0.7276
  452    9.020   2669.85     0.2827     0.0071     0.2687     0.0902     0.3957     2.5383   144.3200     0.2514     0.7112
  453    9.040   2670.84     0.2981     0.0083     0.2662     0.0904     0.4114     2.8399   144.6400     0.2667     0.6725
  454    9.060   2671.92     0.3271     0.0112     0.2648     0.0906     0.4382     3.5101   144.9600     0.2933     0.5936
  455    9.080   2672.95     0.3542     0.0114     0.2679     0.0908     0.4659     3.2966   145.2800     0.3206     0.5466
  456    9.100   2674.00     0.3765     0.0102     0.2596     0.0910     0.4874     2.7496   145.6000     0.3418     0.5063
  457    9.120   2675.05     0.3905     0.0094     0.2423     0.0912     0.4945     2.4501   145.9200     0.3486     0.4486
  458    9.140   2676.10     0.4304     0.0090     0.2677     0.0914     0.5393     2.2527   146.2400     0.3930     0.4275
  459    9.160   2677.14     0.8242     0.0086     0.2888     0.0916     0.9455     1.4852   146.5600     0.7990     0.2542
  460    9.180   2678.19     1.9092     0.0088     0.1910     0.0918     2.0087     0.6494   146.8800     1.8618     0.0813
  461    9.200   2679.23     2.8925     0.0111     0.1004     0.0920     2.9403     0.4340   147.2000     2.7931     0.0079
  462    9.220   2680.23     2.9659     0.0160     0.0903     0.0922     3.0024     0.5338   147.5200     2.8549    -0.0018
  463    9.240   2681.26     2.6879     0.0206     0.0999     0.0924     2.7284     0.7309   147.8400     2.5805     0.0015
  464    9.260   2682.29     2.2002     0.0218     0.1086     0.0926     2.2446     0.9168   148.1600     2.0964     0.0062
  465    9.280   2683.34     1.8281     0.0237     0.1174     0.0928     1.8760     1.2139   148.4800     1.7276     0.0125
  466    9.300   2684.39     1.5718     0.0242     0.1270     0.0930     1.6235     1.4635   148.8000     1.4747     0.0204
  467    9.320   2685.43     1.3516     0.0262     0.1286     0.0932     1.4056     1.8375   149.1200     1.2565     0.0281
  468    9.340   2686.41     1.2683     0.0283     0.1400     0.0934     1.3262     2.1937   149.4400     1.1767     0.0377
  469    9.360   2687.52     1.2150     0.0294     0.1470     0.0936     1.2756     2.3562   149.7600     1.1259     0.0452
  470    9.380   2688.55     1.1535     0.0277     0.1341     0.0938     1.2100     2.3378   150.0800     1.0600     0.0384
  471    9.400   2689.56     0.9485     0.0234     0.1410     0.0940     1.0067     2.2831   150.4000     0.8563     0.0519
  472    9.420   2690.60     0.7892     0.0192     0.1601     0.0942     0.8542     2.2765   150.7200     0.7035     0.0865
  473    9.440   2691.62     0.6312     0.0161     0.1707     0.0944     0.7009     2.3082   151.0400     0.5499     0.1308
  474    9.460   2692.61     0.4964     0.0141     0.1923     0.0946     0.5751     2.5924   151.3600     0.4238     0.2213
  475    9.480   2693.72     0.4031     0.0120     0.2083     0.0948     0.4863     2.8642   151.6800     0.3346     0.3088
  476    9.500   2694.77     0.3450     0.0087     0.2298     0.0950     0.4386     2.3729   152.0000     0.2866     0.4465
  477    9.520   2695.83     0.3181     0.0078     0.2465     0.0952     0.4202     2.3757   152.3200     0.2679     0.5524
  478    9.540   2696.84     0.3221     0.0055     0.2535     0.0954     0.4277     1.7244   152.6400     0.2750     0.5673
  479    9.560   2697.89     0.3270     0.0026     0.2613     0.0956     0.4350     0.8081   152.9600     0.2820     0.5724
  480    9.580   2698.93     0.3203     0.0031     0.2771     0.0958     0.4342     0.9677   153.2800     0.2809     0.6243
  481    9.600   2699.92     0.3382     0.0054     0.2906     0.0960     0.4579     1.6474   153.6000     0.3043     0.6214
  482    9.620   2700.98     0.4824     0.0074     0.3076     0.0962     0.6097     1.8443   153.9200     0.4558     0.4644
  483    9.640   2702.01     1.2080     0.0115     0.2664     0.0964     1.3316     1.3432   154.2400     1.1774     0.1835
  484    9.660   2703.07     2.7857     0.0173     0.1548     0.0966     2.8666     0.7829   154.5600     2.7120     0.0374
  485    9.680   2704.16     4.2751     0.0237     0.0626     0.0968     4.3074     0.6243   154.8800     4.1525    -0.0046
  486    9.700   2705.20     4.9849     0.0299     0.0674     0.0970     5.0120     0.6247   155.2000     4.8568    -0.0067
  487    9.720   2706.26     5.3268     0.0350     0.0729     0.0972     5.3571     0.6691   155.5200     5.2015    -0.0048
  488    9.740   2707.26     5.3753     0.0413     0.0840     0.0974     5.4096     0.7695   155.8400     5.2538    -0.0030
  489    9.760   2708.32     5.2725     0.0447     0.0885     0.0976     5.3097     0.8399   156.1600     5.1536    -0.0018
  490    9.780   2709.37     4.9994     0.0470     0.0895     0.0978     5.0366     0.9175   156.4800     4.8802    -0.0019
  491    9.800   2710.40     4.5717     0.0508     0.0901     0.0980     4.6099     1.0735   156.8000     4.4531    -0.0016
  492    9.820   2711.46     3.9783     0.0541     0.0861     0.0982     4.0147     1.2799   157.1200     3.8576    -0.0030
  493    9.840   2712.51     3.2013     0.0592     0.0867     0.0984     3.2375     1.6822   157.4400     3.0801    -0.0040
  494    9.860   2713.52     2.3895     0.0625     0.0889     0.0986     2.4264     2.2933   157.7600     2.2687    -0.0047
  495    9.880   2714.57     1.6862     0.0600     0.0995     0.0988     1.7263     3.1219   158.0800     1.5682    -0.0020
  496    9.900   2715.62     1.2514     0.0542     0.1138     0.0990     1.2970     3.9313   158.4000     1.1386     0.0087
  497    9.920   2716.63     0.9896     0.0481     0.1335     0.0992     1.0422     4.5427   158.7200     0.8835     0.0299
  498    9.940   2717.69     0.8248     0.0428     0.1480     0.0994     0.8906     4.8325   159.0400     0.7315     0.0783
  499    9.960   2718.69     0.6477     0.0315     0.1401     0.0996     0.7016     4.6018   159.3600     0.5423     0.0532
  500    9.980   2719.72     0.5468     0.0244     0.1860     0.0998     0.6170     4.4069   159.6800     0.4573     0.1477
  501   10.000   2720.81     0.4852     0.0177     0.2483     0.1000     0.5829     3.5729   160.0000     0.4229     0.3135
  502   10.020   2721.88     0.4508     0.0129     0.2656     0.1002     0.5605     2.8367   160.3200     0.4002     0.4024
  503   10.040   2722.88     0.4346     0.0122     0.2718     0.1004     0.5468     2.7565   160.6400     0.3861     0.4323
  504   10.060   2732.46     0.3897     0.0125     0.2872     0.1006     0.5094     3.3102   160.9600     0.3484     0.5310
  505   10.080   2751.57     0.3619     0.0132     0.3003     0.1008     0.4844     3.5154   161.2800     0.3231     0.5913
  506   10.100   2754.21     0.3576     0.0164     0.3222     0.1010     0.4907     4.6194   161.6000     0.3291     0.6563
  507   10.120   2755.24     0.3907     0.0200     0.3320     0.1012     0.5285     5.3450   161.9200     0.3665     0.6189
  508   10.140   2756.33     0.3859     0.0231     0.3497     0.1014     0.5296     5.8207   162.2400     0.3674     0.6554
  509   10.160   2757.34     0.4464     0.0321     0.3658     0.1016     0.5977     7.5997   162.5600     0.4351     0.5943
  510   10.180   2758.34     0.5040     0.0409     0.3769     0.1018     0.6605     8.4871   162.8800     0.4977     0.5449
  511   10.200   2759.39     0.6159     0.0503     0.4224     0.1020     0.7855     8.8695   163.2000     0.6223     0.4876
  512   10.220   2760.44     1.2420     0.0607     0.3118     0.1022     1.4051     6.1886   163.5200     1.2415     0.2466
  513   10.240   2761.48     2.5780     0.0653     0.1281     0.1024     2.6536     3.0031   163.8400     2.4897     0.0340
  514   10.260   2762.53     4.1507     0.0611     0.0267     0.1026     4.1789     1.6506   164.1600     4.0147    -0.0084
  515   10.280   2763.61     6.0003     0.0581    -0.0357     0.1028     5.9911     1.0463   164.4800     5.8266    -0.0215
  516   10.300   2764.69     7.4923     0.0557    -0.1044     0.1030     7.4571     0.7811   164.8000     7.2923    -0.0256
  517   10.320   2765.75     8.7670     0.0547    -0.1629     0.1032     8.7082     0.6521   165.1200     8.5431    -0.0285
  518   10.340   2766.83     9.9625     0.0592    -0.1914     0.1034     9.8836     0.6082   165.4400     9.7182    -0.0300
  519   10.360   2767.84    10.6624     0.0657    -0.1995     0.1036    10.5789     0.6209   165.7600    10.4131    -0.0291
  520   10.380   2768.92    11.2776     0.0759    -0.2210     0.1038    11.1900     0.6798   166.0800    11.0239    -0.0283
  521   10.400   2770.03    11.7480     0.0888    -0.2286     0.1040    11.6517     0.7621   166.4000    11.4853    -0.0290
  522   10.420   2771.11    12.0654     0.0971    -0.2143     0.1042    11.9739     0.8098   166.7200    11.8072    -0.0273
  523   10.440   2772.16    12.3776     0.1093    -0.2056     0.1044    12.2899     0.8874   167.0400    12.1229    -0.0258
  524   10.460   2773.24    12.5538     0.1243    -0.1950     0.1046    12.4706     0.9921   167.3600    12.3033    -0.0246
  525   10.480   2774.27    12.6057     0.1317    -0.1844     0.1048    12.5259     1.0463   167.6800    12.3582    -0.0239
  526   10.500   2775.36    12.7005     0.1334    -0.1686     0.1050    12.6278     1.0532   168.0000    12.4598    -0.0223
  527   10.520   2776.47    13.2416     0.1351    -0.1554     0.1052    13.1740     1.0242   168.3200    13.0057    -0.0205
  528   10.540   2777.55    13.4785     0.1363    -0.1318     0.1054    13.4194     1.0110   168.6400    13.2508    -0.0186
  529   10.560   2778.65    13.5469     0.1348    -0.1113     0.1056    13.4972     0.9962   168.9600    13.3283    -0.0168
  530   10.580   2779.69    13.6860     0.1335    -0.0967     0.1058    13.6439     0.9771   169.2800    13.4746    -0.0153
  531   10.600   2780.79    13.7300     0.1322    -0.0785     0.1060    13.6943     0.9626   169.6000    13.5247    -0.0141
  532   10.620   2781.83    13.6247     0.1350    -0.0465     0.1062    13.5965     0.9889   169.9200    13.4266    -0.0129
  533   10.640   2782.90    13.5212     0.1471    -0.0317     0.1064    13.5072     1.0896   170.2400    13.3369    -0.0105
  534   10.660   2784.00    13.6409     0.1682    -0.0074     0.1066    13.6323     1.2330   170.5600    13.4618    -0.0094
  535   10.680   2785.07    13.4638     0.1962     0.0429     0.1068    13.4749     1.4539   170.8800    13.3040    -0.0060
  536   10.700   2786.20    13.2214     0.2160     0.1250     0.1070    13.2617     1.6221   171.2000    13.0905    -0.0008
  537   10.720   2787.24    13.1745     0.2346     0.0730     0.1072    13.2164     1.7764   171.5200    13.0449    -0.0006
  538   10.740   2788.29    12.6029     0.2713    -0.0388     0.1074    12.5971     2.1213   171.8400    12.4253    -0.0098
  539   10.760   2789.33    11.6862     0.2958    -0.1212     0.1076    11.6430     2.4946   172.1600    11.4708    -0.0184
  540   10.780   2790.45    10.8365     0.3138    -0.1697     0.1078    10.7708     2.8703   172.4800    10.5983    -0.0249
  541   10.800   2791.51    10.3846     0.3251    -0.1932     0.1080    10.3047     3.1459   172.8000    10.1319    -0.0294
  542   10.820   2792.56     9.8649     0.3168    -0.1914     0.1082     9.7815     3.1263   173.1200     9.6084    -0.0320
  543   10.840   2793.63     9.0777     0.2899    -0.1409     0.1084     9.0148     3.1817   173.4400     8.8414    -0.0292
  544   10.860   2794.72     8.9538     0.2584    -0.1183     0.1086     8.9015     2.8676   173.7600     8.7277    -0.0267
  545   10.880   2795.83     9.3322     0.2183    -0.1414     0.1088     9.2777     2.3322   174.0800     9.1037    -0.0262
  546   10.900   2796.86     9.4576     0.1798    -0.1935     0.1090     9.3817     1.9165   174.4000     9.2073    -0.0315
  547   10.920   2797.99     9.8883     0.1345    -0.2016     0.1092     9.8047     1.3638   174.7200     9.6300    -0.0320
  548   10.940   2799.00    10.6148     0.1132    -0.2221     0.1094    10.5233     1.0748   175.0400    10.3483    -0.0316
  549   10.960   2800.19    12.0981     0.1155    -0.2268     0.1096    12.0030     0.9764   175.3600    11.8277    -0.0284
  550   10.980   2801.24    12.9354     0.1020    -0.2305     0.1098    12.8392     0.7972   175.6800    12.6636    -0.0268
  551   11.000   2802.30    12.8775     0.0898    -0.2419     0.1100    12.7779     0.6968   176.0000    12.6019    -0.0275
  552   11.020   2803.39    12.6098     0.0785    -0.2530     0.1102    12.5045     0.6184   176.3200    12.3282    -0.0293
  553   11.040   2804.46    12.1442     0.0675    -0.2654     0.1104    12.0343     0.5507   176.6400    11.8577    -0.0314
  554   11.060   2805.59    11.7677     0.0548    -0.2671     0.1106    11.6556     0.4600   176.9600    11.4787    -0.0329
  555   11.080   2806.63    11.3141     0.0418    -0.2660     0.1108    11.2023     0.3665   177.2800    11.0250    -0.0342
  556   11.100   2807.69    10.3762     0.0289    -0.2669     0.1110    10.2643     0.2720   177.6000    10.0867    -0.0374
  557   11.120   2808.74     9.5679     0.0184    -0.2697     0.1112     9.4555     0.1878   177.9200     9.2776    -0.0408
  558   11.140   2809.77     8.5998     0.0148    -0.2723     0.1114     8.4858     0.1664   178.2400     8.3075    -0.0461
  559   11.160   2810.83     7.5705     0.0156    -0.2755     0.1116     7.4553     0.1973   178.5600     7.2768    -0.0531
  560   11.180   2811.91     6.5193     0.0188    -0.2777     0.1118     6.4028     0.2723   178.8800     6.2239    -0.0626
  561   11.200   2812.98     5.6096     0.0233    -0.2789     0.1120     5.4926     0.3899   179.2000     5.3134    -0.0736
  562   11.220   2814.02     4.7851     0.0282    -0.2790     0.1122     4.6679     0.5527   179.5200     4.4884    -0.0874
  563   11.240   2815.04     3.9198     0.0334    -0.2773     0.1124     3.8030     0.7951   179.8400     3.6232    -0.1082
  564   11.260   2816.05     3.0974     0.0387    -0.2749     0.1126     2.9816     1.1433   180.1600     2.8014    -0.1391
  565   11.280   2817.10     2.4104     0.0467    -0.2714     0.1128     2.2958     1.7875   180.4800     2.1154    -0.1832
  566   11.300   2818.12     1.8451     0.0439    -0.2665     0.1130     1.7323     2.1867   180.8000     1.5515    -0.2469
  567   11.320   2819.15     1.4867     0.0404    -0.2588     0.1132     1.3766     2.5617   181.1200     1.1955    -0.3144
  568   11.340   2820.23     1.2896     0.0342    -0.2480     0.1134     1.1835     2.5408   181.4400     1.0020    -0.3656
  569   11.360   2821.25     1.1316     0.0278    -0.2330     0.1136     1.0311     2.3289   181.7600     0.8493    -0.4156
  570   11.380   2822.34     0.9328     0.0224    -0.2142     0.1138     0.8400     2.2321   182.0800     0.6579    -0.5097
  571   11.400   2823.36     0.7896     0.0164    -0.1891     0.1140     0.7062     1.9697   182.4000     0.5238    -0.5973
  572   11.420   2824.41     0.7345     0.0091    -0.1538     0.1142     0.6639     1.2093   182.7200     0.4811    -0.5870
  573   11.440   2825.44     0.7118     0.0048    -0.1052     0.1144     0.6598     0.6617   183.0400     0.4768    -0.4997
  574   11.460   2826.50     0.6935     0.0040    -0.0491     0.1146     0.6644     0.5700   183.3600     0.4811    -0.3818
  575   11.480   2827.54     0.6592     0.0044     0.0166     0.1148     0.6564     0.6522   183.6800     0.4727    -0.2568
  576   11.500   2828.60     0.6319     0.0052     0.0680     0.1150     0.6534     0.8067   184.0000     0.4694    -0.1362
  577   11.520   2829.63     0.5893     0.0055     0.1117     0.1152     0.6299     0.9068   184.3200     0.4456    -0.0414
  578   11.540   2830.66     0.5633     0.0062     0.1596     0.1154     0.6237     1.0940   184.6400     0.4391     0.0648
  579   11.560   2831.69     0.5527     0.0069     0.1848     0.1156     0.6276     1.2424   184.9600     0.4426     0.1417
  580   11.580   2832.77     0.5459     0.0072     0.2017     0.1158     0.6293     1.3172   185.2800     0.4440     0.1864
  581   11.600   2833.77     0.5245     0.0076     0.2120     0.1160     0.6115     1.4219   185.6000     0.4259     0.2140
  582   11.620   2834.84     0.5085     0.0080     0.2262     0.1162     0.6018     1.5649   185.9200     0.4159     0.2544
  583   11.640   2835.88     0.5005     0.0079     0.2398     0.1164     0.5994     1.5612   186.2400     0.4132     0.2881
  584   11.660   2836.94     0.4876     0.0083     0.2477     0.1166     0.5905     1.6789   186.5600     0.4039     0.3180
  585   11.680   2837.97     0.4780     0.0086     0.2548     0.1168     0.5841     1.7815   186.8800     0.3972     0.3415
  586   11.700   2839.00     0.4721     0.0089     0.2613     0.1170     0.5809     1.8662   187.2000     0.3937     0.3608
  587   11.720   2840.02     0.4670     0.0092     0.2680     0.1172     0.5788     1.9503   187.5200     0.3912     0.3805
  588   11.740   2841.06     0.4605     0.0095     0.2728     0.1174     0.5745     2.0498   187.8400     0.3867     0.3983
  589   11.760   2842.08     0.4523     0.0098     0.2773     0.1176     0.5680     2.1530   188.1600     0.3799     0.4159
  590   11.780   2843.08     0.4452     0.0103     0.2828     0.1178     0.5630     2.3108   188.4800     0.3746     0.4345
  591   11.800   2844.17     0.4432     0.0107     0.2902     0.1180     0.5646     2.3994   188.8000     0.3758     0.4553
  592   11.820   2845.20     0.4473     0.0108     0.2969     0.1182     0.5705     2.4183   189.1200     0.3814     0.4594
  593   11.840   2846.28     0.4477     0.0108     0.3028     0.1184     0.5738     2.4304   189.4400     0.3844     0.4731
  594   11.860   2847.29     0.4536     0.0108     0.3112     0.1186     0.5835     2.3935   189.7600     0.3938     0.4843
  595   11.880   2848.29     0.4561     0.0112     0.3193     0.1188     0.5883     2.4261   190.0800     0.3982     0.4921
  596   11.900   2849.32     0.4687     0.0114     0.3290     0.1190     0.6050     2.4261   190.4000     0.4146     0.4961
  597   11.920   2850.36     0.4874     0.0118     0.3410     0.1192     0.6291     2.4311   190.7200     0.4384     0.4977
  598   11.940   2851.43     0.4990     0.0123     0.3399     0.1194     0.6426     2.4823   191.0400     0.4516     0.4929
  599   11.960   2852.50     0.5052     0.0125     0.3500     0.1196     0.6503     2.4780   191.3600     0.4589     0.4924
  600   11.980   2855.81     0.4965     0.0126     0.3521     0.1198     0.6442     2.5092   191.6800     0.4525     0.5137
  601   12.000   2868.19     0.4662     0.0126     0.3534     0.1200     0.6144     2.5020   192.0000     0.4224     0.5556
  602   12.020   2880.57     0.4359     0.0125     0.3532     0.1202     0.5846     2.4927   192.3200     0.3923     0.5975
  603   12.040   2883.16     0.4309     0.0124     0.3588     0.1204     0.5806     2.8698   192.6400     0.3880     0.6087
  604   12.060   2884.21     0.4283     0.0116     0.3572     0.1206     0.5785     2.6943   192.9600     0.3855     0.6145
  605   12.080   2885.32     0.4334     0.0108     0.3539     0.1208     0.5828     2.5008   193.2800     0.3895     0.6030
  606   12.100   2886.35     0.4360     0.0106     0.3412     0.1210     0.5810     2.4313   193.6000     0.3874     0.5790
  607   12.120   2887.38     0.4243     0.0103     0.3403     0.1212     0.5667     2.3932   193.9200     0.3727     0.5843
  608   12.140   2888.39     0.4067     0.0096     0.3435     0.1214     0.5512     2.3271   194.2400     0.3570     0.6236
  609   12.160   2889.41     0.3929     0.0094     0.3393     0.1216     0.5362     2.3630   194.5600     0.3416     0.6430
  610   12.180   2890.50     0.3857     0.0091     0.3415     0.1218     0.5285     2.3370   194.8800     0.3336     0.6542
  611   12.200   2891.53     0.3761     0.0095     0.3483     0.1220     0.5215     2.5054   195.2000     0.3263     0.6870
  612   12.220   2892.52     0.3742     0.0099     0.3481     0.1222     0.5209     2.6343   195.5200     0.3253     0.6978
  613   12.240   2893.57     0.3786     0.0095     0.3437     0.1224     0.5227     2.5301   195.8400     0.3268     0.6750
  614   12.260   2894.64     0.3834     0.0093     0.3428     0.1226     0.5281     2.4341   196.1600     0.3319     0.6688
  615   12.280   2895.66     0.3960     0.0101     0.3375     0.1228     0.5379     2.5868   196.4800     0.3415     0.6304
  616   12.300   2896.66     0.4016     0.0107     0.3368     0.1230     0.5426     2.6801   196.8000     0.3458     0.6152
  617   12.320   2897.69     0.4103     0.0109     0.3234     0.1232     0.5493     2.6596   197.1200     0.3522     0.5900
  618   12.340   2898.76     0.4162     0.0107     0.3101     0.1234     0.5479     2.5689   197.4400     0.3504     0.5423
  619   12.360   2899.84     0.4130     0.0102     0.3007     0.1236     0.5399     2.4645   197.7600     0.3422     0.5222
  620   12.380   2900.82     0.4052     0.0099     0.3036     0.1238     0.5322     2.4078   198.0800     0.3342     0.5344
  621   12.400   2901.91     0.3955     0.0098     0.3087     0.1240     0.5246     2.4674   198.4000     0.3262     0.5626
  622   12.420   2902.95     0.3946     0.0096     0.3130     0.1242     0.5252     2.4188   198.7200     0.3265     0.5723
  623   12.440   2903.97     0.3857     0.0092     0.3221     0.1244     0.5195     2.3709   199.0400     0.3204     0.6060
  624   12.460   2905.01     0.3761     0.0084     0.3212     0.1246     0.5116     2.2202   199.3600     0.3123     0.6346
  625   12.480   2906.03     0.3733     0.0085     0.3246     0.1248     0.5093     2.2829   199.6800     0.3097     0.6431
  626   12.500   2907.08     0.3898     0.0085     0.3303     0.1250     0.5279     2.2362   200.0000     0.3279     0.6214
  627   12.520   2908.17     0.3961     0.0078     0.3301     0.1252     0.5345     1.9730   200.3200     0.3341     0.6114
  628   12.540   2909.23     0.3938     0.0077     0.3278     0.1254     0.5336     1.9422   200.6400     0.3330     0.6228
  629   12.560   2910.28     0.4015     0.0078     0.3127     0.1256     0.5363     1.9716   200.9600     0.3354     0.5825
  630   12.580   2911.24     0.4036     0.0077     0.3169     0.1258     0.5347     1.8886   201.2800     0.3334     0.5589
  631   12.600   2912.29     0.3977     0.0078     0.3225     0.1260     0.5326     1.9503   201.6000     0.3310     0.5895
  632   12.620   2913.38     0.4085     0.0077     0.3238     0.1262     0.5450     1.9154   201.9200     0.3430     0.5794
  633   12.640   2914.43     0.4217     0.0073     0.3223     0.1264     0.5575     1.7535   202.2400     0.3553     0.5546
  634   12.660   2915.43     0.4295     0.0068     0.3192     0.1266     0.5640     1.6040   202.5600     0.3614     0.5360
  635   12.680   2916.46     0.4453     0.0064     0.3113     0.1268     0.5764     1.4697   202.8800     0.3735     0.4962
  636   12.700   2917.47     0.4580     0.0059     0.3137     0.1270     0.5895     1.2917   203.2000     0.3863     0.4816
  637   12.720   2918.52     0.4453     0.0056     0.3113     0.1272     0.5756     1.2376   203.5200     0.3720     0.4921
  638   12.740   2919.57     0.4108     0.0062     0.3223     0.1274     0.5449     1.4913   203.8400     0.3411     0.5628
  639   12.760   2920.62     0.3966     0.0060     0.3280     0.1276     0.5336     1.4957   204.1600     0.3295     0.6032
  640   12.780   2921.64     0.4017     0.0055     0.3350     0.1278     0.5418     1.3715   204.4800     0.3373     0.6100
  641   12.800   2922.65     0.3996     0.0069     0.3298     0.1280     0.5391     1.7257   204.8000     0.3343     0.6105
  642   12.820   2923.72     0.4018     0.0070     0.3272     0.1282     0.5391     1.7635   205.1200     0.3340     0.5949
  643   12.840   2924.83     0.4337     0.0069     0.3211     0.1284     0.5683     1.6517   205.4400     0.3629     0.5295
  644   12.860   2925.83     0.4867     0.0069     0.3161     0.1286     0.6208     1.4786   205.7600     0.4150     0.4594
  645   12.880   2926.88     0.5144     0.0070     0.3054     0.1288     0.6433     1.3830   206.0800     0.4372     0.4073
  646   12.900   2927.89     0.5329     0.0075     0.3006     0.1290     0.6595     1.4249   206.4000     0.4531     0.3802
  647   12.920   2928.91     0.5430     0.0080     0.3062     0.1292     0.6704     1.4748   206.7200     0.4637     0.3759
  648   12.940   2929.95     0.5825     0.0077     0.3060     0.1294     0.7117     1.3541   207.0400     0.5047     0.3532
  649   12.960   2931.04     0.6012     0.0081     0.2988     0.1296     0.7283     1.3572   207.3600     0.5209     0.3322
  650   12.980   2932.06     0.6252     0.0097     0.2813     0.1298     0.7451     1.5733   207.6800     0.5374     0.2897
  651   13.000   2933.10     0.6474     0.0107     0.2695     0.1300     0.7621     1.6576   208.0000     0.5541     0.2579
  652   13.020   2934.18     0.6397     0.0100     0.2679     0.1302     0.7524     1.5691   208.3200     0.5441     0.2541
  653   13.040   2935.22     0.7200     0.0094     0.2782     0.1304     0.8361     1.3843   208.6400     0.6275     0.2328
  654   13.060   2936.24     0.8506     0.0078     0.2743     0.1306     0.9654     0.9754   208.9600     0.7564     0.1887
  655   13.080   2937.32     0.9632     0.0081     0.2617     0.1308     1.0767     0.8815   209.2800     0.8674     0.1608
  656   13.100   2938.33     1.0337     0.0090     0.2432     0.1310     1.1379     0.8891   209.6000     0.9283     0.1262
  657   13.120   2939.35     0.9794     0.0094     0.2477     0.1312     1.0814     0.9220   209.9200     0.8715     0.1281
  658   13.140   2940.44     0.8782     0.0116     0.2604     0.1314     0.9855     1.2765   210.2400     0.7753     0.1604
  659   13.160   2941.47     0.8378     0.0131     0.2927     0.1316     0.9564     1.5637   210.5600     0.7458     0.2021
  660   13.180   2942.47     1.0301     0.0120     0.2916     0.1318     1.1556     1.3195   210.8800     0.9448     0.1785
  661   13.200   2943.50     1.4135     0.0129     0.2557     0.1320     1.5274     1.0197   211.2000     1.3162     0.1068
  662   13.220   2944.53     1.6207     0.0122     0.2218     0.1322     1.7175     0.7790   211.5200     1.5059     0.0652
  663   13.240   2945.62     1.5774     0.0109     0.1940     0.1324     1.6627     0.6704   211.8400     1.4509     0.0488
  664   13.260   2946.67     1.2774     0.0101     0.1884     0.1326     1.3523     0.7217   212.1600     1.1401     0.0399
  665   13.280   2947.68     1.0357     0.0101     0.2134     0.1328     1.1242     0.8999   212.4800     0.9117     0.0859
  666   13.300   2948.73     0.8499     0.0100     0.2270     0.1330     0.9416     1.1186   212.8000     0.7288     0.1174
  667   13.320   2949.73     0.7517     0.0105     0.2591     0.1332     0.8541     1.3299   213.1200     0.6410     0.1728
  668   13.340   2950.79     0.7090     0.0103     0.3093     0.1334     0.8307     1.4377   213.4400     0.6172     0.2531
  669   13.360   2951.87     0.7634     0.0103     0.3364     0.1336     0.9013     1.4335   213.7600     0.6875     0.2834
  670   13.380   2952.91     0.9388     0.0107     0.3374     0.1338     1.0841     1.2637   214.0800     0.8700     0.2456
  671   13.400   2953.91     1.2576     0.0126     0.2903     0.1340     1.3876     1.1171   214.4000     1.1732     0.1506
  672   13.420   2954.94     1.4430     0.0136     0.2568     0.1342     1.5571     0.9736   214.7200     1.3424     0.1024
  673   13.440   2956.03     1.3716     0.0126     0.2118     0.1344     1.4640     0.8904   215.0400     1.2490     0.0683
  674   13.460   2957.04     1.1714     0.0138     0.2431     0.1346     1.2709     1.1127   215.3600     1.0555     0.0972
  675   13.480   2958.08     1.0368     0.0161     0.2480     0.1348     1.1404     1.5075   215.6800     0.9247     0.1211
  676   13.500   2959.13     0.9494     0.0188     0.2378     0.1350     1.0512     1.9280   216.0000     0.8352     0.1286
  677   13.520   2960.14     0.9269     0.0208     0.2501     0.1352     1.0284     2.1763   216.3200     0.8121     0.1314
  678   13.540   2961.19     0.8421     0.0234     0.2615     0.1354     0.9444     2.7474   216.6400     0.7277     0.1486
  679   13.560   2962.28     0.8335     0.0261     0.1765     0.1356     0.9585     3.1230   216.9600     0.7416     0.2186
  680   13.580   2963.28     0.8693     0.0246     0.0262     0.1358     0.8692     2.8323   217.2800     0.6519    -0.2086
  681   13.600   2964.33     0.8450     0.0217     0.0802     0.1360     0.8711     2.5169   217.6000     0.6535    -0.1128
  682   13.620   2965.38     0.7531     0.0207     0.1186     0.1362     0.8006     2.6435   217.9200     0.5827    -0.0396
  683   13.640   2966.42     0.7094     0.0193     0.1736     0.1364     0.7715     2.6014   218.2400     0.5533     0.0219
  684   13.660   2967.48     0.6437     0.0193     0.2390     0.1366     0.7373     2.9305   218.5600     0.5187     0.1661
  685   13.680   2968.49     0.6495     0.0196     0.2734     0.1368     0.7602     3.0466   218.8800     0.5413     0.2342
  686   13.700   2969.51     0.6869     0.0208     0.2942     0.1370     0.8066     3.1022   219.2000     0.5874     0.2519
  687   13.720   2970.54     0.7242     0.0222     0.3128     0.1372     0.8543     3.1097   219.5200     0.6348     0.2720
  688   13.740   2971.57     0.7677     0.0238     0.3230     0.1374     0.9019     3.1490   219.8400     0.6821     0.2672
  689   13.760   2972.63     0.8138     0.0260     0.3263     0.1376     0.9500     3.2742   220.1600     0.7299     0.2559
  690   13.780   2973.68     0.8094     0.0276     0.3569     0.1378     0.9537     3.4199   220.4800     0.7332     0.2806
  691   13.800   2974.71     0.8071     0.0273     0.3749     0.1380     0.9630     3.3890   220.8000     0.7422     0.3141
  692   13.820   2975.80     0.8106     0.0264     0.3716     0.1382     0.9675     3.2471   221.1200     0.7463     0.3151
  693   13.840   2976.77     0.8068     0.0264     0.3565     0.1384     0.9582     3.2397   221.4400     0.7368     0.3015
  694   13.860   2977.86     0.7960     0.0266     0.3563     0.1386     0.9469     3.2999   221.7600     0.7251     0.3043
  695   13.880   2978.87     0.7793     0.0257     0.3466     0.1388     0.9253     3.3055   222.0800     0.7032     0.2969
  696   13.900   2979.93     0.7593     0.0248     0.3391     0.1390     0.9037     3.3112   222.4000     0.6813     0.3005
  697   13.920   2980.94     0.7060     0.0234     0.3119     0.1392     0.8384     3.2404   222.7200     0.6156     0.2861
  698   13.940   2982.01     0.6230     0.0194     0.2985     0.1394     0.7492     3.0576   223.0400     0.5261     0.3062
  699   13.960   2983.06     0.5765     0.0160     0.3063     0.1396     0.7031     2.7653   223.3600     0.4797     0.3377
  700   13.980   2992.24     0.5473     0.0128     0.3312     0.1398     0.6828     2.2579   223.6800     0.4591     0.4030
  701   14.000   3003.59     0.5198     0.0103     0.3560     0.1400     0.6657     1.8154   224.0000     0.4417     0.4761
  702   14.020   3014.94     0.4922     0.0092     0.3793     0.1402     0.6485     1.6078   224.3200     0.4242     0.5492
  703   14.040   3018.57     0.4860     0.0080     0.3843     0.1404     0.6471     1.6498   224.6400     0.4225     0.5757
  704   14.060   3019.60     0.4976     0.0069     0.3862     0.1406     0.6595     1.4006   224.9600     0.4345     0.5634
  705   14.080   3020.65     0.5051     0.0078     0.3918     0.1408     0.6685     1.5589   225.2800     0.4432     0.5598
  706   14.100   3021.66     0.5127     0.0098     0.3999     0.1410     0.6798     1.9391   225.6000     0.4542     0.5657
  707   14.120   3022.69     0.5593     0.0105     0.4131     0.1412     0.7300     1.9507   225.9200     0.5040     0.5260
  708   14.140   3023.80     0.6401     0.0107     0.4186     0.1414     0.8170     1.7593   226.2400     0.5907     0.4737
  709   14.160   3024.80     0.7376     0.0094     0.3989     0.1416     0.9081     1.3427   226.5600     0.6815     0.3880
  710   14.180   3025.86     0.7371     0.0075     0.3656     0.1418     0.8963     1.0012   226.8800     0.6694     0.3542
  711   14.200   3026.86     0.6771     0.0062     0.3484     0.1420     0.8240     0.8860   227.2000     0.5968     0.3485
  712   14.220   3027.90     0.5914     0.0053     0.3405     0.1422     0.7355     0.8528   227.5200     0.5080     0.3961
  713   14.240   3028.95     0.5013     0.0047     0.3543     0.1424     0.6481     0.8849   227.8400     0.4202     0.4937
  714   14.260   3030.00     0.4381     0.0044     0.3726     0.1426     0.5924     0.9542   228.1600     0.3642     0.6174
  715   14.280   3031.01     0.4031     0.0042     0.3865     0.1428     0.5635     1.0089   228.4800     0.3350     0.7143
  716   14.300   3032.04     0.3890     0.0042     0.3962     0.1430     0.5541     1.0826   228.8000     0.3253     0.7692
  717   14.320   3033.07     0.3898     0.0046     0.4047     0.1432     0.5585     1.1929   229.1200     0.3294     0.7844
  718   14.340   3034.10     0.4026     0.0050     0.4129     0.1434     0.5748     1.2631   229.4400     0.3454     0.7721
  719   14.360   3035.16     0.4175     0.0054     0.4196     0.1436     0.5929     1.3148   229.7600     0.3631     0.7547
  720   14.380   3036.19     0.4253     0.0056     0.4249     0.1438     0.6029     1.3220   230.0800     0.3728     0.7488
  721   14.400   3037.24     0.4284     0.0059     0.4318     0.1440     0.6089     1.3733   230.4000     0.3785     0.7548
  722   14.420   3038.30     0.4326     0.0061     0.4378     0.1442     0.6157     1.4096   230.7200     0.3849     0.7574
  723   14.440   3039.30     0.4399     0.0060     0.4402     0.1444     0.6241     1.3694   231.0400     0.3931     0.7485
  724   14.460   3040.39     0.4398     0.0059     0.4436     0.1446     0.6257     1.3357   231.3600     0.3944     0.7559
  725   14.480   3041.40     0.4426     0.0061     0.4440     0.1448     0.6292     1.3853   231.6800     0.3975     0.7535
  726   14.500   3042.44     0.4447     0.0063     0.4491     0.1450     0.6323     1.4188   232.0000     0.4003     0.7536
  727   14.520   3043.48     0.4449     0.0067     0.4516     0.1452     0.6344     1.5101   232.3200     0.4021     0.7610
  728   14.540   3044.53     0.4518     0.0071     0.4524     0.1454     0.6416     1.5897   232.6400     0.4090     0.7500
  729   14.560   3045.55     0.4580     0.0071     0.4514     0.1456     0.6478     1.5544   232.9600     0.4149     0.7384
  730   14.580   3046.61     0.4606     0.0074     0.4507     0.1458     0.6500     1.6000   233.2800     0.4167     0.7321
  731   14.600   3047.64     0.4645     0.0075     0.4467     0.1460     0.6530     1.6223   233.6000     0.4194     0.7222
  732   14.620   3048.65     0.4675     0.0075     0.4454     0.1462     0.6542     1.6044   233.9200     0.4202     0.7094
  733   14.640   3049.73     0.4830     0.0075     0.4429     0.1464     0.6695     1.5860   234.2400     0.4352     0.6836
  734   14.660   3050.79     0.4715     0.0075     0.4480     0.1466     0.6591     1.5686   234.5600     0.4245     0.7069
  735   14.680   3051.84     0.4691     0.0075     0.4491     0.1468     0.6578     1.5932   234.8800     0.4229     0.7152
  736   14.700   3052.81     0.4683     0.0079     0.4508     0.1470     0.6574     1.6764   235.2000     0.4222     0.7179
  737   14.720   3053.80     0.4711     0.0078     0.4514     0.1472     0.6608     1.6595   235.5200     0.4253     0.7160
  738   14.740   3054.91     0.4756     0.0079     0.4499     0.1474     0.6647     1.6641   235.8400     0.4288     0.7062
  739   14.760   3055.91     0.4863     0.0080     0.4439     0.1476     0.6738     1.6686   236.1600     0.4376     0.6829
  740   14.780   3056.98     0.4951     0.0085     0.4393     0.1478     0.6794     1.7322   236.4800     0.4429     0.6570
  741   14.800   3058.00     0.5023     0.0090     0.4336     0.1480     0.6858     1.7977   236.8000     0.4490     0.6437
  742   14.820   3059.00     0.5014     0.0092     0.4259     0.1482     0.6804     1.8317   237.1200     0.4432     0.6272
  743   14.840   3060.11     0.4975     0.0091     0.4310     0.1484     0.6777     1.8329   237.4400     0.4402     0.6375
  744   14.860   3061.16     0.5019     0.0093     0.4318     0.1486     0.6829     1.8526   237.7600     0.4451     0.6343
  745   14.880   3062.13     0.5090     0.0094     0.4394     0.1488     0.6920     1.8567   238.0800     0.4540     0.6322
  746   14.900   3063.20     0.5265     0.0095     0.4406     0.1490     0.7129     1.8124   238.4000     0.4745     0.6211
  747   14.920   3064.26     0.5402     0.0101     0.4392     0.1492     0.7245     1.8591   238.7200     0.4858     0.5959
  748   14.940   3065.32     0.5543     0.0106     0.4317     0.1494     0.7356     1.9461   239.0400     0.4966     0.5687
  749   14.960   3066.32     0.5688     0.0116     0.4261     0.1496     0.7489     2.0662   239.3600     0.5095     0.5481
  750   14.980   3067.37     0.5899     0.0121     0.4258     0.1498     0.7698     2.0806   239.6800     0.5301     0.5254
  751   15.000   3068.43     0.6155     0.0135     0.4345     0.1500     0.7961     2.2318   240.0000     0.5561     0.5039
  752   15.020   3069.43     0.6516     0.0151     0.4292     0.1502     0.8339     2.3670   240.3200     0.5936     0.4783
  753   15.040   3070.48     0.6891     0.0170     0.4160     0.1504     0.8662     2.5152   240.6400     0.6255     0.4337
  754   15.060   3071.51     0.7162     0.0185     0.4022     0.1506     0.8856     2.6228   240.9600     0.6446     0.3922
  755   15.080   3072.57     0.7542     0.0190     0.3863     0.1508     0.9197     2.5493   241.2800     0.6784     0.3586
  756   15.100   3073.66     0.7761     0.0200     0.3724     0.1510     0.9344     2.6196   241.6000     0.6928     0.3261
  757   15.120   3074.66     0.7785     0.0216     0.3739     0.1512     0.9332     2.7746   241.9200     0.6913     0.3140
  758   15.140   3075.69     0.7887     0.0229     0.3759     0.1514     0.9468     2.9526   242.2400     0.7046     0.3193
  759   15.160   3076.72     0.7704     0.0229     0.3902     0.1516     0.9295     2.9631   242.5600     0.6870     0.3307
  760   15.180   3077.77     0.7966     0.0228     0.3860     0.1518     0.9608     2.9070   242.8800     0.7179     0.3331
  761   15.200   3078.81     0.8040     0.0227     0.3782     0.1520     0.9628     2.7976   243.2000     0.7196     0.3144
  762   15.220   3079.80     0.8025     0.0245     0.3773     0.1522     0.9642     3.0519   243.5200     0.7207     0.3230
  763   15.240   3080.89     0.7940     0.0257     0.3749     0.1524     0.9502     3.2062   243.8400     0.7063     0.3107
  764   15.260   3081.94     0.8057     0.0254     0.3786     0.1526     0.9636     3.1904   244.1600     0.7194     0.3104
  765   15.280   3082.97     0.8310     0.0246     0.3717     0.1528     0.9908     3.0012   244.4800     0.7463     0.3051
  766   15.300   3083.98     0.8493     0.0253     0.3734     0.1530     1.0045     2.9931   244.8000     0.7597     0.2850
  767   15.320   3085.06     0.8280     0.0256     0.3969     0.1532     0.9919     3.0697   245.1200     0.7468     0.3173
  768   15.340   3086.08     0.8319     0.0243     0.4108     0.1534     1.0029     2.9361   245.4400     0.7574     0.3349
  769   15.360   3087.12     0.8387     0.0236     0.4244     0.1536     1.0172     2.8253   245.7600     0.7714     0.3516
  770   15.380   3088.15     0.8655     0.0245     0.4485     0.1538     1.0472     2.7922   246.0800     0.8012     0.3481
  771   15.400   3089.23     0.8848     0.0266     0.4839     0.1540     1.0846     3.0265   246.4000     0.8382     0.3840
  772   15.420   3090.23     0.9261     0.0297     0.4931     0.1542     1.1348     3.2632   246.7200     0.8881     0.3860
  773   15.440   3091.25     0.9817     0.0309     0.4850     0.1544     1.1839     3.2243   247.0400     0.9369     0.3492
  774   15.460   3092.29     1.0520     0.0325     0.4788     0.1546     1.2529     3.1602   247.3600     1.0055     0.3218
  775   15.480   3093.38     1.0980     0.0361     0.4490     0.1548     1.2923     3.3420   247.6800     1.0446     0.2947
  776   15.500   3094.43     1.1371     0.0390     0.4789     0.1550     1.3287     3.4599   248.0000     1.0807     0.2785
  777   15.520   3095.49     1.1440     0.0398     0.4904     0.1552     1.3511     3.4962   248.3200     1.1028     0.3064
  778   15.540   3096.50     1.2078     0.0400     0.4620     0.1554     1.4077     3.3868   248.6400     1.1591     0.2767
  779   15.560   3097.55     1.2436     0.0402     0.4536     0.1556     1.4324     3.2762   248.9600     1.1834     0.2484
  780   15.580   3098.61     1.2545     0.0407     0.4414     0.1558     1.4444     3.2369   249.2800     1.1951     0.2479
  781   15.600   3099.67     1.2566     0.0405     0.4740     0.1560     1.4506     3.2001   249.6000     1.2010     0.2546
  782   15.620   3100.67     1.2287     0.0398     0.4741     0.1562     1.4272     3.2450   249.9200     1.1773     0.2687
  783   15.640   3101.67     1.2373     0.0397     0.4882     0.1564     1.4401     3.2021   250.2400     1.1898     0.2742
  784   15.660   3102.70     1.2116     0.0384     0.4925     0.1566     1.4194     3.1377   250.5600     1.1689     0.2893
  785   15.680   3103.84     1.2182     0.0378     0.4901     0.1568     1.4248     3.1439   250.8800     1.1739     0.2855
  786   15.700   3104.83     1.2595     0.0401     0.4832     0.1570     1.4606     3.2363   251.2000     1.2094     0.2661
  787   15.720   3105.84     1.2586     0.0445     0.4806     0.1572     1.4626     3.5312   251.5200     1.2111     0.2712
  788   15.740   3106.89     1.2218     0.0456     0.4824     0.1574     1.4279     3.6830   251.8400     1.1761     0.2834
  789   15.760   3107.92     1.2089     0.0450     0.4495     0.1576     1.4043     3.7128   252.1600     1.1521     0.2669
  790   15.780   3108.99     1.2215     0.0440     0.4061     0.1578     1.3992     3.6281   252.4800     1.1467     0.2314
  791   15.800   3109.99     1.2608     0.0461     0.4087     0.1580     1.4290     3.6725   252.8000     1.1762     0.2061
  792   15.820   3111.07     1.2541     0.0493     0.3248     0.1582     1.4064     3.9162   253.1200     1.1533     0.1768
  793   15.840   3112.12     1.2465     0.0477     0.3479     0.1584     1.3850     3.8392   253.4400     1.1315     0.1513
  794   15.860   3113.17     1.2439     0.0452     0.3538     0.1586     1.3946     3.6257   253.7600     1.1408     0.1755
  795   15.880   3114.18     1.2910     0.0450     0.3427     0.1588     1.4357     3.5259   254.0800     1.1817     0.1572
  796   15.900   3115.21     1.3142     0.0454     0.3656     0.1590     1.4616     3.4796   254.4000     1.2072     0.1590
  797   15.920   3116.26     1.2913     0.0465     0.3956     0.1592     1.4568     3.5803   254.7200     1.2020     0.1953
  798   15.940   3117.32     1.2397     0.0467     0.3983     0.1594     1.4090     3.7460   255.0400     1.1539     0.2112
  799   15.960   3118.33     1.2205     0.0473     0.3847     0.1596     1.3850     3.8781   255.3600     1.1296     0.2053
  800   15.980   3119.40     1.1843     0.0478     0.3748     0.1598     1.3432     4.0101   255.6800     1.0876     0.2011
  801   16.000   3120.47     1.1213     0.0439     0.3754     0.1600     1.2807     3.8600   256.0000     1.0247     0.2143
  802   16.020   3121.55     1.0855     0.0401     0.3679     0.1602     1.2412     3.6491   256.3200     0.9849     0.2137
  803   16.040   3122.58     1.0327     0.0366     0.3882     0.1604     1.1901     3.4952   256.6400     0.9334     0.2297
  804   16.060   3132.01     1.0138     0.0331     0.4357     0.1606     1.1899     3.2283   256.9600     0.9329     0.2770
  805   16.080   3143.12     0.9992     0.0315     0.4833     0.1608     1.1953     3.0705   257.2800     0.9381     0.3260
  806   16.100   3149.24     0.9849     0.0280     0.5047     0.1610     1.1946     2.8293   257.6000     0.9370     0.3610
  807   16.120   3150.30     1.0150     0.0272     0.5059     0.1612     1.2309     2.7158   257.9200     0.9730     0.3627
  808   16.140   3151.33     1.0631     0.0275     0.4793     0.1614     1.2686     2.6218   258.2400     1.0103     0.3244
  809   16.160   3152.37     1.0657     0.0291     0.4718     0.1616     1.2615     2.7342   258.5600     1.0029     0.3036
  810   16.180   3153.42     1.0468     0.0294     0.4668     0.1618     1.2493     2.7831   258.8800     0.9905     0.3235
  811   16.200   3154.53     1.0452     0.0305     0.4289     0.1620     1.2285     2.9178   259.2000     0.9693     0.2831
  812   16.220   3155.53     1.0322     0.0304     0.4350     0.1622     1.2141     2.9397   259.5200     0.9546     0.2839
  813   16.240   3156.54     1.0380     0.0323     0.4561     0.1624     1.2240     3.1125   259.8400     0.9642     0.2909
  814   16.260   3157.56     1.0234     0.0344     0.4645     0.1626     1.2194     3.3437   260.1600     0.9592     0.3169
  815   16.280   3158.56     1.0183     0.0322     0.4479     0.1628     1.2097     3.1473   260.4800     0.9492     0.3085
  816   16.300   3159.61     0.9981     0.0295     0.4181     0.1630     1.1781     2.9285   260.8000     0.9173     0.2895
  817   16.320   3160.68     0.9607     0.0281     0.3812     0.1632     1.1246     2.8986   261.1200     0.8635     0.2629
  818   16.340   3161.73     0.9369     0.0276     0.3916     0.1634     1.0973     2.8838   261.4400     0.8359     0.2613
  819   16.360   3162.81     0.8679     0.0278     0.4434     0.1636     1.0459     3.0923   261.7600     0.7842     0.3320
  820   16.380   3163.82     0.8348     0.0245     0.4651     0.1638     1.0269     2.9199   262.0800     0.7648     0.3840
  821   16.400   3164.85     0.8781     0.0242     0.4656     0.1640     1.0736     2.8135   262.4000     0.8112     0.3717
  822   16.420   3165.90     0.9158     0.0253     0.4817     0.1642     1.1113     2.7927   262.7200     0.8485     0.3550
  823   16.440   3166.89     0.9100     0.0249     0.4579     0.1644     1.1076     2.7315   263.0400     0.8446     0.3623
  824   16.460   3167.95     0.9184     0.0263     0.4189     0.1646     1.1016     2.8618   263.3600     0.8382     0.3240
  825   16.480   3169.05     0.8973     0.0255     0.3901     0.1648     1.0605     2.8454   263.6800     0.7968     0.2807
  826   16.500   3170.12     0.8893     0.0260     0.4294     0.1650     1.0626     2.9172   264.0000     0.7986     0.3100
  827   16.520   3171.13     0.8737     0.0248     0.4821     0.1652     1.0711     2.8110   264.3200     0.8067     0.3777
  828   16.540   3172.15     0.8890     0.0222     0.4737     0.1654     1.0875     2.5337   264.6400     0.8229     0.3735
  829   16.560   3173.15     0.8723     0.0190     0.4673     0.1656     1.0739     2.1272   264.9600     0.8089     0.3886
  830   16.580   3174.25     0.8360     0.0201     0.4242     0.1658     1.0202     2.3780   265.2800     0.7549     0.3613
  831   16.600   3175.30     0.8128     0.0195     0.4160     0.1660     0.9847     2.3816   265.6000     0.7191     0.3383
  832   16.620   3176.34     0.7855     0.0193     0.4340     0.1662     0.9606     2.4249   265.9200     0.6947     0.3609
  833   16.640   3177.39     0.7537     0.0189     0.4583     0.1664     0.9442     2.4644   266.2400     0.6779     0.4233
  834   16.660   3178.38     0.7506     0.0179     0.4388     0.1666     0.9361     2.3867   266.5600     0.6695     0.4108
  835   16.680   3179.42     0.7332     0.0165     0.4627     0.1668     0.9272     2.2077   266.8800     0.6603     0.4468
  836   16.700   3180.53     0.7132     0.0158     0.4589     0.1670     0.9071     2.1976   267.2000     0.6399     0.4605
  837   16.720   3181.55     0.6946     0.0153     0.4357     0.1672     0.8806     2.1768   267.5200     0.6131     0.4496
  838   16.740   3182.59     0.6808     0.0149     0.4431     0.1674     0.8656     2.1578   267.8400     0.5978     0.4561
  839   16.760   3183.64     0.6562     0.0138     0.4457     0.1676     0.8435     2.0797   268.1600     0.5754     0.4839
  840   16.780   3184.67     0.6496     0.0107     0.4459     0.1678     0.8369     1.6399   268.4800     0.5684     0.4894
  841   16.800   3185.68     0.6588     0.0092     0.4324     0.1680     0.8415     1.4168   268.8000     0.5727     0.4662
  842   16.820   3186.69     0.6502     0.0086     0.4375     0.1682     0.8335     1.3047   269.1200     0.5643     0.4750
  843   16.840   3187.77     0.6246     0.0085     0.4450     0.1684     0.8116     1.3324   269.4400     0.5421     0.5108
  844   16.860   3188.82     0.6017     0.0078     0.4569     0.1686     0.7939     1.2910   269.7600     0.5242     0.5513
  845   16.880   3189.87     0.6070     0.0078     0.4511     0.1688     0.7973     1.2925   270.0800     0.5272     0.5392
  846   16.900   3190.92     0.6018     0.0084     0.4426     0.1690     0.7903     1.3874   270.4000     0.5199     0.5381
  847   16.920   3191.96     0.5968     0.0100     0.4328     0.1692     0.7801     1.6616   270.7200     0.5094     0.5249
  848   16.940   3192.97     0.5786     0.0102     0.4355     0.1694     0.7615     1.7431   271.0400     0.4905     0.5429
  849   16.960   3194.04     0.5684     0.0101     0.4460     0.1696     0.7526     1.7751   271.3600     0.4812     0.5588
  850   16.980   3195.16     0.5828     0.0114     0.4508     0.1698     0.7726     1.9926   271.6800     0.5009     0.5633
  851   17.000   3196.18     0.6122     0.0125     0.4517     0.1700     0.8002     2.0892   272.0000     0.5282     0.5257
  852   17.020   3197.24     0.6358     0.0122     0.4637     0.1702     0.8311     1.9437   272.3200     0.5587     0.5276
  853   17.040   3198.24     0.6573     0.0121     0.4335     0.1704     0.8457     1.8704   272.6400     0.5730     0.4855
  854   17.060   3199.32     0.6616     0.0115     0.4237     0.1706     0.8378     1.7350   272.9600     0.5649     0.4406
  855   17.080   3200.33     0.6332     0.0118     0.4381     0.1708     0.8160     1.8282   273.2800     0.5427     0.4874
  856   17.100   3201.38     0.6004     0.0120     0.4577     0.1710     0.7883     1.9532   273.6000     0.5147     0.5368
  857   17.120   3202.45     0.5861     0.0109     0.4607     0.1712     0.7808     1.8574   273.9200     0.5069     0.5771
  858   17.140   3203.50     0.5950     0.0094     0.4582     0.1714     0.7875     1.5935   274.2400     0.5133     0.5592
  859   17.160   3204.53     0.5946     0.0090     0.4597     0.1716     0.7864     1.5068   274.5600     0.5118     0.5570
  860   17.180   3205.54     0.5922     0.0096     0.4720     0.1718     0.7891     1.6120   274.8800     0.5142     0.5777
  861   17.200   3206.60     0.5955     0.0103     0.4771     0.1720     0.7952     1.7449   275.2000     0.5200     0.5835
  862   17.220   3207.66     0.6048     0.0096     0.4782     0.1722     0.8059     1.5961   275.5200     0.5304     0.5781
  863   17.240   3208.69     0.6178     0.0092     0.4732     0.1724     0.8173     1.5059   275.8400     0.5415     0.5588
  864   17.260   3209.71     0.6240     0.0093     0.4668     0.1726     0.8194     1.4891   276.1600     0.5433     0.5389
  865   17.280   3210.74     0.6246     0.0086     0.4749     0.1728     0.8223     1.3824   276.4800     0.5458     0.5455
  866   17.300   3211.83     0.6106     0.0081     0.4861     0.1730     0.8146     1.3150   276.8000     0.5378     0.5814
  867   17.320   3212.89     0.6099     0.0084     0.4888     0.1732     0.8137     1.3833   277.1200     0.5366     0.5813
  868   17.340   3213.97     0.6058     0.0079     0.4876     0.1734     0.8118     1.3147   277.4400     0.5344     0.5938
  869   17.360   3214.96     0.6046     0.0092     0.4346     0.1736     0.8014     1.5155   277.7600     0.5236     0.5622
  870   17.380   3215.97     0.5899     0.0099     0.4780     0.1738     0.7881     1.6739   278.0800     0.5100     0.5844
  871   17.400   3217.05     0.5957     0.0106     0.4858     0.1740     0.7994     1.8024   278.4000     0.5210     0.5973
  872   17.420   3218.11     0.5950     0.0115     0.4818     0.1742     0.7974     1.9245   278.7200     0.5186     0.5930
  873   17.440   3219.20     0.6184     0.0105     0.4846     0.1744     0.8214     1.7291   279.0400     0.5424     0.5696
  874   17.460   3220.26     0.6292     0.0119     0.4926     0.1746     0.8354     1.8936   279.3600     0.5560     0.5688
  875   17.480   3221.28     0.6662     0.0132     0.5006     0.1748     0.8731     2.0259   279.6800     0.5934     0.5355
  876   17.500   3222.33     0.7211     0.0141     0.5117     0.1750     0.9340     2.0355   280.0000     0.6540     0.5077
  877   17.520   3223.34     0.7425     0.0156     0.4931     0.1752     0.9558     2.0999   280.3200     0.6755     0.4927
  878   17.540   3224.38     0.8213     0.0169     0.4919     0.1754     1.0188     2.1194   280.6400     0.7382     0.3994
  879   17.560   3225.46     0.8821     0.0165     0.5065     0.1756     1.0944     1.9078   280.9600     0.8134     0.4055
  880   17.580   3226.54     0.9058     0.0172     0.5324     0.1758     1.1209     1.9057   281.2800     0.8396     0.4005
  881   17.600   3227.57     0.9297     0.0179     0.5649     0.1760     1.1599     1.9463   281.6000     0.8783     0.4237
  882   17.620   3228.65     0.9357     0.0195     0.6147     0.1762     1.1900     2.0847   281.9200     0.9080     0.4726
  883   17.640   3229.65     0.9619     0.0197     0.6365     0.1764     1.2265     2.0680   282.2400     0.9442     0.4802
  884   17.660   3230.70     0.9801     0.0190     0.6427     0.1766     1.2492     1.9532   282.5600     0.9667     0.4802
  885   17.680   3231.76     1.0051     0.0189     0.6544     0.1768     1.2789     1.8842   282.8800     0.9960     0.4769
  886   17.700   3232.82     1.0111     0.0198     0.6716     0.1770     1.2890     1.9619   283.2000     1.0058     0.4819
  887   17.720   3233.82     1.0098     0.0208     0.6870     0.1772     1.2978     2.0568   283.5200     1.0143     0.5014
  888   17.740   3234.87     1.0016     0.0207     0.6970     0.1774     1.2904     2.0705   283.8400     1.0066     0.5069
  889   17.760   3235.93     0.9991     0.0204     0.7017     0.1776     1.2952     2.0561   284.1600     1.0111     0.5218
  890   17.780   3236.93     1.0252     0.0203     0.7235     0.1778     1.3253     1.9937   284.4800     1.0408     0.5157
  891   17.800   3237.98     1.0315     0.0200     0.7598     0.1780     1.3457     1.9403   284.8000     1.0609     0.5373
  892   17.820   3239.04     1.0537     0.0349     0.7677     0.1782     1.3742     3.3054   285.1200     1.0891     0.5371
  893   17.840   3240.08     1.0693     0.0515     0.7897     0.1784     1.3995     4.8233   285.4400     1.1141     0.5456
  894   17.860   3241.16     1.0866     0.0526     0.7786     0.1786     1.4171     4.8145   285.7600     1.1313     0.5378
  895   17.880   3242.21     1.0851     0.0541     0.7618     0.1788     1.4071     4.9695   286.0800     1.1210     0.5244
  896   17.900   3243.22     1.0902     0.0585     0.7514     0.1790     1.4063     5.3604   286.4000     1.1199     0.5121
  897   17.920   4928.13     1.1538     0.0661     0.5545     0.1792     1.4201     6.1292   286.7200     1.1334     0.4105
  898   17.940   8240.05     1.3014     0.0693     0.3238     0.1794     1.4708     6.4256   287.0400     1.1838     0.2018
  899   17.960  11337.26     1.4336     0.0689     0.2617     0.1796     1.5174     5.6112   287.3600     1.2300     0.0162
  900   17.980  11338.36     1.3002     0.0655     0.3523     0.1798     1.4377     4.8191   287.6800     1.1500     0.1288
  901   18.000  11339.42     1.1835     0.0599     0.4183     0.1800     1.3483     4.9063   288.0000     1.0603     0.2006
  902   18.020  11340.48     1.0689     0.0536     0.5217     0.1802     1.2736     4.8217   288.3200     0.9853     0.3123
  903   18.040  11341.49     0.9916     0.0466     0.5882     0.1804     1.2335     4.6182   288.6400     0.9449     0.4187
  904   18.060  11342.54     0.9611     0.0432     0.5964     0.1806     1.2100     4.4603   288.9600     0.9210     0.4474
  905   18.080  11343.59     0.9341     0.0417     0.5902     0.1808     1.1834     4.4565   289.2800     0.8941     0.4616
  906   18.100  11344.67     0.9821     0.0408     0.6054     0.1810     1.2316     4.2748   289.6000     0.9420     0.4386
  907   18.120  11345.70     0.9900     0.0395     0.6357     0.1812     1.2543     3.9819   289.9200     0.9644     0.4646
  908   18.140  11346.78     0.9929     0.0404     0.6684     0.1814     1.2686     4.0787   290.2400     0.9783     0.4856
  909   18.160  11347.82     0.9866     0.0394     0.6875     0.1816     1.2722     3.9875   290.5600     0.9817     0.5077
  910   18.180  11348.83     0.9785     0.0394     0.6948     0.1818     1.2684     4.0086   290.8800     0.9775     0.5201
  911   18.200  11349.86     0.9566     0.0377     0.6933     0.1820     1.2481     3.9121   291.2000     0.9569     0.5351
  912   18.220  11350.87     0.9747     0.0353     0.6848     0.1822     1.2616     3.6641   291.5200     0.9701     0.5165
  913   18.240  11351.93     0.9782     0.0328     0.6780     0.1824     1.2681     3.3045   291.8400     0.9763     0.5202
  914   18.260  11352.98     0.9491     0.0301     0.6169     0.1826     1.2131     3.2109   292.1600     0.9210     0.4845
  915   18.280  11354.06     1.0116     0.0284     0.6490     0.1828     1.2773     2.8518   292.4800     0.9848     0.4567
  916   18.300  11355.10     0.9801     0.0261     0.6400     0.1830     1.2533     2.6092   292.8000     0.9605     0.4867
  917   18.320  11356.17     0.9347     0.0245     0.5875     0.1832     1.1906     2.5496   293.1200     0.8975     0.4749
  918   18.340  11357.23     0.8439     0.0227     0.5009     0.1834     1.0697     2.5774   293.4400     0.7763     0.4564
  919   18.360  11358.21     0.7781     0.0202     0.4419     0.1836     0.9708     2.4998   293.7600     0.6770     0.4064
  920   18.380  11359.24     0.7040     0.0159     0.4169     0.1838     0.8833     2.1936   294.0800     0.5892     0.4124
  921   18.400  11360.29     0.6211     0.0147     0.3794     0.1840     0.7893     2.2969   294.4000     0.4949     0.4371
  922   18.420  11361.35     0.5739     0.0152     0.3613     0.1842     0.7274     2.5858   294.7200     0.4327     0.4191
  923   18.440  11362.39     0.5176     0.0177     0.3613     0.1844     0.6679     3.2932   295.0400     0.3728     0.4658
  924   18.460  11363.41     0.4776     0.0197     0.3530     0.1846     0.6288     4.0524   295.3600     0.3334     0.5257
  925   18.480  11364.48     0.5127     0.0194     0.3779     0.1848     0.6655     4.0223   295.6800     0.3698     0.4840
  926   18.500  11365.53     0.6221     0.0193     0.4134     0.1850     0.7892     3.3683   296.0000     0.4932     0.4324
  927   18.520  11366.61     0.7313     0.0208     0.4681     0.1852     0.9185     3.0217   296.3200     0.6222     0.4188
  928   18.540  11367.60     0.8044     0.0224     0.5352     0.1854     1.0205     2.8310   296.6400     0.7239     0.4547
  929   18.560  11368.65     0.7705     0.0248     0.5645     0.1856     1.0070     3.1342   296.9600     0.7100     0.5315
  930   18.580  11369.66     0.7474     0.0263     0.5559     0.1858     0.9826     3.5099   297.2800     0.6853     0.5460
  931   18.600  11370.75     0.7549     0.0255     0.5436     0.1860     0.9878     3.4070   297.6000     0.6902     0.5342
  932   18.620  11371.83     0.7827     0.0253     0.5538     0.1862     1.0129     3.2375   297.9200     0.7150     0.5062
  933   18.640  11372.85     0.7577     0.0267     0.5604     0.1864     0.9925     3.4885   298.2400     0.6942     0.5365
  934   18.660  11373.94     0.7393     0.0295     0.5732     0.1866     0.9778     3.9285   298.5600     0.6792     0.5615
  935   18.680  11374.96     0.6891     0.0304     0.5702     0.1868     0.9306     4.2735   298.8800     0.6317     0.6146
  936   18.700  11375.98     0.6460     0.0312     0.5526     0.1870     0.8805     4.7454   299.2000     0.5813     0.6387
  937   18.720  11377.01     0.6241     0.0322     0.5400     0.1872     0.8522     5.0529   299.5200     0.5527     0.6443
  938   18.740  11378.06     0.6050     0.0324     0.5499     0.1874     0.8329     5.4291   299.8400     0.5330     0.6661
  939   18.760  11379.12     0.6866     0.0332     0.5553     0.1876     0.9219     5.1387   300.1600     0.6217     0.5996
  940   18.780  11380.15     0.7682     0.0343     0.5480     0.1878     1.0005     4.7025   300.4800     0.7000     0.5220
  941   18.800  11381.21     0.8584     0.0337     0.5180     0.1880     1.0878     4.1552   300.8000     0.7870     0.4551
  942   18.820  11382.25     0.9208     0.0344     0.5184     0.1882     1.1305     3.8560   301.1200     0.8294     0.3750
  943   18.840  11383.23     0.9675     0.0345     0.5389     0.1884     1.1865     3.6204   301.4400     0.8850     0.3761
  944   18.860  11384.30     1.0530     0.0350     0.6544     0.1886     1.3156     3.4067   301.7600     1.0139     0.4307
  945   18.880  11385.36     1.1067     0.0339     0.6964     0.1888     1.3938     3.0617   302.0800     1.0917     0.4532
  946   18.900  11386.43     1.1264     0.0341     0.7082     0.1890     1.4249     3.0850   302.4000     1.1225     0.4649
  947   18.920  11387.48     1.1458     0.0337     0.5819     0.1892     1.4001     2.8745   302.7200     1.0974     0.3777
  948   18.940  11388.54     1.1361     0.0335     0.6713     0.1894     1.4090     2.9830   303.0400     1.1060     0.4161
  949   18.960  11389.55     1.1459     0.0329     0.7239     0.1896     1.4431     2.8748   303.3600     1.1397     0.4545
  950   18.980  11390.60     1.1651     0.0327     0.7616     0.1898     1.4807     2.8220   303.6800     1.1770     0.4770
  951   19.000  11391.68     1.1767     0.0312     0.7902     0.1900     1.5049     2.6600   304.0000     1.2009     0.4926
  952   19.020  11392.73     1.1585     0.0313     0.7995     0.1902     1.4955     2.6777   304.3200     1.1912     0.5139
  953   19.040  11393.78     1.1646     0.0316     0.8062     0.1904     1.5013     2.7253   304.6400     1.1967     0.5108
  954   19.060  11394.85     1.1637     0.0312     0.8142     0.1906     1.5043     2.6751   304.9600     1.1993     0.5173
  955   19.080  11395.88     1.1465     0.0307     0.8194     0.1908     1.4908     2.6649   305.2800     1.1856     0.5306
  956   19.100  11396.87     1.1489     0.0308     0.8217     0.1910     1.4948     2.6932   305.6000     1.1892     0.5321
  957   19.120  11397.94     1.1420     0.0302     0.8281     0.1912     1.4896     2.6258   305.9200     1.1836     0.5376
  958   19.140  11399.02     1.1258     0.0304     0.8275     0.1914     1.4741     2.6946   306.2400     1.1679     0.5461
  959   19.160  11400.06     1.1279     0.0302     0.8271     0.1916     1.4755     2.6704   306.5600     1.1689     0.5441
  960   19.180  11401.11     1.1523     0.0293     0.7898     0.1918     1.4944     2.5655   306.8800     1.1875     0.5244
  961   19.200  11402.15     1.1037     0.0306     0.7438     0.1920     1.4086     2.6434   307.2000     1.1014     0.4849
  962   19.220  11403.16     1.1076     0.0287     0.7873     0.1922     1.4345     2.5917   307.5200     1.1270     0.5200
  963   19.240  11404.21     1.1109     0.0283     0.8214     0.1924     1.4537     2.5512   307.8400     1.1458     0.5443
  964   19.260  11405.26     1.1031     0.0289     0.8418     0.1926     1.4551     2.6124   308.1600     1.1470     0.5628
  965   19.280  11406.32     1.0925     0.0294     0.8513     0.1928     1.4489     2.6863   308.4800     1.1404     0.5750
  966   19.300  11407.32     1.1580     0.0293     0.8682     0.1930     1.5201     2.5738   308.8000     1.2113     0.5525
  967   19.320  11408.38     1.1219     0.0289     0.8667     0.1932     1.4866     2.5662   309.1200     1.1775     0.5734
  968   19.340  11409.43     1.1347     0.0291     0.8657     0.1934     1.4994     2.5566   309.4400     1.1900     0.5672
  969   19.360  11410.50     1.1202     0.0289     0.8803     0.1936     1.4878     2.5502   309.7600     1.1780     0.5786
  970   19.380  11411.56     1.0909     0.0284     0.8787     0.1938     1.4589     2.5758   310.0800     1.1488     0.5939
  971   19.400  11412.60     1.0823     0.0282     0.8879     0.1940     1.4536     2.6017   310.4000     1.1432     0.6036
  972   19.420  11413.63     1.0893     0.0274     0.8914     0.1942     1.4638     2.5284   310.7200     1.1531     0.6049
  973   19.440  11414.70     1.1144     0.0271     0.9142     0.1944     1.4952     2.4442   311.0400     1.1842     0.6015
  974   19.460  11415.78     1.1078     0.0276     0.9225     0.1946     1.4948     2.4908   311.3600     1.1834     0.6141
  975   19.480  11416.82     1.1029     0.0278     0.9346     0.1948     1.4909     2.5029   311.6800     1.1793     0.6182
  976   19.500  11417.87     1.0647     0.0288     0.9279     0.1950     1.4546     2.6755   312.0000     1.1426     0.6418
  977   19.520  11418.90     1.0715     0.0289     0.9352     0.1952     1.4635     2.7091   312.3200     1.1511     0.6411
  978   19.540  11419.93     1.0767     0.0296     0.9396     0.1954     1.4714     2.7498   312.6400     1.1588     0.6424
  979   19.560  11421.02     1.0760     0.0275     0.9379     0.1956     1.4700     2.5474   312.9600     1.1570     0.6417
  980   19.580  11422.05     1.1042     0.0292     0.9440     0.1958     1.4991     2.6707   313.2800     1.1858     0.6279
  981   19.600  11423.12     1.1233     0.0288     0.9552     0.1960     1.5223     2.5859   313.6000     1.2087     0.6238
  982   19.620  11424.12     1.1337     0.0287     0.9632     0.1962     1.5402     2.5391   313.9200     1.2263     0.6293
  983   19.640  11425.18     1.1928     0.0280     0.9952     0.1964     1.6022     2.3646   314.2400     1.2880     0.6044
  984   19.660  11426.24     1.1640     0.0278     0.7213     0.1966     1.5354     2.4088   314.5600     1.2208     0.5628
  985   19.680  11427.24     1.1078     0.0274     0.7750     0.1968     1.4192     2.3966   314.8800     1.1043     0.4932
  986   19.700  11428.29     1.0891     0.0272     0.8340     0.1970     1.4342     2.4922   315.2000     1.1190     0.5583
  987   19.720  11429.30     1.0890     0.0265     0.8560     0.1972     1.4464     2.4440   315.5200     1.1309     0.5781
  988   19.740  11430.33     1.0788     0.0264     0.8787     0.1974     1.4434     2.4490   315.8400     1.1276     0.5949
  989   19.760  11431.43     1.0528     0.0261     0.8953     0.1976     1.4252     2.4537   316.1600     1.1091     0.6214
  990   19.780  11432.50     1.0337     0.0270     0.9117     0.1978     1.4146     2.5988   316.4800     1.0982     0.6458
  991   19.800  11433.57     1.0892     0.0279     0.9240     0.1980     1.4763     2.6449   316.8000     1.1595     0.6243
  992   19.820  11434.64     1.1321     0.0279     0.9190     0.1982     1.5214     2.4732   317.1200     1.2043     0.6051
  993   19.840  11452.60     1.1612     0.0280     0.8953     0.1984     1.5406     2.4741   317.4400     1.2232     0.5769
  994   19.860  11470.72     1.1904     0.0281     0.8805     0.1986     1.5599     2.4348   317.7600     1.2421     0.5484
  995   19.880  11472.72     1.1539     0.0285     0.9024     0.1988     1.5293     2.4442   318.0800     1.2112     0.5737
  996   19.900  11473.78     1.1270     0.0280     0.9142     0.1990     1.5062     2.4677   318.4000     1.1878     0.5926
  997   19.920  11474.88     1.0662     0.0269     0.9538     0.1992     1.4598     2.4782   318.7200     1.1411     0.6466
  998   19.940  11475.93     1.0282     0.0263     0.9793     0.1994     1.4373     2.5471   319.0400     1.1182     0.6926
  999   19.960  11476.98     1.0444     0.0267     0.9915     0.1996     1.4585     2.5644   319.3600     1.1392     0.6904
 1000   19.980  11478.01     1.0354     0.0259     0.9961     0.1998     1.4536     2.4858   319.6800     1.1339     0.7020
 1001   20.000  11479.02     1.0268     0.0270     1.0041     0.2000     1.4481     2.6170   320.0000     1.1281     0.7118
 1002   20.020  11480.04     1.0297     0.0266     1.0060     0.2002     1.4518     2.5883   320.3200     1.1315     0.7112
 1003   20.040  11481.12     1.0410     0.0272     1.0083     0.2004     1.4646     2.6205   320.6400     1.1440     0.7065
 1004   20.060  11482.21     1.0509     0.0272     1.0147     0.2006     1.4749     2.5974   320.9600     1.1539     0.7010
 1005   20.080  11483.24     1.0553     0.0274     1.0212     0.2008     1.4849     2.6069   321.2800     1.1637     0.7066
 1006   20.100  11484.26     1.0608     0.0275     1.0243     0.2010     1.4912     2.5863   321.6000     1.1696     0.7042
 1007   20.120  11485.33     1.0558     0.0272     1.0143     0.2012     1.4825     2.5879   321.9200     1.1606     0.7020
 1008   20.140  11486.40     1.0521     0.0271     1.0154     0.2014     1.4773     2.5628   322.2400     1.1551     0.7021
 1009   20.160  11487.44     1.0380     0.0269     1.0259     0.2016     1.4668     2.5841   322.5600     1.1442     0.7160
 1010   20.180  11488.46     1.0447     0.0271     1.0251     0.2018     1.4761     2.5992   322.8800     1.1533     0.7158
 1011   20.200  11489.46     1.0498     0.0267     1.0226     0.2020     1.4792     2.5424   323.2000     1.1560     0.7097
 1012   20.220  11490.47     1.0386     0.0252     1.0189     0.2022     1.4673     2.4155   323.5200     1.1438     0.7157
 1013   20.240  11491.54     1.0352     0.0247     1.0167     0.2024     1.4620     2.3920   323.8400     1.1381     0.7149
 1014   20.260  11492.60     1.0418     0.0241     1.0175     0.2026     1.4686     2.3125   324.1600     1.1444     0.7109
 1015   20.280  11493.66     1.0320     0.0231     1.0178     0.2028     1.4598     2.2238   324.4800     1.1353     0.7185
 1016   20.300  11494.71     1.0182     0.0218     1.0161     0.2030     1.4446     2.1349   324.8000     1.1198     0.7254
 1017   20.320  11495.76     1.0164     0.0213     0.9994     0.2032     1.4383     2.0969   325.1200     1.1132     0.7198
 1018   20.340  11496.74     1.0254     0.0206     0.9785     0.2034     1.4407     2.0120   325.4400     1.1153     0.7044
 1019   20.360  11497.81     1.0413     0.0196     0.9685     0.2036     1.4489     1.8860   325.7600     1.1232     0.6828
 1020   20.380  11498.84     1.0558     0.0196     0.9563     0.2038     1.4595     1.8728   326.0800     1.1334     0.6683
 1021   20.400  11499.96     1.1209     0.0185     0.9351     0.2040     1.5165     1.6948   326.4000     1.1901     0.6203
 1022   20.420  11501.00     1.2395     0.0177     0.8978     0.2042     1.6218     1.4825   326.7200     1.2950     0.5454
 1023   20.440  11502.04     1.3954     0.0183     0.8341     0.2044     1.7572     1.3644   327.0400     1.4302     0.4599
 1024   20.460  11503.03     1.5283     0.0226     0.7834     0.2046     1.8614     1.5073   327.3600     1.5341     0.3837
 1025   20.480  11504.05     1.5095     0.0265     0.7937     0.2048     1.8421     1.7277   327.6800     1.5144     0.3877
 1026   20.500  11505.24     1.6392     0.0240     0.7643     0.2050     1.9651     1.5164   328.0000     1.6371     0.3488
 1027   20.520  11506.24     1.7757     0.0246     0.6925     0.2052     2.0697     1.4115   328.3200     1.7414     0.2842
 1028   20.540  11507.29     1.9407     0.0288     0.6447     0.2054     2.2182     1.5323   328.6400     1.8895     0.2409
 1029   20.560  11508.29     1.9902     0.0307     0.6117     0.2056     2.2467     1.5536   328.9600     1.9177     0.2112
 1030   20.580  11509.30     2.0239     0.0336     0.6095     0.2058     2.2776     1.6519   329.2800     1.9483     0.2045
 1031   20.600  11510.40     1.9456     0.0350     0.6086     0.2060     2.1976     1.8065   329.6000     1.8680     0.2110
 1032   20.620  11511.49     1.9493     0.0326     0.6536     0.2062     2.2195     1.6720   329.9200     1.8896     0.2314
 1033   20.640  11512.51     1.9569     0.0301     0.6556     0.2064     2.2308     1.5386   330.2400     1.9005     0.2344
 1034   20.660  11513.60     1.9066     0.0258     0.6600     0.2066     2.1850     1.3395   330.5600     1.8545     0.2461
 1035   20.680  11514.65     1.8773     0.0244     0.6562     0.2068     2.1528     1.3078   330.8800     1.8219     0.2466
 1036   20.700  11515.65     1.8311     0.0237     0.6391     0.2070     2.1007     1.2752   331.2000     1.7695     0.2458
 1037   20.720  11516.66     1.7391     0.0248     0.6619     0.2072     2.0097     1.3995   331.5200     1.6782     0.2604
 1038   20.740  11517.68     1.6812     0.0262     0.7654     0.2074     1.9846     1.5691   331.8400     1.6527     0.3115
 1039   20.760  11518.74     1.7861     0.0319     0.7857     0.2076     2.1221     1.8338   332.1600     1.7900     0.3312
 1040   20.780  11519.87     2.1101     0.0356     0.7098     0.2078     2.4186     1.8067   332.4800     2.0861     0.2532
 1041   20.800  11520.92     2.4542     0.0352     0.6155     0.2080     2.7149     1.4925   332.8000     2.3821     0.1732
 1042   20.820  11521.95     2.6167     0.0346     0.4915     0.2082     2.8399     1.3263   333.1200     2.5068     0.1288
 1043   20.840  11522.98     2.4737     0.0337     0.5055     0.2084     2.6760     1.3364   333.4400     2.3426     0.1168
 1044   20.860  11524.01     2.1266     0.0382     0.6063     0.2086     2.3690     1.7130   333.7600     2.0352     0.1819
 1045   20.880  11525.07     1.7673     0.0464     0.7530     0.2088     2.0517     2.5201   334.0800     1.7176     0.2735
 1046   20.900  11526.20     1.7766     0.0406     0.8415     0.2090     2.1253     2.3569   334.4000     1.7909     0.3470
 1047   20.920  11527.25     2.1848     0.0403     0.7318     0.2092     2.5199     1.9348   334.7200     2.1852     0.2698
 1048   20.940  11528.29     2.5119     0.0418     0.4132     0.2094     2.7333     1.7057   335.0400     2.3983     0.1327
 1049   20.960  11529.32     2.7521     0.0403     0.4428     0.2096     2.9175     1.4998   335.3600     2.5821     0.0710
 1050   20.980  11530.39     3.4958     0.0407     0.4508     0.2098     3.6874     1.2213   335.6800     3.3517     0.0739
 1051   21.000  11531.46     4.5967     0.0516     0.3426     0.2100     4.7552     1.1593   336.0000     4.4192     0.0383
 1052   21.020  11532.61     5.6952     0.0611     0.2432     0.2102     5.8139     1.1273   336.3200     5.4776     0.0133
 1053   21.040  11533.66     6.8684     0.0475     0.1465     0.2104     6.9385     0.7290   336.6400     6.6018    -0.0066
 1054   21.060  11534.74     7.5918     0.0445     0.1292     0.2106     7.6432     0.5922   336.9600     7.3063    -0.0121
 1055   21.080  11535.83     7.6273     0.0459     0.0947     0.2108     7.6775     0.6008   337.2800     7.3402    -0.0125
 1056   21.100  11536.90     7.6227     0.0512    -0.0546     0.2110     7.6198     0.6711   337.6000     7.2822    -0.0299
 1057   21.120  11537.96     7.6661     0.0584     0.0047     0.2112     7.6531     0.7669   337.9200     7.3152    -0.0331
 1058   21.140  11538.99     7.8169     0.0664     0.0609     0.2114     7.8430     0.8530   338.2400     7.5047    -0.0199
 1059   21.160  11540.11     7.5043     0.0831    -0.0277     0.2116     7.5057     1.0732   338.5600     7.1671    -0.0291
 1060   21.180  11541.23     6.1779     0.0890    -0.0360     0.2118     6.1646     1.3241   338.8800     5.8257    -0.0418
 1061   21.200  11542.20     4.8827     0.0824    -0.0832     0.2120     4.8550     1.5436   339.2000     4.5158    -0.0617
 1062   21.220  11543.28     3.8694     0.0786    -0.0618     0.2122     3.8389     1.9078   339.5200     3.4994    -0.0814
 1063   21.240  11544.30     3.1063     0.0794     0.0002     0.2124     3.0955     2.4141   339.8400     2.7556    -0.0864
 1064   21.260  11545.40     2.4395     0.0730     0.0383     0.2126     2.4498     2.8208   340.1600     2.1096    -0.0893
 1065   21.280  11546.44     1.8900     0.0560     0.1812     0.2128     1.9464     2.7710   340.4800     1.6060    -0.0477
 1066   21.300  11547.43     1.6209     0.0341     0.2324     0.2130     1.7138     2.0256   340.8000     1.3730     0.0060
 1067   21.320  11548.54     1.4158     0.0280     0.3662     0.2132     1.5495     1.9362   341.1200     1.2084     0.0872
 1068   21.340  11549.64     1.3827     0.0218     0.4416     0.2134     1.5612     1.5778   341.4400     1.2198     0.1735
 1069   21.360  11550.68     1.4718     0.0261     0.4841     0.2136     1.6707     1.8140   341.7600     1.3290     0.1957
 1070   21.380  11551.73     1.7415     0.0329     0.4880     0.2138     1.9505     2.0213   342.0800     1.6084     0.1765
 1071   21.400  11552.79     2.0695     0.0344     0.4430     0.2140     2.2647     1.7271   342.4000     1.9223     0.1305
 1072   21.420  11553.84     2.1728     0.0387     0.4581     0.2142     2.3637     1.7900   342.7200     2.0209     0.1188
 1073   21.440  11554.89     2.1113     0.0422     0.4633     0.2144     2.2989     1.9710   343.0400     1.9559     0.1188
 1074   21.460  11555.94     2.0985     0.0421     0.4842     0.2146     2.2932     2.0429   343.3600     1.9499     0.1278
 1075   21.480  11557.00     2.1510     0.0410     0.4890     0.2148     2.3649     1.9083   343.6800     2.0213     0.1457
 1076   21.500  11558.05     2.0831     0.0356     0.4838     0.2150     2.2853     1.6644   344.0000     1.9413     0.1373
 1077   21.520  11559.13     1.8287     0.0325     0.5183     0.2152     2.0416     1.6963   344.3200     1.6973     0.1720
 1078   21.540  11560.22     1.5644     0.0310     0.6164     0.2154     1.8112     1.8626   344.6400     1.4665     0.2539
 1079   21.560  11561.22     1.3877     0.0306     0.7362     0.2156     1.6816     2.1333   344.9600     1.3366     0.3622
 1080   21.580  11562.28     1.3650     0.0310     0.8017     0.2158     1.6921     2.2747   345.2800     1.3468     0.4181
 1081   21.600  11563.31     1.3980     0.0343     0.8338     0.2160     1.7393     2.4694   345.6000     1.3937     0.4280
 1082   21.620  11564.39     1.4256     0.0382     0.8727     0.2162     1.7900     2.6987   345.9200     1.4441     0.4512
 1083   21.640  11565.43     1.4833     0.0375     0.8822     0.2164     1.8539     2.5478   346.2400     1.5077     0.4418
 1084   21.660  11566.51     1.5075     0.0417     0.8940     0.2166     1.8797     2.7816   346.5600     1.5331     0.4368
 1085   21.680  11567.55     1.5105     0.0461     0.8728     0.2168     1.8809     3.0450   346.8800     1.5341     0.4337
 1086   21.700  11568.60     1.5405     0.0470     0.8763     0.2170     1.9033     3.0419   347.2000     1.5561     0.4156
 1087   21.720  11569.67     1.4342     0.0455     0.9315     0.2172     1.8212     3.1285   347.5200     1.4737     0.4780
 1088   21.740  11570.67     1.4087     0.0441     0.9553     0.2174     1.8032     3.1334   347.8400     1.4554     0.4960
 1089   21.760  11578.87     1.3833     0.0434     0.9853     0.2176     1.7933     3.0926   348.1600     1.4451     0.5255
 1090   21.780  11594.15     1.3420     0.0434     1.0113     0.2178     1.7629     3.0927   348.4800     1.4144     0.5553
 1091   21.800  11605.04     1.3091     0.0424     1.0311     0.2180     1.7404     3.2306   348.8000     1.3916     0.5813
 1092   21.820  11606.09     1.3010     0.0409     1.0415     0.2182     1.7371     3.1372   349.1200     1.3879     0.5908
 1093   21.840  11607.13     1.2873     0.0401     1.0613     0.2184     1.7282     3.1192   349.4400     1.3788     0.6030
 1094   21.860  11608.21     1.2764     0.0390     1.0718     0.2186     1.7285     3.0500   349.7600     1.3787     0.6221
 1095   21.880  11609.29     1.2840     0.0386     1.0802     0.2188     1.7360     3.0120   350.0800     1.3859     0.6186
 1096   21.900  11610.33     1.2673     0.0377     1.0866     0.2190     1.7240     2.9639   350.4000     1.3736     0.6323
 1097   21.920  11611.34     1.2654     0.0375     1.0841     0.2192     1.7210     2.9693   350.7200     1.3703     0.6316
 1098   21.940  11612.40     1.2664     0.0374     1.0872     0.2194     1.7232     2.9554   351.0400     1.3722     0.6327
 1099   21.960  11613.46     1.2680     0.0371     1.0851     0.2196     1.7248     2.9254   351.3600     1.3734     0.6320
 1100   21.980  11614.54     1.2635     0.0369     1.0903     0.2198     1.7216     2.9033   351.6800     1.3699     0.6357
 1101   22.000  11615.59     1.2578     0.0372     1.0808     0.2200     1.7127     2.9600   352.0000     1.3607     0.6343
 1102   22.020  11616.64     1.2654     0.0371     1.0660     0.2202     1.7154     2.9359   352.3200     1.3631     0.6245
 1103   22.040  11617.66     1.2561     0.0378     1.0671     0.2204     1.7043     2.9910   352.6400     1.3516     0.6265
 1104   22.060  11618.68     1.2401     0.0387     1.0727     0.2206     1.6874     3.1177   352.9600     1.3344     0.6327
 1105   22.080  11619.76     1.2382     0.0386     1.0932     0.2208     1.6957     3.1216   353.2800     1.3424     0.6470
 1106   22.100  11620.84     1.2222     0.0381     1.1072     0.2210     1.6853     3.0947   353.6000     1.3317     0.6620
 1107   22.120  11621.87     1.2105     0.0384     1.1106     0.2212     1.6745     3.1728   353.9200     1.3206     0.6690
 1108   22.140  11622.92     1.2129     0.0382     1.1271     0.2214     1.6836     3.1460   354.2400     1.3293     0.6764
 1109   22.160  11623.94     1.2068     0.0385     1.1444     0.2216     1.6848     3.1855   354.5600     1.3302     0.6890
 1110   22.180  11625.01     1.1940     0.0383     1.1428     0.2218     1.6760     3.1994   354.8800     1.3211     0.7008
 1111   22.200  11626.05     1.1890     0.0369     1.1425     0.2220     1.6678     3.0923   355.2000     1.3126     0.6993
 1112   22.220  11627.14     1.1847     0.0370     1.1444     0.2222     1.6643     3.1274   355.5200     1.3088     0.7028
 1113   22.240  11628.15     1.1935     0.0374     1.1406     0.2224     1.6722     3.1359   355.8400     1.3163     0.6969
 1114   22.260  11629.25     1.1902     0.0370     1.1551     0.2226     1.6737     3.1013   356.1600     1.3176     0.7048
 1115   22.280  11630.31     1.1963     0.0375     1.1628     0.2228     1.6823     3.1486   356.4800     1.3258     0.7047
 1116   22.300  11631.33     1.2290     0.0377     1.1491     0.2230     1.7132     3.0996   356.8000     1.3564     0.6856
 1117   22.320  11632.39     1.2623     0.0382     1.1523     0.2232     1.7472     3.0460   357.1200     1.3900     0.6700
 1118   22.340  11633.42     1.2939     0.0393     1.1524     0.2234     1.7777     3.0699   357.4400     1.4203     0.6538
 1119   22.360  11634.52     1.3361     0.0395     1.1497     0.2236     1.8190     2.9707   357.7600     1.4613     0.6338
 1120   22.380  11635.55     1.3388     0.0404     1.1491     0.2238     1.8219     3.0119   358.0800     1.4638     0.6328
 1121   22.400  11636.59     1.3416     0.0412     1.1248     0.2240     1.8184     3.0775   358.4000     1.4600     0.6241
 1122   22.420  11637.68     1.3427     0.0411     1.1143     0.2242     1.8113     3.0495   358.7200     1.4525     0.6138
 1123   22.440  11638.70     1.3238     0.0410     1.1086     0.2244     1.7905     3.0863   359.0400     1.4315     0.6195
 1124   22.460  11639.77     1.3116     0.0403     1.1069     0.2246     1.7776     3.0617   359.3600     1.4183     0.6239
 1125   22.480  11640.85     1.2849     0.0387     1.1070     0.2248     1.7488     2.9897   359.6800     1.3892     0.6334
 1126   22.500  11641.93     1.2514     0.0378     1.1131     0.2250     1.7185     3.0031   360.0000     1.3585     0.6530
 1127   22.520  11643.00     1.2398     0.0372     1.1250     0.2252     1.7098     2.9787   360.3200     1.3495     0.6624
 1128   22.540  11644.05     1.2257     0.0357     1.1387     0.2254     1.7020     2.9069   360.6400     1.3413     0.6774
 1129   22.560  11645.07     1.2152     0.0354     1.1440     0.2256     1.6958     2.9202   360.9600     1.3348     0.6882
 1130   22.580  11646.11     1.2299     0.0351     1.1419     0.2258     1.7092     2.8586   361.2800     1.3479     0.6792
 1131   22.600  11647.17     1.2142     0.0351     1.1473     0.2260     1.6954     2.8762   361.6000     1.3338     0.6895
 1132   22.620  11648.19     1.2093     0.0347     1.1523     0.2262     1.6932     2.8737   361.9200     1.3313     0.6955
 1133   22.640  11649.33     1.2151     0.0347     1.1388     0.2264     1.6959     2.8645   362.2400     1.3337     0.6886
 1134   22.660  11650.35     1.2282     0.0347     1.1271     0.2266     1.7037     2.8341   362.5600     1.3412     0.6753
 1135   22.680  11651.39     1.2422     0.0348     1.1165     0.2268     1.7121     2.8088   362.8800     1.3492     0.6612
 1136   22.700  11652.42     1.2470     0.0359     1.1193     0.2270     1.7164     2.8804   363.2000     1.3532     0.6582
 1137   22.720  11653.50     1.2577     0.0361     1.1183     0.2272     1.7267     2.8862   363.5200     1.3632     0.6525
 1138   22.740  11654.54     1.2668     0.0362     1.1281     0.2274     1.7397     2.8582   363.8400     1.3759     0.6530
 1139   22.760  11655.58     1.2598     0.0358     1.1315     0.2276     1.7338     2.8265   364.1600     1.3696     0.6579
 1140   22.780  11656.64     1.2624     0.0361     1.1290     0.2278     1.7379     2.8679   364.4800     1.3734     0.6585
 1141   22.800  11657.71     1.2672     0.0362     1.1324     0.2280     1.7422     2.8555   364.8000     1.3774     0.6555
 1142   22.820  11658.75     1.2639     0.0364     1.1315     0.2282     1.7400     2.8743   365.1200     1.3748     0.6585
 1143   22.840  11659.86     1.2541     0.0364     1.1304     0.2284     1.7290     2.8949   365.4400     1.3635     0.6616
 1144   22.860  11660.93     1.2507     0.0363     1.1244     0.2286     1.7234     2.8966   365.7600     1.3576     0.6606
 1145   22.880  11661.96     1.2437     0.0358     1.1323     0.2288     1.7178     2.8703   366.0800     1.3517     0.6659
 1146   22.900  11663.00     1.2572     0.0352     1.1455     0.2290     1.7360     2.8083   366.4000     1.3696     0.6651
 1147   22.920  11664.10     1.2720     0.0349     1.1503     0.2292     1.7552     2.7510   366.7200     1.3884     0.6635
 1148   22.940  11665.13     1.2782     0.0345     1.1556     0.2294     1.7622     2.7018   367.0400     1.3952     0.6616
 1149   22.960  11666.21     1.2622     0.0347     1.1507     0.2296     1.7491     2.7338   367.3600     1.3817     0.6727
 1150   22.980  11667.29     1.2552     0.0347     1.1332     0.2298     1.7325     2.7633   367.6800     1.3648     0.6642
 1151   23.000  11668.34     1.2520     0.0349     1.1207     0.2300     1.7250     2.7895   368.0000     1.3570     0.6605
 1152   23.020  11669.40     1.2588     0.0354     1.1144     0.2302     1.7273     2.8138   368.3200     1.3590     0.6515
 1153   23.040  11670.46     1.2636     0.0352     1.0944     0.2304     1.7260     2.7901   368.6400     1.3574     0.6414
 1154   23.060  11671.51     1.2651     0.0346     1.0833     0.2306     1.7221     2.7366   368.9600     1.3531     0.6336
 1155   23.080  11672.57     1.2745     0.0326     1.0762     0.2308     1.7268     2.5695   369.2800     1.3575     0.6232
 1156   23.100  11673.62     1.2832     0.0316     1.0778     0.2310     1.7350     2.4646   369.6000     1.3654     0.6185
 1157   23.120  11674.68     1.2821     0.0312     1.0850     0.2312     1.7382     2.4343   369.9200     1.3683     0.6247
 1158   23.140  11675.73     1.3132     0.0315     1.0728     0.2314     1.7638     2.4267   370.2400     1.3936     0.6039
 1159   23.160  11676.76     1.3389     0.0312     1.0812     0.2316     1.7914     2.3354   370.5600     1.4208     0.5953
 1160   23.180  11677.84     1.3438     0.0312     1.0538     0.2318     1.7893     2.3209   370.8800     1.4185     0.5845
 1161   23.200  11678.90     1.3222     0.0323     1.0514     0.2320     1.7660     2.4313   371.2000     1.3948     0.5912
 1162   23.220  11679.93     1.3273     0.0351     1.0512     0.2322     1.7636     2.6463   371.5200     1.3921     0.5794
 1163   23.240  11680.98     1.3295     0.0316     1.0966     0.2324     1.7840     2.3883   371.8400     1.4121     0.6017
 1164   23.260  11682.04     1.3633     0.0290     1.1195     0.2326     1.8323     2.1531   372.1600     1.4601     0.6055
 1165   23.280  11683.13     1.4830     0.0361     1.1207     0.2328     1.9516     2.4905   372.4800     1.5791     0.5592
 1166   23.300  11684.15     1.6358     0.0459     1.1469     0.2330     2.1139     2.9037   372.8000     1.7411     0.5202
 1167   23.320  11685.25     1.9250     0.0501     1.1544     0.2332     2.4136     2.7004   373.1200     2.0405     0.4560
 1168   23.340  11686.31     2.2905     0.0495     0.9594     0.2334     2.7260     2.2151   373.4400     2.3525     0.3419
 1169   23.360  11687.36     2.5221     0.0439     0.7263     0.2336     2.8534     1.7554   373.7600     2.4797     0.2240
 1170   23.380  11688.42     2.5748     0.0418     0.7080     0.2338     2.8588     1.6196   374.0800     2.4847     0.1781
 1171   23.400  11689.47     2.7253     0.0411     0.8249     0.2340     3.0475     1.5343   374.4000     2.6731     0.1991
 1172   23.420  11690.56     3.7863     0.0617     0.7747     0.2342     4.1543     1.6943   374.7200     3.7796     0.1714
 1173   23.440  11691.65     5.6739     0.0895     0.5408     0.2344     5.9544     1.6640   375.0400     5.5794     0.0777
 1174   23.460  11692.77     7.2324     0.0915     0.2409     0.2346     7.3848     1.2821   375.3600     7.0094     0.0183
 1175   23.480  11693.88     7.1809     0.0883     0.1226     0.2348     7.2357     1.2158   375.6800     6.8600    -0.0152
 1176   23.500  11694.94     6.7177     0.0950     0.1926     0.2350     6.7813     1.4019   376.0000     6.4053    -0.0130
 1177   23.520  11696.02     6.8540     0.0997     0.3058     0.2352     6.9644     1.4664   376.3200     6.5881     0.0042
 1178   23.540  11697.14     7.8023     0.1041     0.2916     0.2354     7.9153     1.3815   376.6400     7.5387     0.0046
 1179   23.560  11698.20     8.2113     0.1159     0.1247     0.2356     8.3208     1.4127   376.9600     7.9438     0.0032
 1180   23.580  11699.31     7.9605     0.1066     0.0149     0.2358     7.9728     1.3244   377.2800     7.5955    -0.0272
 1181   23.600  11700.36     7.2878     0.1084     0.0076     0.2360     7.2878     1.4772   377.6000     6.9102    -0.0342
 1182   23.620  11701.47     6.9469     0.1171     0.0987     0.2362     6.9764     1.6331   377.9200     6.5985    -0.0251
 1183   23.640  11702.55     7.0740     0.1260     0.1551     0.2364     7.1297     1.7297   378.2400     6.7515    -0.0154
 1184   23.660  11703.66     7.5000     0.1348     0.1602     0.2366     7.5887     1.8263   378.5600     7.2101    -0.0035
 1185   23.680  11704.75     7.5129     0.1331     0.0515     0.2368     7.5356     1.7684   378.8800     7.1568    -0.0255
 1186   23.700  11705.81     6.7009     0.1207     0.0267     0.2370     6.7084     1.7892   379.2000     6.3292    -0.0346
 1187   23.720  11709.18     6.3379     0.1134     0.0554     0.2372     6.3588     1.8311   379.5200     5.9793    -0.0316
 1188   23.740  11720.15     6.9703     0.1234     0.0714     0.2374     6.9980     1.9923   379.8400     6.6181    -0.0267
 1189   23.760  11731.12     7.6027     0.1294     0.0873     0.2376     7.6371     2.0902   380.1600     7.2569    -0.0219
 1190   23.780  11736.29     7.5690     0.1137     0.0069     0.2378     7.5741     1.4694   380.4800     7.1937    -0.0314
 1191   23.800  11737.36     6.3654     0.0972    -0.0086     0.2380     6.3616     1.4517   380.8000     5.9808    -0.0414
 1192   23.820  11738.40     5.0947     0.1120    -0.0021     0.2382     5.0896     2.0947   381.1200     4.7085    -0.0533
 1193   23.840  11739.42     4.2995     0.1129     0.0720     0.2384     4.3165     2.6272   381.4400     3.9351    -0.0503
 1194   23.860  11740.51     4.3253     0.1003     0.2002     0.2386     4.3929     2.3281   381.7600     4.0112    -0.0195
 1195   23.880  11741.59     4.5242     0.1063     0.2760     0.2388     4.6456     2.3488   382.0800     4.2635     0.0118
 1196   23.900  11742.69     4.0745     0.1068     0.2959     0.2390     4.1618     2.5829   382.4000     3.7794    -0.0082
 1197   23.920  11743.75     4.2416     0.0942     0.4077     0.2392     4.3974     2.2393   382.7200     4.0147     0.0327
 1198   23.940  11744.87     5.1160     0.0897     0.6033     0.2394     5.3300     1.7774   383.0400     4.9469     0.0539
 1199   23.960  11745.96     5.4407     0.0916     0.2973     0.2396     5.5718     1.7196   383.3600     5.1885     0.0142
 1200   23.980  11747.07     7.0223     0.0922     0.3787     0.2398     7.1682     1.3480   383.6800     6.7845     0.0157
 1201   24.000  11748.13     8.7056     0.0897     0.2865     0.2400     8.8747     1.0433   384.0000     8.4907     0.0192
 1202   24.020  11749.23     9.8132     0.1006     0.0246     0.2402     9.8416     1.0358   384.3200     9.4573    -0.0182
 1203   24.040  11750.35     9.5342     0.0970    -0.0034     0.2404     9.5348     1.0018   384.6400     9.1502    -0.0261
 1204   24.060  11751.45     8.5887     0.1089     0.0027     0.2406     8.5885     1.2426   384.9600     8.2035    -0.0294
 1205   24.080  11752.53     7.9386     0.1269     0.0398     0.2408     7.9487     1.5819   385.2800     7.5635    -0.0286
 1206   24.100  11753.64     7.4378     0.1173     0.1066     0.2410     7.4780     1.5528   385.6000     7.0924    -0.0205
 1207   24.120  11754.65     6.6838     0.1244     0.0483     0.2412     6.7130     1.8383   385.9200     6.3271    -0.0272
 1208   24.140  11755.69     5.4056     0.1131    -0.0158     0.2414     5.3917     1.9972   386.2400     5.0055    -0.0548
 1209   24.160  11756.79     4.8592     0.0788     0.0842     0.2416     4.8706     1.6116   386.5600     4.4840    -0.0479
 1210   24.180  11757.94     5.2809     0.0867     0.0983     0.2418     5.3137     1.7331   386.8800     4.9268    -0.0335
 1211   24.200  11758.99     6.3225     0.0978     0.0311     0.2420     6.3618     1.5757   387.2000     5.9746    -0.0247
 1212   24.220  11760.11     7.0170     0.1168    -0.0518     0.2422     6.9907     1.7028   387.5200     6.6032    -0.0462
 1213   24.240  11761.11     7.2447     0.1153    -0.0260     0.2424     7.2391     1.5931   387.8400     6.8513    -0.0373
 1214   24.260  11762.19     6.6030     0.1162    -0.0718     0.2426     6.5764     1.7348   388.1600     6.1882    -0.0495
 1215   24.280  11763.27     5.3082     0.0987    -0.0491     0.2428     5.2834     1.8167   388.4800     4.8949    -0.0617
 1216   24.300  11764.39     4.5792     0.0995     0.0102     0.2430     4.5736     2.1438   388.8000     4.1848    -0.0612
 1217   24.320  11765.45     4.1618     0.0931     0.1352     0.2432     4.1933     2.2249   389.1200     3.8042    -0.0441
 1218   24.340  11766.57     4.6645     0.0811     0.3817     0.2434     4.7915     1.8184   389.4400     4.4021     0.0126
 1219   24.360  11767.59     7.3463     0.0713     0.4223     0.2436     7.5394     1.0897   389.7600     7.1496     0.0303
 1220   24.380  11768.70     9.9954     0.0698     0.1332     0.2438    10.0610     0.7175   390.0800     9.6709    -0.0091
 1221   24.400  11769.83    11.6451     0.0845     0.0611     0.2440    11.6785     0.7306   390.4000    11.2881    -0.0146
 1222   24.420  11770.94    11.7739     0.0969    -0.0035     0.2442    11.7824     0.8217   390.7200    11.3917    -0.0197
 1223   24.440  11772.05    10.8991     0.1023    -0.0118     0.2444    10.8953     0.9333   391.0400    10.5043    -0.0241
 1224   24.460  11773.15    10.1287     0.1182    -0.0048     0.2446    10.1238     1.1616   391.3600     9.7324    -0.0263
 1225   24.480  11774.24     9.4497     0.1256     0.0234     0.2448     9.4552     1.3237   391.6800     9.0635    -0.0256
 1226   24.500  11775.33     8.7245     0.1307     0.1033     0.2450     8.7494     1.4949   392.0000     8.3574    -0.0222
 1227   24.520  11776.45     8.6118     0.1349     0.1086     0.2452     8.6664     1.5728   392.3200     8.2740    -0.0139
 1228   24.540  11777.54     8.6930     0.1222     0.1213     0.2454     8.7367     1.4061   392.6400     8.3441    -0.0169
 1229   24.560  11778.64     8.8401     0.1005     0.1524     0.2456     8.9018     1.1417   392.9600     8.5088    -0.0116
 1230   24.580  11779.75     9.4926     0.0898     0.0438     0.2458     9.5350     0.9520   393.2800     9.1417    -0.0158
 1231   24.600  11780.81    10.0044     0.0806    -0.1203     0.2460     9.9819     0.8098   393.6000     9.5883    -0.0312
 1232   24.620  11781.86    10.4464     0.0598    -0.1240     0.2462    10.3947     0.5731   393.9200    10.0008    -0.0369
 1233   24.640  11782.94    10.2990     0.0660    -0.1195     0.2464    10.2488     0.6391   394.2400     9.8546    -0.0371
 1234   24.660  11784.12     9.8097     0.0866    -0.1289     0.2466     9.7582     0.8757   394.5600     9.3636    -0.0394
 1235   24.680  11785.18     9.2690     0.0938    -0.1287     0.2468     9.2153     0.9847   394.8800     8.8204    -0.0425
 1236   24.700  11786.29     8.5488     0.1001    -0.1185     0.2470     8.4993     1.1238   395.2000     8.1041    -0.0450
 1237   24.720  11787.35     7.7980     0.1013    -0.1053     0.2472     7.7508     1.2518   395.5200     7.3553    -0.0489
 1238   24.740  11788.40     7.8917     0.0994    -0.0543     0.2474     7.8597     1.2609   395.8400     7.4639    -0.0435
 1239   24.760  11789.51    10.1985     0.0950     0.0731     0.2476    10.2097     0.9437   396.1600     9.8136    -0.0227
 1240   24.780  11790.73    12.2825     0.0963     0.0338     0.2478    12.3145     0.8072   396.4800    11.9181    -0.0144
 1241   24.800  11791.85    14.0827     0.0984    -0.0130     0.2480    14.0825     0.7159   396.8000    13.6857    -0.0181
 1242   24.820  11792.92    15.6002     0.0900    -0.0660     0.2482    15.5831     0.5936   397.1200    15.1860    -0.0190
 1243   24.840  11793.98    17.7003     0.0886    -0.0704     0.2484    17.6670     0.5226   397.4400    17.2696    -0.0190
 1244   24.860  11795.01    20.6659     0.0945    -0.0529     0.2486    20.6416     0.4808   397.7600    20.2438    -0.0152
 1245   24.880  11796.11    24.1383     0.1063    -0.0347     0.2488    24.1229     0.4619   398.0800    23.7249    -0.0121
 1246   24.900  11797.22    26.9655     0.1202    -0.0130     0.2490    26.9531     0.4599   398.4000    26.5547    -0.0105
 1247   24.920  11798.25    29.0668     0.1252    -0.0268     0.2492    29.0652     0.4411   398.7200    28.6665    -0.0088
 1248   24.940  11799.30    31.1806     0.1275    -0.0218     0.2494    31.1704     0.4193   399.0400    30.7714    -0.0089
 1249   24.960  11800.33    32.4563     0.1414    -0.0019     0.2496    32.4520     0.4399   399.3600    32.0527    -0.0081
 1250   24.980  11801.36    32.3254     0.1559     0.0095     0.2498    32.3291     0.4800   399.6800    31.9295    -0.0075
 1251   25.000  11802.38    31.9670     0.1678     0.0426     0.2500    31.9791     0.5236   400.0000    31.5791    -0.0070
 1252   25.020  11803.49    31.5538     0.1731     0.0356     0.2502    31.5698     0.5461   400.3200    31.1695    -0.0068
 1253   25.040  11804.52    31.1062     0.1708     0.0478     0.2504    31.1221     0.5466   400.6400    30.7215    -0.0069
 1254   25.060  11805.53    30.7758     0.1719     0.0978     0.2506    30.8113     0.5564   400.9600    30.4104    -0.0055
 1255   25.080  11806.60    30.8360     0.1837     0.1229     0.2508    30.8827     0.5983   401.2800    30.4814    -0.0046
 1256   25.100  11807.67    31.5560     0.1899     0.1432     0.2510    31.6136     0.6088   401.6000    31.2120    -0.0037
 1257   25.120  11808.72    32.7383     0.1982     0.1561     0.2512    32.8020     0.6071   401.9200    32.4001    -0.0031
 1258   25.140  11809.72    33.7368     0.2073     0.1990     0.2514    33.8132     0.6211   402.2400    33.4110    -0.0021
 1259   25.160  11810.77    33.5231     0.2184     0.1751     0.2516    33.6034     0.6494   402.5600    33.2009    -0.0018
 1260   25.180  11811.76    32.1063     0.2158     0.1498     0.2518    32.1708     0.6573   402.8800    31.7680    -0.0031
 1261   25.200  11812.80    29.5519     0.2029     0.1277     0.2520    29.6088     0.6654   403.2000    29.2056    -0.0040
 1262   25.220  11813.80    27.2564     0.1980     0.1302     0.2522    27.3099     0.7040   403.5200    26.9064    -0.0046
 1263   25.240  11814.82    25.9139     0.1932     0.1663     0.2524    25.9784     0.7350   403.8400    25.5746    -0.0039
 1264   25.260  11815.85    25.7954     0.1775     0.2068     0.2526    25.8768     0.6900   404.1600    25.4726    -0.0023
 1265   25.280  11816.88    26.9889     0.1578     0.2034     0.2528    27.0741     0.5974   404.4800    26.6696    -0.0019
 1266   25.300  11818.01    29.1017     0.1392     0.1775     0.2530    29.1841     0.4946   404.8000    28.7793    -0.0020
 1267   25.320  11819.00    30.8757     0.1298     0.0505     0.2532    30.9198     0.4301   405.1200    30.5147    -0.0048
 1268   25.340  11820.01    31.5443     0.1298    -0.0654     0.2534    31.5285     0.4123   405.4400    31.1231    -0.0093
 1269   25.360  11821.09    30.6761     0.1337    -0.0350     0.2536    30.6500     0.4291   405.7600    30.2442    -0.0104
 1270   25.380  11822.15    28.9491     0.1258    -0.0268     0.2538    28.9410     0.4235   406.0800    28.5349    -0.0096
 1271   25.400  11823.16    26.7199     0.1421    -0.0701     0.2540    26.6992     0.5153   406.4000    26.2928    -0.0115
 1272   25.420  11824.19    24.9402     0.1575    -0.0975     0.2542    24.9021     0.6163   406.7200    24.4954    -0.0141
 1273   25.440  11825.25    24.2468     0.1603    -0.0998     0.2544    24.2035     0.6554   407.0400    23.7964    -0.0150
 1274   25.460  11826.30    24.7194     0.1613    -0.0783     0.2546    24.6818     0.6619   407.3600    24.2744    -0.0142
 1275   25.480  11827.30    26.0018     0.1526    -0.0197     0.2548    25.9839     0.5974   407.6800    25.5762    -0.0116
 1276   25.500  11828.38    26.8893     0.1394     0.0556     0.2550    26.9028     0.5234   408.0000    26.4948    -0.0084
 1277   25.520  11829.37    26.6154     0.1319     0.0785     0.2552    26.6425     0.4909   408.3200    26.2342    -0.0073
 1278   25.540  11830.38    25.4679     0.1245     0.0824     0.2554    25.5001     0.4784   408.6400    25.0915    -0.0071
 1279   25.560  11831.34    24.2208     0.1255     0.0644     0.2556    24.2483     0.5098   408.9600    23.8394    -0.0080
 1280   25.580  11832.45    23.0454     0.1337     0.0445     0.2558    23.0701     0.5588   409.2800    22.6608    -0.0087
 1281   25.600  11833.45    22.3423     0.1410     0.0196     0.2560    22.3523     0.6012   409.6000    21.9427    -0.0106
 1282   25.620  11834.49    22.7054     0.1483     0.0343     0.2562    22.7169     0.6436   409.9200    22.3069    -0.0103
 1283   25.640  11835.48    24.2252     0.1456     0.0890     0.2564    24.2512     0.6142   410.2400    23.8410    -0.0082
 1284   25.660  11836.62    26.7085     0.1232     0.1684     0.2566    26.7706     0.4730   410.5600    26.3601    -0.0041
 1285   25.680  11841.96    28.7392     0.1161     0.1504     0.2568    28.8076     0.4112   410.8800    28.3967    -0.0033
 1286   25.700  11852.91    29.9203     0.1191     0.1144     0.2570    29.9736     0.4218   411.2000    29.5624    -0.0043
 1287   25.720  11863.87    31.1015     0.1164     0.0783     0.2572    31.1396     0.4125   411.5200    30.7281    -0.0053
 1288   25.740  11872.89    32.1853     0.1175     0.0419     0.2574    32.2082     0.3930   411.8400    31.7964    -0.0064
 1289   25.760  11873.90    32.4099     0.1457    -0.0540     0.2576    32.3986     0.4488   412.1600    31.9864    -0.0089
 1290   25.780  11874.95    31.8434     0.1669    -0.0752     0.2578    31.8128     0.5200   412.4800    31.4003    -0.0105
 1291   25.800  11876.01    31.3257     0.1729    -0.0787     0.2580    31.2931     0.5490   412.8000    30.8803    -0.0109
 1292   25.820  11877.03    31.3668     0.1733    -0.0755     0.2582    31.3333     0.5537   413.1200    30.9201    -0.0109
 1293   25.840  11878.03    31.3057     0.1765    -0.0434     0.2584    31.2817     0.5623   413.4400    30.8683    -0.0102
 1294   25.860  11879.09    30.7790     0.1823     0.0246     0.2586    30.7783     0.5892   413.7600    30.3645    -0.0086
 1295   25.880  11880.15    30.3100     0.1888     0.0817     0.2588    30.3379     0.6210   414.0800    29.9238    -0.0064
 1296   25.900  11881.20    29.9689     0.1961     0.1190     0.2590    30.0165     0.6525   414.4000    29.6021    -0.0049
 1297   25.920  11882.21    30.0359     0.2005     0.1471     0.2592    30.0982     0.6680   414.7200    29.6835    -0.0037
 1298   25.940  11883.32    30.9433     0.2153     0.1805     0.2594    31.0119     0.6990   415.0400    30.5968    -0.0031
 1299   25.960  11884.42    32.6610     0.2364     0.2077     0.2596    32.7431     0.7285   415.3600    32.3277    -0.0020
 1300   25.980  11885.48    34.6869     0.2591     0.2319     0.2598    34.7813     0.7506   415.6800    34.3656    -0.0010
 1301   26.000  11886.54    36.1169     0.2834     0.1691     0.2600    36.2065     0.7865   416.0000    35.7905    -0.0013
 1302   26.020  11887.65    37.6518     0.3000     0.0956     0.2602    37.6929     0.7983   416.3200    37.2766    -0.0043
 1303   26.040  11888.80    38.3544     0.3070     0.1103     0.2604    38.3986     0.8012   416.6400    37.9819    -0.0041
 1304   26.060  11889.85    38.6849     0.3362     0.1283     0.2606    38.7340     0.8708   416.9600    38.3170    -0.0037
 1305   26.080  11890.95    39.4160     0.3598     0.1413     0.2608    39.4760     0.9163   417.2800    39.0587    -0.0030
 1306   26.100  11892.06    40.0127     0.3706     0.1821     0.2610    40.0893     0.9326   417.6000    39.6717    -0.0020
 1307   26.120  11893.16    40.3849     0.3818     0.1807     0.2612    40.4564     0.9477   417.9200    40.0385    -0.0023
 1308   26.140  11894.22    40.1530     0.3869     0.2201     0.2614    40.2342     0.9606   418.2400    39.8159    -0.0017
 1309   26.160  11895.30    39.7804     0.3911     0.2185     0.2616    39.8710     0.9814   418.5600    39.4524    -0.0012
 1310   26.180  11896.48    39.4197     0.3864     0.2258     0.2618    39.5163     0.9817   418.8800    39.0974    -0.0008
 1311   26.200  11897.64    39.5574     0.3793     0.2309     0.2620    39.6499     0.9588   419.2000    39.2307    -0.0011
 1312   26.220  11898.76    39.5395     0.3695     0.2366     0.2622    39.6382     0.9343   419.5200    39.2186    -0.0007
 1313   26.240  11899.83    39.4591     0.3597     0.2411     0.2624    39.5584     0.9115   419.8400    39.1385    -0.0007
 1314   26.260  11900.98    39.4674     0.3457     0.2608     0.2626    39.5720     0.8762   420.1600    39.1519    -0.0003
 1315   26.280  11902.09    39.4658     0.3327     0.2384     0.2628    39.5701     0.8427   420.4800    39.1496    -0.0004
 1316   26.300  11903.23    39.6392     0.3199     0.2455     0.2630    39.7410     0.8082   420.8000    39.3201    -0.0005
 1317   26.320  11904.30    39.6500     0.3031     0.2569     0.2632    39.7594     0.7644   421.1200    39.3383    -0.0001
 1318   26.340  11905.39    39.7200     0.2914     0.2301     0.2634    39.8228     0.7334   421.4400    39.4014    -0.0005
 1319   26.360  11906.44    39.4928     0.2767     0.2455     0.2636    39.5902     0.6993   421.7600    39.1684    -0.0008
 1320   26.380  11907.50    38.8841     0.2657     0.2359     0.2638    38.9872     0.6820   422.0800    38.5651    -0.0005
 1321   26.400  11908.61    37.9690     0.2569     0.2294     0.2640    38.0643     0.6748   422.4000    37.6419    -0.0010
 1322   26.420  11909.71    37.0208     0.2467     0.2451     0.2642    37.1206     0.6627   422.7200    36.6979    -0.0007
 1323   26.440  11910.85    36.3767     0.2378     0.2557     0.2644    36.4848     0.6514   423.0400    36.0618    -0.0002
 1324   26.460  11911.88    35.6762     0.2253     0.2400     0.2646    35.7853     0.6298   423.3600    35.3619    -0.0001
 1325   26.480  11912.99    34.9087     0.2147     0.2463     0.2648    35.0146     0.6129   423.6800    34.5909    -0.0004
 1326   26.500  11914.06    34.2659     0.2027     0.2565     0.2650    34.3701     0.5891   424.0000    33.9461    -0.0005
 1327   26.520  11915.10    33.7794     0.1901     0.2427     0.2652    33.8859     0.5608   424.3200    33.4615    -0.0003
 1328   26.540  11916.18    33.4383     0.1822     0.2434     0.2654    33.5392     0.5444   424.6400    33.1146    -0.0008
 1329   26.560  11917.24    33.6517     0.1757     0.2594     0.2656    33.7550     0.5229   424.9600    33.3300    -0.0006
 1330   26.580  11918.35    34.3350     0.1797     0.2694     0.2658    34.4468     0.5251   425.2800    34.0215     0.0000
 1331   26.600  11919.35    34.8357     0.1911     0.2645     0.2660    34.9428     0.5490   425.6000    34.5172    -0.0003
 1332   26.620  11920.48    35.2994     0.1889     0.2621     0.2662    35.4076     0.5361   425.9200    34.9816    -0.0002
 1333   26.640  11921.58    36.3058     0.1727     0.2663     0.2664    36.4158     0.4765   426.2400    35.9896    -0.0001
 1334   26.660  11922.65    37.3453     0.1726     0.2731     0.2666    37.4625     0.4628   426.5600    37.0359     0.0003
 1335   26.680  11923.76    38.1690     0.1777     0.2605     0.2668    38.2776     0.4666   426.8800    37.8507    -0.0002
 1336   26.700  11924.82    39.5221     0.1820     0.2632     0.2670    39.6311     0.4630   427.2000    39.2039    -0.0002
 1337   26.720  11925.98    41.5945     0.1825     0.2607     0.2672    41.7048     0.4424   427.5200    41.2772    -0.0001
 1338   26.740  11927.10    42.6320     0.1866     0.2627     0.2674    42.7406     0.4385   427.8400    42.3128    -0.0002
 1339   26.760  11928.16    42.5238     0.1954     0.2755     0.2676    42.6352     0.4585   428.1600    42.2070    -0.0001
 1340   26.780  11929.22    41.5404     0.1919     0.2547     0.2678    41.6540     0.4585   428.4800    41.2255     0.0001
 1341   26.800  11930.28    39.9204     0.1785     0.2916     0.2680    40.0400     0.4424   428.8000    39.6112     0.0004
 1342   26.820  11931.33    38.1231     0.1634     0.2732     0.2682    38.2364     0.4226   429.1200    37.8073     0.0000
 1343   26.840  11932.37    36.5537     0.1536     0.2696     0.2684    36.6655     0.4161   429.4400    36.2360    -0.0001
 1344   26.860  11933.41    35.3846     0.1489     0.2381     0.2686    35.4904     0.4185   429.7600    35.0606    -0.0005
 1345   26.880  11934.50    34.9725     0.1450     0.2367     0.2688    35.0732     0.4150   430.0800    34.6431    -0.0008
 1346   26.900  11935.57    35.7486     0.1416     0.2347     0.2690    35.8451     0.3985   430.4000    35.4147    -0.0011
 1347   26.920  11936.64    36.5285     0.1402     0.2434     0.2692    36.6312     0.3849   430.7200    36.2005    -0.0007
 1348   26.940  11937.69    36.2551     0.1426     0.2413     0.2694    36.3567     0.3918   431.0400    35.9257    -0.0008
 1349   26.960  11938.80    35.2035     0.1421     0.2549     0.2696    35.3137     0.4011   431.3600    34.8824    -0.0002
 1350   26.980  11939.85    34.1708     0.1370     0.2701     0.2698    34.2776     0.3979   431.6800    33.8459    -0.0005
 1351   27.000  11940.91    33.1079     0.1325     0.2804     0.2700    33.2230     0.3977   432.0000    32.7910     0.0001
 1352   27.020  11941.96    32.3211     0.1269     0.2941     0.2702    32.4424     0.3916   432.3200    32.0101     0.0006
 1353   27.040  11943.02    32.1902     0.1236     0.2764     0.2704    32.3048     0.3841   432.6400    31.8722     0.0001
 1354   27.060  11944.11    32.4251     0.1218     0.2755     0.2706    32.5421     0.3760   432.9600    32.1091     0.0002
 1355   27.080  11945.16    33.0440     0.1245     0.2714     0.2708    33.1592     0.3781   433.2800    32.7259     0.0001
 1356   27.100  11946.27    34.7888     0.1281     0.2770     0.2710    34.9050     0.3718   433.6000    34.4714     0.0002
 1357   27.120  11947.34    36.7196     0.1355     0.2609     0.2712    36.8320     0.3728   433.9200    36.3981    -0.0001
 1358   27.140  11948.43    37.9659     0.1465     0.2761     0.2714    38.0773     0.3881   434.2400    37.6431    -0.0002
 1359   27.160  11949.49    38.2264     0.1466     0.2617     0.2716    38.3397     0.3831   434.5600    37.9052     0.0000
 1360   27.180  11950.58    37.4508     0.1490     0.2476     0.2718    37.5542     0.3938   434.8800    37.1193    -0.0007
 1361   27.200  11951.61    35.9773     0.1459     0.2564     0.2720    36.0779     0.4011   435.2000    35.6427    -0.0009
 1362   27.220  11952.69    34.3341     0.1407     0.2677     0.2722    34.4450     0.4046   435.5200    34.0095    -0.0002
 1363   27.240  11953.74    32.1057     0.1308     0.2550     0.2724    32.2228     0.4022   435.8400    31.7870     0.0002
 1364   27.260  11954.79    29.8716     0.1156     0.2654     0.2726    29.9865     0.3826   436.1600    29.5504     0.0000
 1365   27.280  11955.83    28.6815     0.0952     0.2828     0.2728    28.7974     0.3263   436.4800    28.3609     0.0001
 1366   27.300  11956.93    28.7870     0.0795     0.2742     0.2730    28.9008     0.2791   436.8000    28.4640    -0.0001
 1367   27.320  11958.00    30.6828     0.0734     0.2779     0.2732    30.8003     0.2464   437.1200    30.3632     0.0002
 1368   27.340  11959.11    34.2011     0.0721     0.2785     0.2734    34.3180     0.2200   437.4400    33.8806     0.0001
 1369   27.360  11960.17    38.3907     0.0947     0.2729     0.2736    38.5053     0.2584   437.7600    38.0675     0.0000
 1370   27.380  11961.32    42.5465     0.1103     0.2771     0.2738    42.6643     0.2693   438.0800    42.2262     0.0002
 1371   27.400  11962.50    46.3061     0.1178     0.2769     0.2740    46.4246     0.2619   438.4000    45.9862     0.0002
 1372   27.420  11963.62    48.6333     0.1243     0.2766     0.2742    48.7491     0.2602   438.7200    48.3103     0.0000
 1373   27.440  11964.77    49.3308                0.2841     0.2744    49.4521              439.0400    49.0131     0.0003
 1374   27.460  11965.82    49.2040                0.2606     0.2746    49.3195              439.3600    48.8801     0.0000
 1375   27.480  11966.90    48.5644                0.2957     0.2748    48.6843              439.6800    48.2446     0.0002
 1376   27.500  11968.07    49.1451                0.2654     0.2750    49.2516              440.0000    48.8116    -0.0004
 1377   27.520  11969.25    50.3810                0.2380     0.2752    50.4890              440.3200    50.0487    -0.0004
 1378   27.536  11970.19    51.6755                           0.2754    51.7868              440.5718    51.3462    -0.0002
 
 
