

 Program UNIPLOT                         version 05.36.02
 _______________
 (c) Fugro Netherlands Marine, Nootdorp, The Netherlands


 ASCII representation of data plotted on a graph.

 This ASCII file presents data interpolated to values per fixed depth interval.
 The data are corrected for the depth-offset differences between the various 
 transducers in the penetrometer.

 The records at the start of penetration may include no values or anomalous
 values where a depth offset implies incomplete penetration of a particular
 sensor into the ground.

 The records at the end of penetration may include no values for data channels
 where the transducer did not reach this depth.

 The reference level for test values is (1) the ground surface for onshore tests and (2) the seafloor for nearshore and offshore tests.

 UNICAS data file          : CPT-2023.000                            
 Output using command file : PlotASCII.cmd

 ASCII file created at : date          :21-Mar-2022
                         time          :08:56:28
 Project number                        :20024805
 Date of testing                       :19-Mar-2022
 Location                              :Hong Kong Offshore Wind Farm Project
 Test name                             :CPT-2023
 Penetrometer                          :F7.5CKE2HAW2/B/3342
 Serial no                             :1701-3342

 Table description:
 Column ID                             :Parameter name
 ___________________________________________________________________________________
 Rec                                   :Record ID, Record ID [-]
 Depth                                 :Depth, Depth [m]
 Time                                  :Time, Time [s]
 Cone                                  :Cone Resistance, Cone Resistance [MPa]
 Friction                              :Sleeve Friction, Sleeve Friction [MPa]
 Pore 2                                :Porewater Pressure, Porewater Pressure at Shoulder [MPa]
 HydroPress                            :Hydrostatic Pressure, Hydrostatic Pressure [MPa]
 qt                                    :Total Cone Resistance, Total Cone Resistance [MPa]
 Fric_ratio                            :Friction Ratio, Friction Ratio [%]
 SigmaVert                             :Vertical stress, Vertical stress [kPa] as specified in ground model
 Qnet                                  :Net Cone Resistance, Net Cone Resistance [MPa], unit weight as specified in ground model
 Bq                                    :Porewater Pressure Ratio, Porewater Pressure Ratio [-], unit weight as specified in ground model


 Data table:
  Rec    Depth      Time       Cone   Friction     Pore 2 HydroPress         qt Fric_ratio  SigmaVert       Qnet         Bq
   No        m         s        MPa        MPa        MPa        MPa        MPa          %        kPa        MPa          -
    1    0.000   4059.97     0.0000                           0.0000     0.0000                0.0000     0.0000           
    2    0.020   4060.92     0.0012                0.0003     0.0002     0.0012                0.3200     0.0009     0.0030
    3    0.040   4061.88     0.0024                0.0007     0.0004     0.0026                0.6400     0.0020     0.0921
    4    0.060   4062.83     0.0034                0.0012     0.0006     0.0038                0.9600     0.0029     0.1474
    5    0.080   4063.79     0.0033     0.0004     0.0015     0.0008     0.0039    10.9668     1.2800     0.0026     0.2063
    6    0.100   4064.70     0.0040     0.0004     0.0018     0.0010     0.0047    10.1877     1.6000     0.0031     0.2557
    7    0.120   4065.65     0.0038     0.0005     0.0016     0.0012     0.0045    13.9957     1.9200     0.0026     0.2170
    8    0.140   4066.62     0.0038     0.0005     0.0021     0.0014     0.0046    11.2289     2.2400     0.0024     0.2286
    9    0.160   4067.54     0.0037     0.0005     0.0026     0.0016     0.0047    13.8083     2.5600     0.0021     0.3091
   10    0.180   4068.51     0.0034     0.0004     0.0028     0.0018     0.0047    11.9896     2.8800     0.0018     0.6647
   11    0.200   4069.42     0.0039     0.0004     0.0028     0.0020     0.0050     9.4738     3.2000     0.0018     0.3885
   12    0.220   4070.38     0.0035     0.0005     0.0034     0.0022     0.0050    12.4490     3.5200     0.0015     0.9371
   13    0.240   4071.33     0.0046     0.0006     0.0040     0.0024     0.0062    13.9720     3.8400     0.0023     0.5932
   14    0.260   4072.31     0.0043     0.0006     0.0042     0.0026     0.0061    12.4389     4.1600     0.0019     0.8129
   15    0.280   4073.24     0.0053     0.0006     0.0040     0.0028     0.0070    11.1928     4.4800     0.0025     0.4893
   16    0.300   4074.21     0.0059     0.0007     0.0033     0.0030     0.0074    11.9729     4.8000     0.0026     0.2230
   17    0.320   4075.13     0.0065     0.0006     0.0035     0.0032     0.0080    10.0002     5.1200     0.0028     0.0991
   18    0.340   4076.06     0.0075     0.0008     0.0037     0.0034     0.0091    11.4839     5.4400     0.0036     0.0917
   19    0.360   4077.04     0.0089     0.0008     0.0048     0.0036     0.0107    10.3804     5.7600     0.0049     0.1488
   20    0.380   4077.99     0.0099     0.0009     0.0048     0.0038     0.0119    10.2674     6.0800     0.0058     0.1712
   21    0.400   4078.93     0.0113     0.0011     0.0045     0.0040     0.0134     9.5850     6.4000     0.0070     0.1304
   22    0.420   4079.85     0.0134     0.0011     0.0053     0.0042     0.0155     8.5771     6.7200     0.0088     0.0815
   23    0.440   4080.79     0.0140     0.0012     0.0050     0.0044     0.0163     8.2026     7.0400     0.0092     0.1002
   24    0.460   4081.75     0.0153     0.0013     0.0046     0.0046     0.0172     9.2923     7.3600     0.0099    -0.0049
   25    0.480   4082.69     0.0161     0.0015     0.0050     0.0048     0.0181     9.5800     7.6800     0.0104    -0.0061
   26    0.500   4083.64     0.0161     0.0016     0.0056     0.0050     0.0184     9.6517     8.0000     0.0104     0.0583
   27    0.520   4084.56     0.0172     0.0017     0.0049     0.0052     0.0193    10.4354     8.3200     0.0110    -0.0147
   28    0.540   4085.54     0.0179     0.0018     0.0054     0.0054     0.0201    10.2799     8.6400     0.0114    -0.0157
   29    0.560   4086.47     0.0166     0.0018     0.0062     0.0056     0.0190     9.9465     8.9600     0.0101     0.0291
   30    0.580   4087.38     0.0173     0.0018     0.0068     0.0058     0.0201    10.2285     9.2800     0.0108     0.0800
   31    0.600   4088.37     0.0167     0.0018     0.0074     0.0060     0.0197    10.7799     9.6000     0.0101     0.1192
   32    0.620   4089.29     0.0168     0.0019     0.0073     0.0062     0.0199    10.8779     9.9200     0.0100     0.1160
   33    0.640   4090.24     0.0161     0.0018     0.0076     0.0064     0.0192    10.6731    10.2400     0.0090     0.1125
   34    0.660   4091.18     0.0158     0.0019     0.0083     0.0066     0.0191    11.8240    10.5600     0.0086     0.1703
   35    0.680   4092.16     0.0150     0.0019     0.0086     0.0068     0.0186    12.5961    10.8800     0.0077     0.2208
   36    0.700   4093.08     0.0140     0.0017     0.0096     0.0070     0.0179    11.5975    11.2000     0.0067     0.3139
   37    0.720   4094.06     0.0153     0.0017     0.0110     0.0072     0.0197    11.3641    11.5200     0.0082     0.4095
   38    0.740   4094.98     0.0153     0.0016     0.0121     0.0074     0.0202    10.6197    11.8400     0.0083     0.5107
   39    0.760   4095.97     0.0154     0.0016     0.0131     0.0076     0.0207     9.9251    12.1600     0.0085     0.5929
   40    0.780   4096.89     0.0157     0.0016     0.0141     0.0078     0.0215    10.3790    12.4800     0.0090     0.6769
   41    0.800   4097.84     0.0171     0.0016     0.0143     0.0080     0.0230     9.9586    12.8000     0.0102     0.6026
   42    0.820   4098.81     0.0179     0.0015     0.0150     0.0082     0.0241     8.5213    13.1200     0.0110     0.5986
   43    0.840   4099.73     0.0183     0.0015     0.0150     0.0084     0.0246     8.4664    13.4400     0.0112     0.5949
   44    0.860   4100.69     0.0190     0.0015     0.0151     0.0086     0.0254     7.8692    13.7600     0.0116     0.5606
   45    0.880   4101.63     0.0205     0.0015     0.0155     0.0088     0.0270     7.5059    14.0800     0.0129     0.5136
   46    0.900   4102.59     0.0197     0.0015     0.0157     0.0090     0.0263     7.5811    14.4000     0.0119     0.5567
   47    0.920   4103.56     0.0206     0.0015     0.0163     0.0092     0.0273     7.1683    14.7200     0.0126     0.5464
   48    0.940   4104.47     0.0205     0.0016     0.0166     0.0094     0.0274     7.9090    15.0400     0.0124     0.5652
   49    0.960   4105.42     0.0213     0.0015     0.0172     0.0096     0.0284     7.3607    15.3600     0.0130     0.5683
   50    0.980   4106.38     0.0224     0.0016     0.0175     0.0098     0.0298     7.1150    15.6800     0.0141     0.5417
   51    1.000   4107.33     0.0226     0.0017     0.0177     0.0100     0.0300     7.4057    16.0000     0.0140     0.5461
   52    1.020   4108.29     0.0235     0.0018     0.0178     0.0102     0.0310     7.6903    16.3200     0.0147     0.5228
   53    1.040   4109.21     0.0247     0.0017     0.0178     0.0104     0.0321     6.9871    16.6400     0.0155     0.4742
   54    1.060   4110.17     0.0246     0.0018     0.0180     0.0106     0.0321     7.4988    16.9600     0.0152     0.4854
   55    1.080   4111.10     0.0253     0.0018     0.0176     0.0108     0.0327     7.3104    17.2800     0.0154     0.4468
   56    1.100   4112.06     0.0254     0.0017     0.0176     0.0110     0.0328     6.6988    17.6000     0.0152     0.4291
   57    1.120   4112.99     0.0249     0.0018     0.0182     0.0112     0.0324     7.1310    17.9200     0.0145     0.4648
   58    1.140   4113.94     0.0253     0.0018     0.0191     0.0114     0.0331     7.3553    18.2400     0.0149     0.4923
   59    1.160   4114.92     0.0259     0.0018     0.0199     0.0116     0.0342     6.8928    18.5600     0.0156     0.5125
   60    1.180   4115.88     0.0255     0.0016     0.0204     0.0118     0.0340     6.4907    18.8800     0.0151     0.5592
   61    1.200   4116.79     0.0265     0.0017     0.0209     0.0120     0.0352     6.5894    19.2000     0.0160     0.5449
   62    1.220   4117.80     0.0268     0.0016     0.0216     0.0122     0.0358     6.0555    19.5200     0.0163     0.5605
   63    1.240   4118.75     0.0265     0.0015     0.0225     0.0124     0.0358     5.5728    19.8400     0.0160     0.6160
   64    1.260   4119.70     0.0264     0.0016     0.0234     0.0126     0.0361     6.0415    20.1600     0.0159     0.6567
   65    1.280   4120.64     0.0281     0.0016     0.0237     0.0128     0.0380     5.6999    20.4800     0.0175     0.6208
   66    1.300   4121.60     0.0289     0.0017     0.0237     0.0130     0.0388     5.8453    20.8000     0.0180     0.5893
   67    1.320   4122.53     0.0304     0.0017     0.0238     0.0132     0.0404     5.6639    21.1200     0.0193     0.5438
   68    1.340   4123.48     0.0318     0.0019     0.0238     0.0134     0.0417     6.0993    21.4400     0.0203     0.5090
   69    1.360   4124.39     0.0325     0.0021     0.0239     0.0136     0.0425     6.5346    21.7600     0.0207     0.4935
   70    1.380   4125.36     0.0342     0.0021     0.0242     0.0138     0.0443     6.3483    22.0800     0.0222     0.4654
   71    1.400   4126.30     0.0341     0.0020     0.0247     0.0140     0.0444     6.0051    22.4000     0.0220     0.4772
   72    1.420   4127.27     0.0348     0.0020     0.0252     0.0142     0.0454     5.9184    22.7200     0.0227     0.4834
   73    1.440   4140.47     0.0373     0.0020     0.0247     0.0144     0.0478     5.6220    23.0400     0.0247     0.4309
   74    1.460   4156.25     0.0400     0.0019     0.0243     0.0146     0.0503     5.4831    23.3600     0.0269     0.3709
   75    1.480   4166.33     0.0416     0.0020     0.0255     0.0148     0.0521     4.6982    23.6800     0.0284     0.3555
   76    1.500   4167.31     0.0418     0.0019     0.0268     0.0150     0.0529     4.6495    24.0000     0.0289     0.3949
   77    1.520   4168.22     0.0428     0.0020     0.0275     0.0152     0.0543     4.6462    24.3200     0.0299     0.4034
   78    1.540   4169.20     0.0433     0.0020     0.0280     0.0154     0.0551     4.7309    24.6400     0.0304     0.4125
   79    1.560   4170.16     0.0439     0.0020     0.0279     0.0156     0.0556     4.5394    24.9600     0.0306     0.4026
   80    1.580   4171.11     0.0438     0.0020     0.0284     0.0158     0.0556     4.4789    25.2800     0.0303     0.4046
   81    1.600   4172.02     0.0447     0.0020     0.0292     0.0160     0.0568     4.4458    25.6000     0.0312     0.4109
   82    1.620   4172.98     0.0440     0.0019     0.0300     0.0162     0.0565     4.3500    25.9200     0.0305     0.4376
   83    1.640   4173.94     0.0440     0.0020     0.0303     0.0164     0.0567     4.5559    26.2400     0.0305     0.4563
   84    1.660   4174.89     0.0443     0.0020     0.0304     0.0166     0.0570     4.6952    26.5600     0.0305     0.4511
   85    1.680   4175.81     0.0451     0.0020     0.0310     0.0168     0.0580     4.4405    26.8800     0.0311     0.4493
   86    1.700   4176.78     0.0457     0.0020     0.0312     0.0170     0.0588     4.2607    27.2000     0.0316     0.4491
   87    1.720   4177.75     0.0469     0.0020     0.0319     0.0172     0.0602     4.3224    27.5200     0.0327     0.4404
   88    1.740   4178.69     0.0475     0.0020     0.0322     0.0174     0.0610     4.2092    27.8400     0.0332     0.4442
   89    1.760   4179.63     0.0482     0.0020     0.0329     0.0176     0.0619     4.1387    28.1600     0.0338     0.4430
   90    1.780   4180.58     0.0480     0.0020     0.0336     0.0178     0.0619     4.1857    28.4800     0.0334     0.4591
   91    1.800   4181.53     0.0493     0.0020     0.0340     0.0180     0.0635     4.1499    28.8000     0.0347     0.4550
   92    1.820   4182.48     0.0506     0.0020     0.0345     0.0182     0.0650     3.9937    29.1200     0.0359     0.4485
   93    1.840   4183.42     0.0521     0.0020     0.0351     0.0184     0.0667     3.9158    29.4400     0.0372     0.4407
   94    1.860   4184.38     0.0523     0.0020     0.0355     0.0186     0.0672     3.8879    29.7600     0.0374     0.4514
   95    1.880   4185.33     0.0532     0.0021     0.0362     0.0188     0.0683     3.9419    30.0800     0.0382     0.4493
   96    1.900   4186.29     0.0539     0.0020     0.0368     0.0190     0.0692     3.7058    30.4000     0.0388     0.4524
   97    1.920   4187.22     0.0551     0.0020     0.0377     0.0192     0.0708     3.6709    30.7200     0.0401     0.4559
   98    1.940   4188.17     0.0555     0.0020     0.0381     0.0194     0.0714     3.6520    31.0400     0.0404     0.4560
   99    1.960   4189.12     0.0572     0.0020     0.0391     0.0196     0.0735     3.5512    31.3600     0.0421     0.4563
  100    1.980   4190.04     0.0582     0.0021     0.0403     0.0198     0.0750     3.5995    31.6800     0.0433     0.4645
  101    2.000   4190.95     0.0586     0.0020     0.0410     0.0200     0.0756     3.4396    32.0000     0.0436     0.4705
  102    2.020   4191.90     0.0596     0.0020     0.0421     0.0202     0.0771     3.3780    32.3200     0.0448     0.4827
  103    2.040   4192.86     0.0599     0.0020     0.0427     0.0204     0.0777     3.3542    32.6400     0.0451     0.4897
  104    2.060   4193.82     0.0609     0.0021     0.0432     0.0206     0.0790     3.3888    32.9600     0.0460     0.4874
  105    2.080   4194.81     0.0612     0.0020     0.0442     0.0208     0.0796     3.2415    33.2800     0.0463     0.4950
  106    2.100   4195.70     0.0621     0.0020     0.0452     0.0210     0.0809     3.2979    33.6000     0.0473     0.5053
  107    2.120   4196.67     0.0633     0.0020     0.0459     0.0212     0.0824     3.1353    33.9200     0.0485     0.5017
  108    2.140   4197.62     0.0636     0.0019     0.0474     0.0214     0.0832     3.0559    34.2400     0.0490     0.5197
  109    2.160   4198.56     0.0644     0.0020     0.0483     0.0216     0.0847     3.0682    34.5600     0.0501     0.5305
  110    2.180   4199.53     0.0662     0.0019     0.0486     0.0218     0.0866     2.9689    34.8800     0.0517     0.5185
  111    2.200   4200.48     0.0663     0.0019     0.0495     0.0220     0.0869     2.9202    35.2000     0.0517     0.5246
  112    2.220   4201.40     0.0682     0.0020     0.0501     0.0222     0.0891     2.9543    35.5200     0.0536     0.5156
  113    2.240   4202.36     0.0687     0.0020     0.0506     0.0224     0.0899     2.8999    35.8400     0.0540     0.5174
  114    2.260   4203.33     0.0693     0.0020     0.0511     0.0226     0.0907     2.8442    36.1600     0.0545     0.5202
  115    2.280   4204.28     0.0702     0.0019     0.0517     0.0228     0.0918     2.6968    36.4800     0.0553     0.5183
  116    2.300   4205.24     0.0719     0.0020     0.0521     0.0230     0.0937     2.7478    36.8000     0.0569     0.5088
  117    2.320   4206.15     0.0733     0.0020     0.0528     0.0232     0.0954     2.6974    37.1200     0.0583     0.5034
  118    2.340   4207.11     0.0750     0.0020     0.0534     0.0234     0.0973     2.7316    37.4400     0.0598     0.4957
  119    2.360   4208.06     0.0767     0.0020     0.0534     0.0236     0.0991     2.6870    37.7600     0.0613     0.4843
  120    2.380   4209.02     0.0778     0.0021     0.0533     0.0238     0.1002     2.6946    38.0800     0.0621     0.4752
  121    2.400   4209.99     0.0783     0.0021     0.0541     0.0240     0.1010     2.6617    38.4000     0.0626     0.4791
  122    2.420   4210.90     0.0795     0.0021     0.0550     0.0242     0.1024     2.6715    38.7200     0.0637     0.4779
  123    2.440   4211.84     0.0803     0.0020     0.0558     0.0244     0.1036     2.4975    39.0400     0.0645     0.4822
  124    2.460   4212.78     0.0832     0.0020     0.0565     0.0246     0.1068     2.4249    39.3600     0.0674     0.4701
  125    2.480   4213.75     0.0849     0.0020     0.0573     0.0248     0.1089     2.4247    39.6800     0.0692     0.4653
  126    2.500   4214.67     0.0876     0.0021     0.0575     0.0250     0.1117     2.4192    40.0000     0.0717     0.4528
  127    2.520   4215.62     0.0908     0.0022     0.0578     0.0252     0.1151     2.4248    40.3200     0.0748     0.4376
  128    2.540   4216.56     0.0924     0.0022     0.0569     0.0254     0.1164     2.4017    40.6400     0.0758     0.4206
  129    2.560   4217.52     0.0937     0.0022     0.0570     0.0256     0.1176     2.3776    40.9600     0.0767     0.4088
  130    2.580   4218.47     0.0943     0.0022     0.0559     0.0258     0.1180     2.3733    41.2800     0.0767     0.3983
  131    2.600   4219.42     0.0947     0.0023     0.0554     0.0260     0.1180     2.4040    41.6000     0.0764     0.3861
  132    2.620   4220.36     0.0950     0.0022     0.0557     0.0262     0.1184     2.3190    41.9200     0.0765     0.3845
  133    2.640   4221.31     0.0939     0.0022     0.0561     0.0264     0.1174     2.3364    42.2400     0.0752     0.3937
  134    2.660   4222.26     0.0946     0.0021     0.0564     0.0266     0.1183     2.2400    42.5600     0.0757     0.3926
  135    2.680   4223.21     0.0945     0.0021     0.0569     0.0268     0.1183     2.1850    42.8800     0.0754     0.3951
  136    2.700   4224.17     0.0955     0.0020     0.0574     0.0270     0.1195     2.1237    43.2000     0.0763     0.3966
  137    2.720   4225.12     0.0951     0.0020     0.0579     0.0272     0.1193     2.1421    43.5200     0.0758     0.4032
  138    2.740   4226.07     0.0958     0.0020     0.0581     0.0274     0.1203     2.0441    43.8400     0.0765     0.4034
  139    2.760   4227.04     0.0980     0.0019     0.0588     0.0276     0.1224     1.9533    44.1600     0.0783     0.3918
  140    2.780   4228.01     0.0995     0.0019     0.0595     0.0278     0.1244     1.9699    44.4800     0.0799     0.3935
  141    2.800   4228.96     0.1004     0.0020     0.0597     0.0280     0.1255     2.0364    44.8000     0.0807     0.3939
  142    2.820   4229.88     0.1011     0.0020     0.0597     0.0282     0.1261     1.9849    45.1200     0.0810     0.3882
  143    2.840   4230.83     0.1028     0.0020     0.0594     0.0284     0.1279     1.9259    45.4400     0.0824     0.3783
  144    2.860   4231.78     0.1045     0.0020     0.0593     0.0286     0.1294     1.9611    45.7600     0.0836     0.3670
  145    2.880   4232.72     0.1054     0.0021     0.0591     0.0288     0.1302     2.0210    46.0800     0.0841     0.3598
  146    2.900   4233.66     0.1052     0.0021     0.0598     0.0290     0.1302     1.9776    46.4000     0.0838     0.3629
  147    2.920   4234.63     0.1061     0.0021     0.0608     0.0292     0.1315     1.9917    46.7200     0.0848     0.3709
  148    2.940   4235.58     0.1067     0.0021     0.0611     0.0294     0.1323     1.9498    47.0400     0.0853     0.3702
  149    2.960   4236.50     0.1093     0.0021     0.0616     0.0296     0.1352     1.9265    47.3600     0.0878     0.3653
  150    2.980   4237.48     0.1110     0.0020     0.0615     0.0298     0.1368     1.8376    47.6800     0.0891     0.3546
  151    3.000   4238.41     0.1134     0.0021     0.0614     0.0300     0.1392     1.8984    48.0000     0.0912     0.3436
  152    3.020   4239.32     0.1156     0.0023     0.0614     0.0302     0.1414     1.9576    48.3200     0.0931     0.3359
  153    3.040   4240.33     0.1170     0.0022     0.0613     0.0304     0.1427     1.8818    48.6400     0.0941     0.3279
  154    3.060   4241.27     0.1185     0.0024     0.0615     0.0306     0.1443     2.0034    48.9600     0.0953     0.3236
  155    3.080   4242.23     0.1192     0.0022     0.0614     0.0308     0.1451     1.8839    49.2800     0.0958     0.3203
  156    3.100   4243.17     0.1200     0.0024     0.0616     0.0310     0.1457     1.9616    49.6000     0.0961     0.3142
  157    3.120   4244.12     0.1195     0.0024     0.0617     0.0312     0.1454     1.9769    49.9200     0.0955     0.3193
  158    3.140   4245.08     0.1205     0.0023     0.0616     0.0314     0.1464     1.9211    50.2400     0.0961     0.3135
  159    3.160   4246.02     0.1191     0.0023     0.0627     0.0316     0.1451     1.8922    50.5600     0.0946     0.3214
  160    3.180   4246.97     0.1181     0.0022     0.0633     0.0318     0.1445     1.8413    50.8800     0.0937     0.3326
  161    3.200   4247.90     0.1195     0.0023     0.0644     0.0320     0.1464     1.8980    51.2000     0.0952     0.3353
  162    3.220   4248.93     0.1197     0.0023     0.0659     0.0322     0.1471     1.9124    51.5200     0.0956     0.3468
  163    3.240   4249.85     0.1216     0.0024     0.0676     0.0324     0.1498     1.9662    51.8400     0.0980     0.3548
  164    3.260   4250.81     0.1254     0.0010     0.0673     0.0326     0.1538     0.8453    52.1600     0.1016     0.3445
  165    3.280   4251.79     0.1290     0.0021     0.0665     0.0328     0.1570     1.6889    52.4800     0.1045     0.3242
  166    3.300   4252.68     0.1312     0.0019     0.0662     0.0330     0.1591     1.4760    52.8000     0.1063     0.3139
  167    3.320   4253.69     0.1333     0.0026     0.0671     0.0332     0.1613     1.9334    53.1200     0.1082     0.3091
  168    3.340   4254.65     0.1379     0.0034     0.0684     0.0334     0.1665     2.4698    53.4400     0.1130     0.3063
  169    3.360   4255.57     0.2373     0.0039     0.0612     0.0336     0.2654     2.2641    53.7600     0.2117     0.1728
  170    3.380   4256.48     0.3867     0.0036     0.0500     0.0338     0.4075     0.9488    54.0800     0.3534     0.0483
  171    3.400   4257.43     0.1747     0.0035     0.0427     0.0340     0.1904     2.0331    54.4000     0.1360     0.0248
  172    3.420   4264.98     0.1485     0.0034     0.0539     0.0342     0.1697     2.1287    54.7200     0.1150     0.1652
  173    3.440   4280.62     0.1254     0.0032     0.0640     0.0344     0.1508     1.9992    55.0400     0.0958     0.3191
  174    3.460   4296.27     0.1023     0.0029     0.0719     0.0346     0.1319     1.9483    55.3600     0.0766     0.4730
  175    3.480   4297.88     0.1045     0.0020     0.0749     0.0348     0.1355     1.9436    55.6800     0.0799     0.4905
  176    3.500   4298.81     0.1089     0.0021     0.0766     0.0350     0.1409     1.9911    56.0000     0.0849     0.4838
  177    3.520   4299.76     0.1126     0.0024     0.0787     0.0352     0.1454     2.1560    56.3200     0.0891     0.4807
  178    3.540   4300.73     0.1163     0.0032     0.0778     0.0354     0.1493     2.7674    56.6400     0.0926     0.4644
  179    3.560   4301.66     0.1202     0.0015     0.0774     0.0356     0.1528     1.2920    56.9600     0.0958     0.4378
  180    3.580   4302.60     0.1239     0.0029     0.0778     0.0358     0.1565     2.3709    57.2800     0.0992     0.4215
  181    3.600   4303.55     0.1273     0.0040     0.0786     0.0360     0.1602     3.1895    57.6000     0.1026     0.4130
  182    3.620   4304.54     0.1306     0.0049     0.0800     0.0362     0.1640     3.8000    57.9200     0.1060     0.4072
  183    3.640   4305.48     0.1397     0.0048     0.0865     0.0364     0.1741     3.6141    58.2400     0.1159     0.4007
  184    3.660   4306.40     0.1697     0.0046     0.0771     0.0366     0.2028     2.2039    58.5600     0.1442     0.2948
  185    3.680   4307.38     0.1715     0.0044     0.0660     0.0368     0.2029     2.7532    58.8800     0.1440     0.2649
  186    3.700   4308.35     0.1702     0.0041     0.0753     0.0370     0.2006     2.0771    59.2000     0.1414     0.2588
  187    3.720   4309.30     0.1331     0.0041     0.0811     0.0372     0.1658     2.9170    59.5200     0.1062     0.3836
  188    3.740   4310.23     0.1319     0.0041     0.0809     0.0374     0.1656     3.1654    59.8400     0.1058     0.4049
  189    3.760   4311.17     0.1343     0.0032     0.0769     0.0376     0.1671     2.3943    60.1600     0.1069     0.3775
  190    3.780   4312.10     0.1384     0.0032     0.0720     0.0378     0.1694     2.3277    60.4800     0.1090     0.3304
  191    3.800   4313.09     0.1408     0.0034     0.0702     0.0380     0.1704     2.4651    60.8000     0.1096     0.2968
  192    3.820   4314.04     0.1415     0.0037     0.0703     0.0382     0.1708     2.6332    61.1200     0.1097     0.2889
  193    3.840   4314.95     0.1419     0.0039     0.0717     0.0384     0.1718     2.7144    61.4400     0.1104     0.2981
  194    3.860   4315.92     0.1442     0.0039     0.0708     0.0386     0.1740     2.7159    61.7600     0.1122     0.2883
  195    3.880   4316.84     0.1460     0.0039     0.0699     0.0388     0.1755     2.6547    62.0800     0.1134     0.2767
  196    3.900   4317.79     0.1442     0.0038     0.0705     0.0390     0.1736     2.6505    62.4000     0.1112     0.2790
  197    3.920   4318.75     0.1447     0.0040     0.0701     0.0392     0.1744     2.7458    62.7200     0.1117     0.2808
  198    3.940   4319.71     0.1449     0.0040     0.0708     0.0394     0.1745     2.7672    63.0400     0.1115     0.2786
  199    3.960   4320.59     0.1441     0.0040     0.0715     0.0396     0.1739     2.7561    63.3600     0.1106     0.2835
  200    3.980   4321.53     0.1439     0.0039     0.0729     0.0398     0.1743     2.7329    63.6800     0.1106     0.2938
  201    4.000   4322.50     0.1460     0.0039     0.0732     0.0400     0.1767     2.7182    64.0000     0.1127     0.2929
  202    4.020   4323.46     0.1499     0.0041     0.0749     0.0402     0.1810     2.7354    64.3200     0.1167     0.2898
  203    4.040   4324.43     0.1506     0.0041     0.0760     0.0404     0.1826     2.7234    64.6400     0.1180     0.3032
  204    4.060   4325.35     0.1537     0.0041     0.0755     0.0406     0.1855     2.6867    64.9600     0.1205     0.2916
  205    4.080   4326.30     0.1528     0.0040     0.0739     0.0408     0.1844     2.5930    65.2800     0.1191     0.2879
  206    4.100   4327.23     0.1518     0.0039     0.0724     0.0410     0.1821     2.5822    65.6000     0.1165     0.2662
  207    4.120   4328.18     0.1508     0.0041     0.0750     0.0412     0.1820     2.7070    65.9200     0.1161     0.2857
  208    4.140   4329.10     0.1511     0.0043     0.0749     0.0414     0.1826     2.8225    66.2400     0.1164     0.2899
  209    4.160   4330.09     0.1491     0.0042     0.0731     0.0416     0.1801     2.8034    66.5600     0.1136     0.2837
  210    4.180   4331.00     0.1467     0.0042     0.0728     0.0418     0.1771     2.8361    66.8800     0.1102     0.2773
  211    4.200   4331.99     0.1461     0.0041     0.0736     0.0420     0.1770     2.8372    67.2000     0.1098     0.2874
  212    4.220   4332.96     0.1436     0.0040     0.0768     0.0422     0.1752     2.7438    67.5200     0.1077     0.3066
  213    4.240   4333.90     0.1432     0.0039     0.0816     0.0424     0.1769     2.7009    67.8400     0.1091     0.3466
  214    4.260   4334.85     0.1467     0.0038     0.0847     0.0426     0.1819     2.6291    68.1600     0.1138     0.3617
  215    4.280   4335.77     0.1515     0.0037     0.0874     0.0428     0.1878     2.4800    68.4800     0.1194     0.3670
  216    4.300   4336.73     0.1556     0.0037     0.0878     0.0430     0.1926     2.4277    68.8000     0.1238     0.3637
  217    4.320   4337.68     0.1606     0.0037     0.0850     0.0432     0.1968     2.3392    69.1200     0.1277     0.3373
  218    4.340   4338.62     0.1649     0.0039     0.0794     0.0434     0.1988     2.3932    69.4400     0.1293     0.2878
  219    4.360   4339.58     0.1672     0.0041     0.0798     0.0436     0.2008     2.4893    69.7600     0.1310     0.2765
  220    4.380   4340.52     0.1685     0.0042     0.0806     0.0438     0.2022     2.5230    70.0800     0.1321     0.2751
  221    4.400   4341.45     0.1672     0.0043     0.0809     0.0440     0.2014     2.5489    70.4000     0.1310     0.2846
  222    4.420   4342.39     0.1676     0.0043     0.0790     0.0442     0.2010     2.5697    70.7200     0.1303     0.2716
  223    4.440   4343.33     0.1668     0.0042     0.0793     0.0444     0.2000     2.5127    71.0400     0.1289     0.2679
  224    4.460   4344.29     0.1646     0.0043     0.0819     0.0446     0.1985     2.5831    71.3600     0.1272     0.2841
  225    4.480   4345.24     0.1633     0.0042     0.0839     0.0448     0.1984     2.5925    71.6800     0.1267     0.3065
  226    4.500   4346.17     0.1624     0.0041     0.0859     0.0450     0.1978     2.5114    72.0000     0.1258     0.3121
  227    4.520   4347.11     0.1620     0.0040     0.0876     0.0452     0.1985     2.4827    72.3200     0.1262     0.3314
  228    4.540   4348.07     0.1635     0.0040     0.0884     0.0454     0.2006     2.4517    72.6400     0.1280     0.3352
  229    4.560   4349.02     0.1638     0.0040     0.0900     0.0456     0.2012     2.4702    72.9600     0.1283     0.3391
  230    4.580   4349.95     0.1650     0.0040     0.0896     0.0458     0.2028     2.4549    73.2800     0.1295     0.3410
  231    4.600   4350.91     0.1668     0.0040     0.0894     0.0460     0.2043     2.3967    73.6000     0.1307     0.3314
  232    4.620   4351.83     0.1676     0.0039     0.0901     0.0462     0.2052     2.3258    73.9200     0.1313     0.3313
  233    4.640   4352.77     0.1693     0.0041     0.0916     0.0464     0.2076     2.4164    74.2400     0.1333     0.3350
  234    4.660   4353.72     0.1725     0.0040     0.0928     0.0466     0.2113     2.3280    74.5600     0.1367     0.3355
  235    4.680   4354.71     0.1747     0.0039     0.0939     0.0468     0.2141     2.2148    74.8800     0.1392     0.3368
  236    4.700   4355.67     0.1758     0.0039     0.0925     0.0470     0.2149     2.2126    75.2000     0.1397     0.3285
  237    4.720   4356.60     0.1797     0.0039     0.0918     0.0472     0.2181     2.1699    75.5200     0.1426     0.3104
  238    4.740   4357.55     0.1808     0.0041     0.0910     0.0474     0.2192     2.2472    75.8400     0.1434     0.3072
  239    4.760   4358.48     0.1808     0.0042     0.0904     0.0476     0.2190     2.3204    76.1600     0.1429     0.3037
  240    4.780   4359.44     0.1788     0.0040     0.0891     0.0478     0.2167     2.2110    76.4800     0.1402     0.3021
  241    4.800   4360.40     0.1775     0.0041     0.0888     0.0480     0.2144     2.2773    76.8000     0.1376     0.2890
  242    4.820   4361.35     0.1771     0.0042     0.0914     0.0482     0.2151     2.3756    77.1200     0.1380     0.3063
  243    4.840   4362.33     0.1791     0.0043     0.0961     0.0484     0.2189     2.4110    77.4400     0.1414     0.3281
  244    4.860   4363.28     0.1821     0.0042     0.0960     0.0486     0.2226     2.3328    77.7600     0.1448     0.3300
  245    4.880   4364.22     0.1857     0.0041     0.0910     0.0488     0.2248     2.2513    78.0800     0.1467     0.3018
  246    4.900   4365.15     0.1870     0.0042     0.0909     0.0490     0.2249     2.2327    78.4000     0.1465     0.2828
  247    4.920   4366.11     0.1885     0.0043     0.0921     0.0492     0.2272     2.2707    78.7200     0.1485     0.2896
  248    4.940   4367.06     0.1899     0.0042     0.0931     0.0494     0.2287     2.1996    79.0400     0.1496     0.2864
  249    4.960   4367.97     0.1902     0.0041     0.0929     0.0496     0.2291     2.1589    79.3600     0.1497     0.2861
  250    4.980   4368.93     0.1904     0.0040     0.0933     0.0498     0.2295     2.0999    79.6800     0.1499     0.2903
  251    5.000   4369.89     0.1923     0.0040     0.0954     0.0500     0.2319     2.0826    80.0000     0.1519     0.2918
  252    5.020   4370.81     0.1921     0.0041     0.0983     0.0502     0.2330     2.1268    80.3200     0.1527     0.3091
  253    5.040   4371.81     0.1991     0.0042     0.1007     0.0504     0.2410     2.1669    80.6400     0.1603     0.3077
  254    5.060   4372.75     0.2126     0.0043     0.1014     0.0506     0.2553     2.0862    80.9600     0.1743     0.2930
  255    5.080   4373.72     0.2284     0.0039     0.1015     0.0508     0.2711     1.7414    81.2800     0.1898     0.2677
  256    5.100   4374.67     0.2463     0.0046     0.0974     0.0510     0.2878     1.9318    81.6000     0.2062     0.2314
  257    5.120   4375.60     0.2632     0.0054     0.0951     0.0512     0.3032     2.1117    81.9200     0.2213     0.1995
  258    5.140   4376.53     0.2778     0.0047     0.0935     0.0514     0.3169     1.7079    82.2400     0.2347     0.1779
  259    5.160   4377.52     0.2613     0.0044     0.0878     0.0516     0.2987     1.6314    82.5600     0.2161     0.1732
  260    5.180   4378.48     0.2218     0.0042     0.0693     0.0518     0.2529     1.7903    82.8800     0.1700     0.1304
  261    5.200   4379.45     0.1960     0.0036     0.0646     0.0520     0.2226     1.7760    83.2000     0.1394     0.0807
  262    5.220   4380.40     0.1736     0.0032     0.0809     0.0522     0.2055     1.7513    83.5200     0.1220     0.1959
  263    5.240   4381.38     0.1687     0.0093     0.0913     0.0524     0.2058     5.5062    83.8400     0.1219     0.2939
  264    5.260   4382.34     0.1716     0.0139     0.0991     0.0526     0.2121     8.2336    84.1600     0.1280     0.3421
  265    5.280   4383.28     0.1828     0.0195     0.1074     0.0528     0.2266    11.1379    84.4800     0.1421     0.3624
  266    5.300   4384.25     0.2364     0.0188     0.1169     0.0530     0.2842     9.1724    84.8000     0.1994     0.3082
  267    5.320   4385.20     0.8694     0.0111     0.1044     0.0532     0.9171     2.7804    85.1200     0.8320     0.0965
  268    5.340   4386.14     2.1273     0.0091     0.0804     0.0534     2.1643     0.5732    85.4400     2.0788     0.0171
  269    5.360   4387.10     2.7280     0.0074    -0.0994     0.0536     2.7224     0.3803    85.7600     2.6367    -0.0262
  270    5.380   4388.05     2.1786     0.0063    -0.2317     0.0538     2.0850     0.3252    86.0800     1.9989    -0.1392
  271    5.400   4389.01     1.5376     0.0052    -0.1286     0.0540     1.4668     0.2875    86.4000     1.3804    -0.1611
  272    5.420   4389.96     1.0242     0.0078    -0.0082     0.0542     1.0056     0.7341    86.7200     0.9188    -0.1073
  273    5.440   4390.88     0.9434     0.0067     0.0455     0.0544     0.9564     0.7150    87.0400     0.8693    -0.0276
  274    5.460   4399.67     1.3673     0.0089     0.0324     0.0546     1.3855     0.7426    87.3600     1.2982    -0.0045
  275    5.480   4420.12     1.7740     0.0136     0.0005     0.0548     1.7788     1.1277    87.6800     1.6911    -0.0195
  276    5.500   4440.58     2.1806     0.0210    -0.0296     0.0550     2.1721     1.4321    88.0000     2.0841    -0.0345
  277    5.520   4448.11     1.7563     0.0268     0.0262     0.0552     1.7626     1.3604    88.3200     1.6743    -0.0233
  278    5.540   4449.46     1.9495     0.0267     0.0259     0.0554     1.9593     1.5855    88.6400     1.8706    -0.0172
  279    5.560   4450.40     1.9382     0.0222     0.0380     0.0556     1.9537     1.1438    88.9600     1.8647    -0.0100
  280    5.580   4451.31     1.9622     0.0200     0.0357     0.0558     1.9773     1.0259    89.2800     1.8880    -0.0104
  281    5.600   4452.29     2.0692     0.0216     0.0423     0.0560     2.0855     1.0546    89.6000     1.9959    -0.0087
  282    5.620   4453.23     2.3185     0.0198     0.0626     0.0562     2.3423     0.8643    89.9200     2.2524     0.0001
  283    5.640   4454.18     2.7444     0.0195     0.0595     0.0564     2.7696     0.7222    90.2400     2.6794     0.0014
  284    5.660   4455.13     3.4823     0.0193     0.0442     0.0566     3.5047     0.5802    90.5600     3.4142    -0.0008
  285    5.680   4456.13     4.3833     0.0187    -0.0139     0.0568     4.3855     0.4478    90.8800     4.2946    -0.0119
  286    5.700   4459.73     4.6054     0.0168     0.0443     0.0570     4.6254     0.3692    91.2000     4.5342    -0.0021
  287    5.720   4460.89     5.2601     0.0229     0.0338     0.0572     5.2726     0.4693    91.5200     5.1811    -0.0053
  288    5.740   4463.00     5.3828     0.0184     0.0452     0.0574     5.4001     0.3510    91.8400     5.3083    -0.0031
  289    5.760   4465.11     5.5055     0.0204     0.0566     0.0576     5.5276     0.3874    92.1600     5.4355    -0.0009
  290    5.780   4466.54     5.7392     0.0238     0.0586     0.0578     5.7635     0.4180    92.4800     5.6711     0.0000
  291    5.800   4467.48     5.9599     0.0252     0.0580     0.0580     5.9837     0.4227    92.8000     5.8909    -0.0002
  292    5.820   4468.90     6.1694     0.0250     0.0589     0.0582     6.1942     0.4411    93.1200     6.1011     0.0002
  293    5.840   4473.20     5.8012     0.0237     0.0591     0.0584     5.8260     0.4371    93.4400     5.7326     0.0001
  294    5.860   4474.11     6.3580     0.0211     0.0593     0.0586     6.3829     0.3341    93.7600     6.2891     0.0001
  295    5.880   4475.09     6.7351     0.0216     0.0596     0.0588     6.7600     0.3250    94.0800     6.6660     0.0001
  296    5.900   4476.14     7.4008     0.0270     0.0597     0.0590     7.4258     0.3838    94.4000     7.3314     0.0001
  297    5.920   4478.87     7.0735     0.0240     0.0599     0.0592     7.0988     0.3438    94.7200     7.0040     0.0001
  298    5.940   4481.08     7.3083     0.0268     0.0598     0.0594     7.3334     0.3567    95.0400     7.2384     0.0001
  299    5.960   4482.06     8.2001     0.0290     0.0601     0.0596     8.2254     0.3539    95.3600     8.1300     0.0001
  300    5.980   4483.03     8.4854     0.0304     0.0604     0.0598     8.5107     0.3611    95.6800     8.4151     0.0001
  301    6.000   4484.15     9.0100     0.0318     0.0607     0.0600     9.0353     0.3817    96.0000     8.9393     0.0000
  302    6.020   4487.71     9.0385     0.0327     0.0603     0.0602     9.0639     0.3935    96.3200     8.9676     0.0000
  303    6.040   4488.69     9.4321     0.0317     0.0607     0.0604     9.4575     0.3670    96.6400     9.3609     0.0000
  304    6.060   4489.64     9.2623     0.0306     0.0605     0.0606     9.2879     0.3406    96.9600     9.1909     0.0000
  305    6.080   4490.56     9.0178     0.0353     0.0611     0.0608     9.0433     0.3898    97.2800     8.9460     0.0000
  306    6.100   4491.47     8.7659     0.0281     0.0608     0.0610     8.7915     0.3187    97.6000     8.6939     0.0000
  307    6.120   4492.41     8.4880     0.0292     0.0610     0.0612     8.5136     0.3424    97.9200     8.4156     0.0000
  308    6.140   4494.74     8.1312     0.0365     0.0611     0.0614     8.1568     0.4315    98.2400     8.0586     0.0000
  309    6.160   4497.27     7.7618     0.0285     0.0611     0.0616     7.7875     0.3373    98.5600     7.6889    -0.0001
  310    6.180   4500.81     6.2988     0.0261     0.0628     0.0618     6.3250     0.3983    98.8800     6.2261     0.0001
  311    6.200   4501.97     6.8593     0.0281     0.0625     0.0620     6.8854     0.4271    99.2000     6.7862     0.0000
  312    6.220   4502.88     6.4007     0.0232     0.0620     0.0622     6.4269     0.3567    99.5200     6.3274     0.0000
  313    6.240   4503.96     5.6489     0.0245     0.0629     0.0624     5.6750     0.4699    99.8400     5.5752    -0.0001
  314    6.260   4506.59     4.7313     0.0273     0.0623     0.0626     4.7574     0.6371   100.1600     4.6572    -0.0001
  315    6.280   4507.47     3.9075     0.0357     0.0617     0.0628     3.9338     0.8350   100.4800     3.8333     0.0000
  316    6.300   4509.01     2.4510     0.0458     0.0638     0.0630     2.4777     1.7993   100.8000     2.3769     0.0002
  317    6.320   4510.33     2.1130     0.0530     0.0641     0.0632     2.1399     2.5109   101.1200     2.0388     0.0004
  318    6.340   4511.26     1.7265     0.0558     0.0644     0.0634     1.7535     3.1510   101.4400     1.6520     0.0005
  319    6.360   4512.20     1.4265     0.0484     0.0645     0.0636     1.4536     3.2664   101.7600     1.3518     0.0007
  320    6.380   4513.14     1.2415     0.0412     0.0648     0.0638     1.2687     3.2004   102.0800     1.1666     0.0008
  321    6.400   4514.03     1.0542     0.0389     0.0645     0.0640     1.0816     3.5815   102.4000     0.9792     0.0012
  322    6.420   4514.92     0.8171     0.0342     0.0691     0.0642     0.8449     4.1364   102.7200     0.7421     0.0025
  323    6.440   4515.79     0.7193     0.0279     0.1587     0.0644     0.7671     3.7174   103.0400     0.6641     0.0752
  324    6.460   4516.71     0.6820     0.0162     0.2476     0.0646     0.7778     2.3446   103.3600     0.6744     0.2420
  325    6.480   4519.06     0.7170     0.0120     0.2536     0.0648     0.8252     1.7487   103.6800     0.7215     0.2692
  326    6.500   4520.04     0.9614     0.0090     0.2135     0.0650     1.0564     1.0250   104.0000     0.9524     0.1694
  327    6.520   4520.99     1.1745     0.0062     0.1766     0.0652     1.2527     0.5728   104.3200     1.1484     0.1054
  328    6.540   4521.96     1.3052     0.0048     0.1590     0.0654     1.3712     0.3773   104.6400     1.2666     0.0725
  329    6.560   4522.88     1.3894     0.0045     0.1442     0.0656     1.4509     0.3334   104.9600     1.3459     0.0600
  330    6.580   4523.84     1.3760     0.0042     0.1479     0.0658     1.4371     0.3090   105.2800     1.3318     0.0598
  331    6.600   4524.74     1.3221     0.0062     0.1423     0.0660     1.3834     0.4702   105.6000     1.2778     0.0626
  332    6.620   4525.69     1.2282     0.0083     0.1557     0.0662     1.2912     0.6908   105.9200     1.1853     0.0707
  333    6.640   4526.63     1.1341     0.0105     0.1862     0.0664     1.2095     0.9114   106.2400     1.1033     0.1026
  334    6.660   4527.58     1.0709     0.0142     0.1879     0.0666     1.1526     1.2817   106.5600     1.0460     0.1223
  335    6.680   4528.53     1.1466     0.0208     0.1855     0.0668     1.2221     1.8714   106.8800     1.1152     0.1012
  336    6.700   4529.72     1.2215     0.0217     0.1637     0.0670     1.2988     2.0461   107.2000     1.1916     0.0982
  337    6.720   4554.42     1.1947     0.0188     0.1181     0.0672     1.2509     1.8129   107.5200     1.1434     0.0555
  338    6.740   4580.73     1.1583     0.0160     0.0724     0.0674     1.1953     1.5428   107.8400     1.0875     0.0169
  339    6.760   4595.79     1.0551     0.0163     0.1152     0.0676     1.0949     1.4773   108.1600     0.9868     0.0291
  340    6.780   4596.46     1.4915     0.0207     0.1258     0.0678     1.5431     1.3954   108.4800     1.4346     0.0386
  341    6.800   4597.12     2.7142     0.0279     0.1518     0.0680     2.7720     1.1042   108.8000     2.6632     0.0259
  342    6.820   4597.75     3.0080     0.0332     0.0088     0.0682     3.0375     1.2283   109.1200     2.9284    -0.0011
  343    6.840   4598.40     2.3545     0.0363    -0.0121     0.0684     2.3501     1.2697   109.4400     2.2406    -0.0360
  344    6.860   4599.04     1.7942     0.0409     0.0044     0.0686     1.7932     2.0053   109.7600     1.6835    -0.0421
  345    6.880   4599.69     1.4214     0.0440     0.0609     0.0688     1.4366     2.9122   110.0800     1.3265    -0.0232
  346    6.900   4600.34     1.2114     0.0407     0.0941     0.0690     1.2478     2.9582   110.4000     1.1374     0.0160
  347    6.920   4601.01     1.0332     0.0361     0.1017     0.0692     1.0740     3.1131   110.7200     0.9632     0.0290
  348    6.940   4601.65     0.9085     0.0315     0.1256     0.0694     0.9567     3.2680   111.0400     0.8456     0.0537
  349    6.960   4602.30     0.8378     0.0296     0.1567     0.0696     0.8985     3.3670   111.3600     0.7872     0.0956
  350    6.980   4602.92     0.7529     0.0247     0.2014     0.0698     0.8322     3.1104   111.6800     0.7205     0.1653
  351    7.000   4606.63     0.7059     0.0198     0.2153     0.0700     0.7969     2.6930   112.0000     0.6849     0.2146
  352    7.020   4624.21     0.6575     0.0188     0.2110     0.0702     0.7467     2.6275   112.3200     0.6344     0.2260
  353    7.040   4641.79     0.6092     0.0179     0.2067     0.0704     0.6966     2.5031   112.6400     0.5840     0.2373
  354    7.060   4652.87     0.5770     0.0154     0.2420     0.0706     0.6733     2.6522   112.9600     0.5603     0.2830
  355    7.080   4653.82     0.5918     0.0120     0.2465     0.0708     0.6963     2.0543   113.2800     0.5831     0.3055
  356    7.100   4654.77     0.6104     0.0114     0.2325     0.0710     0.7095     1.8494   113.6000     0.5959     0.2767
  357    7.120   4655.74     0.5539     0.0107     0.2509     0.0712     0.6535     1.8565   113.9200     0.5396     0.3085
  358    7.140   4656.74     0.5642     0.0104     0.3128     0.0714     0.6898     1.9916   114.2400     0.5755     0.3961
  359    7.160   4657.74     0.7201     0.0101     0.2953     0.0716     0.8509     1.5315   114.5600     0.7364     0.3272
  360    7.180   4658.69     0.7962     0.0107     0.2287     0.0718     0.8975     1.3584   114.8800     0.7827     0.2164
  361    7.200   4659.67     0.8051     0.0114     0.2297     0.0720     0.9019     1.4088   115.2000     0.7867     0.2014
  362    7.220   4660.65     0.7741     0.0112     0.2441     0.0722     0.8722     1.4205   115.5200     0.7567     0.2135
  363    7.240   4661.59     0.7516     0.0107     0.2750     0.0724     0.8628     1.4146   115.8400     0.7470     0.2577
  364    7.260   4662.54     0.7905     0.0114     0.2664     0.0726     0.9023     1.4922   116.1600     0.7862     0.2464
  365    7.280   4663.45     0.8138     0.0115     0.2407     0.0728     0.9166     1.4175   116.4800     0.8001     0.2149
  366    7.300   4664.45     0.8365     0.0128     0.2386     0.0730     0.9271     1.5444   116.8000     0.8103     0.1762
  367    7.320   4665.44     0.8207     0.0145     0.2603     0.0732     0.9276     1.7787   117.1200     0.8105     0.2239
  368    7.340   4666.38     0.7873     0.0139     0.2897     0.0734     0.9041     1.7599   117.4400     0.7867     0.2603
  369    7.360   4667.36     0.7694     0.0139     0.2907     0.0736     0.8931     1.8309   117.7600     0.7753     0.2849
  370    7.380   4668.30     0.8014     0.0141     0.2702     0.0738     0.9181     1.7836   118.0800     0.8001     0.2554
  371    7.400   4669.28     0.8501     0.0131     0.2507     0.0740     0.9579     1.5580   118.4000     0.8395     0.2176
  372    7.420   4670.25     0.8522     0.0141     0.2481     0.0742     0.9570     1.6829   118.7200     0.8383     0.2090
  373    7.440   4671.21     0.9265     0.0149     0.2436     0.0744     1.0296     1.6398   119.0400     0.9106     0.1878
  374    7.460   4672.18     0.9709     0.0127     0.2389     0.0746     1.0697     1.3253   119.3600     0.9503     0.1690
  375    7.480   4673.12     1.0412     0.0135     0.2193     0.0748     1.1356     1.3256   119.6800     1.0159     0.1477
  376    7.500   4674.07     1.0390     0.0141     0.2127     0.0750     1.1263     1.3429   120.0000     1.0063     0.1321
  377    7.520   4675.01     0.9149     0.0137     0.2313     0.0752     1.0105     1.4372   120.3200     0.8902     0.1714
  378    7.540   4676.04     0.8374     0.0142     0.2297     0.0754     0.9329     1.6393   120.6400     0.8123     0.1872
  379    7.560   4677.03     0.7719     0.0134     0.2457     0.0756     0.8741     1.6829   120.9600     0.7532     0.2229
  380    7.580   4677.97     0.7213     0.0117     0.2446     0.0758     0.8236     1.6085   121.2800     0.7023     0.2389
  381    7.600   4678.96     0.7497     0.0118     0.2433     0.0760     0.8506     1.5834   121.6000     0.7290     0.2255
  382    7.620   4679.89     0.8105     0.0117     0.2362     0.0762     0.9110     1.4850   121.9200     0.7891     0.2067
  383    7.640   4680.82     0.8566     0.0116     0.2204     0.0764     0.9527     1.3865   122.2400     0.8304     0.1835
  384    7.660   4681.82     0.8830     0.0125     0.2317     0.0766     0.9773     1.4195   122.5600     0.8547     0.1728
  385    7.680   4682.77     0.8502     0.0160     0.2346     0.0768     0.9485     1.8271   122.8800     0.8256     0.1904
  386    7.700   4686.91     0.8401     0.0178     0.2166     0.0770     0.9356     2.1718   123.2000     0.8124     0.1885
  387    7.720   4698.40     0.9319     0.0151     0.1856     0.0772     1.0144     1.8573   123.5200     0.8909     0.1417
  388    7.740   4709.89     1.0238     0.0098     0.1546     0.0774     1.0932     1.2024   123.8400     0.9694     0.0950
  389    7.760   4716.03     1.1160     0.0074     0.1546     0.0776     1.1846     0.6882   124.1600     1.0604     0.0810
  390    7.780   4716.96     1.4062     0.0071     0.1369     0.0778     1.4599     0.5363   124.4800     1.3355     0.0375
  391    7.800   4717.94     1.8876     0.0085     0.0991     0.0780     1.9451     0.4960   124.8000     1.8203     0.0325
  392    7.820   4718.91     2.5522     0.0095     0.0397     0.0782     2.5737     0.4062   125.1200     2.4486    -0.0110
  393    7.840   4719.82     3.0125     0.0107     0.0613     0.0784     3.0347     0.3695   125.4400     2.9093    -0.0090
  394    7.860   4720.80     3.4617     0.0119     0.0685     0.0786     3.4881     0.3543   125.7600     3.3623    -0.0047
  395    7.880   4721.82     3.7852     0.0145     0.0671     0.0788     3.8159     0.3900   126.0800     3.6898    -0.0015
  396    7.900   4722.80     3.9813     0.0156     0.0354     0.0790     4.0005     0.3992   126.4000     3.8741    -0.0086
  397    7.920   4723.74     4.1982     0.0143     0.0425     0.0792     4.2128     0.3460   126.7200     4.0861    -0.0109
  398    7.940   4724.70     4.4339     0.0130     0.0678     0.0794     4.4594     0.2994   127.0400     4.3324    -0.0043
  399    7.960   4725.69     4.7191     0.0135     0.0672     0.0796     4.7492     0.2916   127.3600     4.6218    -0.0017
  400    7.980   4726.64     5.0044     0.0149     0.0206     0.0798     5.0235     0.3025   127.6800     4.8958    -0.0070
  401    8.000   4727.60     5.1241     0.0150     0.0587     0.0800     5.1288     0.2938   128.0000     5.0008    -0.0137
  402    8.020   4728.58     5.0480     0.0156     0.0693     0.0802     5.0743     0.3076   128.3200     4.9460    -0.0036
  403    8.040   4729.55     5.0748     0.0157     0.0780     0.0804     5.1083     0.3113   128.6400     4.9797    -0.0001
  404    8.060   4730.56     5.2187     0.0145     0.0586     0.0806     5.2477     0.2801   128.9600     5.1187    -0.0023
  405    8.080   4731.50     5.4940     0.0131     0.0400     0.0808     5.5123     0.2424   129.2800     5.3830    -0.0069
  406    8.100   4732.49     5.8528     0.0143     0.0104     0.0810     5.8615     0.2489   129.6000     5.7319    -0.0105
  407    8.120   4733.45     6.2520     0.0181     0.0069     0.0812     6.2512     0.2937   129.9200     6.1213    -0.0136
  408    8.140   4734.40     6.5569     0.0228     0.0211     0.0814     6.5637     0.3508   130.2400     6.4334    -0.0102
  409    8.160   4735.43     6.6478     0.0276     0.0420     0.0816     6.6631     0.4152   130.5600     6.5325    -0.0069
  410    8.180   4736.35     6.6407     0.0317     0.0615     0.0818     6.6638     0.4771   130.8800     6.5329    -0.0041
  411    8.200   4737.33     6.5826     0.0338     0.0771     0.0820     6.6139     0.5127   131.2000     6.4827    -0.0012
  412    8.220   4738.36     6.4532     0.0361     0.0809     0.0822     6.4861     0.5555   131.5200     6.3545    -0.0006
  413    8.240   4739.34     6.2625     0.0355     0.0783     0.0824     6.2958     0.5603   131.8400     6.1640    -0.0005
  414    8.260   4740.31     6.0782     0.0331     0.0820     0.0826     6.1122     0.5396   132.1600     5.9800    -0.0003
  415    8.280   4741.28     5.8786     0.0310     0.0877     0.0828     5.9148     0.5209   132.4800     5.7823     0.0006
  416    8.300   4742.24     5.6073     0.0316     0.0809     0.0830     5.6414     0.5550   132.8000     5.5086    -0.0003
  417    8.320   4743.18     5.2498     0.0301     0.0825     0.0832     5.2847     0.5600   133.1200     5.1516     0.0000
  418    8.340   4744.18     4.8091     0.0278     0.0874     0.0834     4.8448     0.5624   133.4400     4.7113     0.0003
  419    8.360   4745.14     4.4342     0.0258     0.0874     0.0836     4.4704     0.5661   133.7600     4.3366     0.0006
  420    8.380   4746.10     4.1380     0.0251     0.0883     0.0838     4.1753     0.5931   134.0800     4.0413     0.0013
  421    8.400   4747.04     3.9274     0.0241     0.0906     0.0840     3.9650     0.6034   134.4000     3.8306     0.0015
  422    8.420   4748.03     3.7191     0.0236     0.0835     0.0842     3.7561     0.6239   134.7200     3.6213     0.0010
  423    8.440   4748.99     3.4803     0.0207     0.0837     0.0844     3.5149     0.5791   135.0400     3.3798    -0.0006
  424    8.460   4749.94     3.1902     0.0180     0.0808     0.0846     3.2265     0.5489   135.3600     3.0911     0.0006
  425    8.480   4750.91     2.9718     0.0184     0.0695     0.0848     3.0015     0.6068   135.6800     2.8658    -0.0049
  426    8.500   4751.86     2.7495     0.0191     0.0640     0.0850     2.7788     0.6796   136.0000     2.6428    -0.0058
  427    8.520   4752.85     2.4794     0.0178     0.0470     0.0852     2.5001     0.6924   136.3200     2.3638    -0.0153
  428    8.540   4753.77     2.1646     0.0166     0.0487     0.0854     2.1854     0.7399   136.6400     2.0488    -0.0176
  429    8.560   4754.74     1.9112     0.0160     0.0609     0.0856     1.9334     0.8127   136.9600     1.7964    -0.0182
  430    8.580   4755.72     1.7048     0.0182     0.0783     0.0858     1.7341     1.0380   137.2800     1.5968    -0.0100
  431    8.600   4756.70     1.5257     0.0190     0.1082     0.0860     1.5672     1.2084   137.6000     1.4296     0.0089
  432    8.620   4757.67     1.3459     0.0148     0.1630     0.0862     1.4053     1.0423   137.9200     1.2674     0.0442
  433    8.640   4758.63     1.1844     0.0132     0.1973     0.0864     1.2630     1.0885   138.2400     1.1248     0.0898
  434    8.660   4759.61     1.1113     0.0139     0.2174     0.0866     1.1995     1.2361   138.5600     1.0610     0.1163
  435    8.680   4760.57     1.1125     0.0165     0.2248     0.0868     1.2089     1.4894   138.8800     1.0700     0.1333
  436    8.700   4761.54     1.2090     0.0152     0.1976     0.0870     1.2967     1.2873   139.2000     1.1575     0.1053
  437    8.720   4762.49     1.1549     0.0129     0.1467     0.0872     1.2197     1.0914   139.5200     1.0802     0.0620
  438    8.740   4763.49     0.9940     0.0113     0.1600     0.0874     1.0576     1.0678   139.8400     0.9178     0.0699
  439    8.760   4764.45     0.8134     0.0123     0.1976     0.0876     0.8921     1.4207   140.1600     0.7519     0.1329
  440    8.780   4765.39     0.7074     0.0129     0.2296     0.0878     0.7987     1.7557   140.4800     0.6583     0.1972
  441    8.800   4766.34     0.8054     0.0121     0.2821     0.0880     0.9212     1.6454   140.8000     0.7804     0.2401
  442    8.820   4767.30     1.1529     0.0102     0.2317     0.0882     1.2619     0.9582   141.1200     1.1208     0.1544
  443    8.840   4768.25     1.3479     0.0097     0.1700     0.0884     1.4240     0.7454   141.4400     1.2825     0.0725
  444    8.860   4769.22     1.3897     0.0109     0.1481     0.0886     1.4540     0.7865   141.7600     1.3123     0.0493
  445    8.880   4770.21     1.3805     0.0110     0.1407     0.0888     1.4384     0.7900   142.0800     1.2963     0.0380
  446    8.900   4771.18     1.3151     0.0117     0.1627     0.0890     1.3800     0.8767   142.4000     1.2376     0.0531
  447    8.920   4772.13     1.2170     0.0126     0.1879     0.0892     1.2907     1.0085   142.7200     1.1480     0.0755
  448    8.940   4773.07     1.1026     0.0137     0.2166     0.0894     1.1887     1.2124   143.0400     1.0457     0.1108
  449    8.960   4774.00     0.9967     0.0139     0.2380     0.0896     1.0958     1.3642   143.3600     0.9525     0.1537
  450    8.980   4774.95     0.9109     0.0129     0.2503     0.0898     1.0153     1.3745   143.6800     0.8716     0.1821
  451    9.000   4775.99     0.8754     0.0111     0.2739     0.0900     0.9865     1.2591   144.0000     0.8425     0.2072
  452    9.020   4776.99     0.8774     0.0108     0.2515     0.0902     0.9865     1.2552   144.3200     0.8422     0.2013
  453    9.040   4777.93     0.8148     0.0117     0.2625     0.0904     0.9216     1.3703   144.6400     0.7770     0.2111
  454    9.060   4778.87     0.7693     0.0121     0.2978     0.0906     0.8896     1.5406   144.9600     0.7446     0.2629
  455    9.080   4779.82     0.7328     0.0111     0.3063     0.0908     0.8618     1.5063   145.2800     0.7165     0.3018
  456    9.100   4780.81     0.7053     0.0108     0.3060     0.0910     0.8333     1.5070   145.6000     0.6877     0.3110
  457    9.120   4781.79     0.7021     0.0107     0.3116     0.0912     0.8315     1.5153   145.9200     0.6856     0.3165
  458    9.140   4782.75     0.6661     0.0107     0.3170     0.0914     0.7988     1.5753   146.2400     0.6526     0.3443
  459    9.160   4783.72     0.6207     0.0114     0.3386     0.0916     0.7591     1.8003   146.5600     0.6125     0.3887
  460    9.180   4784.68     0.5929     0.0117     0.3684     0.0918     0.7427     1.9588   146.8800     0.5958     0.4443
  461    9.200   4785.67     0.6016     0.0121     0.3833     0.0920     0.7611     2.0225   147.2000     0.6139     0.4686
  462    9.220   4786.63     0.6179     0.0124     0.3925     0.0922     0.7811     2.0155   147.5200     0.6336     0.4679
  463    9.240   4787.59     0.6294     0.0127     0.3984     0.0924     0.7951     2.0254   147.8400     0.6473     0.4670
  464    9.260   4788.53     0.6197     0.0131     0.4069     0.0926     0.7896     2.1016   148.1600     0.6415     0.4865
  465    9.280   4789.51     0.6180     0.0130     0.4128     0.0928     0.7905     2.1037   148.4800     0.6420     0.4952
  466    9.300   4790.49     0.6156     0.0131     0.4194     0.0930     0.7911     2.1231   148.8000     0.6423     0.5057
  467    9.320   4791.48     0.6133     0.0138     0.4247     0.0932     0.7909     2.2337   149.1200     0.6418     0.5135
  468    9.340   4792.47     0.6205     0.0145     0.4263     0.0934     0.7986     2.3444   149.4400     0.6492     0.5094
  469    9.360   4793.42     0.6153     0.0152     0.4302     0.0936     0.7956     2.4758   149.7600     0.6458     0.5198
  470    9.380   4794.38     0.6080     0.0153     0.4301     0.0938     0.7890     2.5002   150.0800     0.6389     0.5276
  471    9.400   4795.34     0.6075     0.0136     0.4272     0.0940     0.7871     2.2396   150.4000     0.6367     0.5241
  472    9.420   4809.06     0.5961     0.0137     0.4278     0.0942     0.7758     2.2548   150.7200     0.6250     0.5338
  473    9.440   4824.88     0.5838     0.0141     0.4284     0.0944     0.7636     2.3229   151.0400     0.6126     0.5453
  474    9.460   4836.71     0.5777     0.0137     0.4376     0.0946     0.7591     2.3601   151.3600     0.6078     0.5553
  475    9.480   4837.66     0.6061     0.0137     0.4476     0.0948     0.7954     2.3188   151.6800     0.6438     0.5534
  476    9.500   4838.58     0.6307     0.0132     0.4098     0.0950     0.7956     2.0958   152.0000     0.6436     0.4625
  477    9.520   4839.58     0.6319     0.0131     0.4322     0.0952     0.8108     2.0714   152.3200     0.6585     0.5023
  478    9.540   4840.55     0.6350     0.0130     0.4381     0.0954     0.8178     2.0470   152.6400     0.6652     0.5110
  479    9.560   4841.53     0.6471     0.0136     0.4412     0.0956     0.8328     2.1184   152.9600     0.6799     0.5099
  480    9.580   4842.48     0.6621     0.0128     0.4423     0.0958     0.8471     1.9400   153.2800     0.6938     0.4967
  481    9.600   4843.46     0.6844     0.0110     0.4406     0.0960     0.8699     1.6355   153.6000     0.7163     0.4824
  482    9.620   4844.42     0.7141     0.0106     0.4408     0.0962     0.9010     1.5029   153.9200     0.7471     0.4670
  483    9.640   4845.38     0.7858     0.0120     0.4031     0.0964     0.9619     1.5632   154.2400     0.8077     0.4002
  484    9.660   4846.35     0.8040     0.0134     0.4221     0.0966     0.9756     1.6772   154.5600     0.8210     0.3799
  485    9.680   4847.31     0.8445     0.0125     0.4012     0.0968     1.0199     1.4930   154.8800     0.8650     0.3709
  486    9.700   4848.25     0.8676     0.0122     0.3377     0.0970     1.0176     1.4043   155.2000     0.8624     0.3015
  487    9.720   4849.24     0.8340     0.0122     0.3482     0.0972     0.9741     1.4202   155.5200     0.8186     0.2893
  488    9.740   4850.25     0.7358     0.0119     0.3794     0.0974     0.8929     1.5761   155.8400     0.7371     0.3756
  489    9.760   4851.23     0.7009     0.0125     0.3772     0.0976     0.8603     1.7664   156.1600     0.7042     0.4007
  490    9.780   4852.18     0.6801     0.0124     0.3549     0.0978     0.8320     1.8016   156.4800     0.6755     0.3904
  491    9.800   4853.13     0.6487     0.0122     0.3886     0.0980     0.8053     1.8471   156.8000     0.6485     0.4241
  492    9.820   4854.12     0.6225     0.0125     0.4000     0.0982     0.7876     1.9824   157.1200     0.6305     0.4679
  493    9.840   4855.04     0.6277     0.0127     0.3901     0.0984     0.7946     2.0393   157.4400     0.6372     0.4694
  494    9.860   4855.99     0.6152     0.0126     0.3949     0.0986     0.7761     2.0277   157.7600     0.6183     0.4599
  495    9.880   4856.96     0.6122     0.0121     0.4025     0.0988     0.7823     1.9795   158.0800     0.6242     0.4905
  496    9.900   4857.87     0.6140     0.0125     0.4062     0.0990     0.7837     2.0306   158.4000     0.6253     0.4878
  497    9.920   4858.82     0.6130     0.0116     0.4129     0.0992     0.7853     1.8977   158.7200     0.6266     0.4963
  498    9.940   4859.83     0.6118     0.0123     0.4189     0.0994     0.7872     2.0139   159.0400     0.6282     0.5065
  499    9.960   4860.79     0.6042     0.0134     0.4251     0.0996     0.7817     2.2011   159.3600     0.6223     0.5190
  500    9.980   4861.76     0.5948     0.0143     0.4274     0.0998     0.7741     2.3941   159.6800     0.6145     0.5323
  501   10.000   4862.72     0.5971     0.0149     0.4325     0.1000     0.7777     2.5007   160.0000     0.6177     0.5343
  502   10.020   4863.70     0.6011     0.0157     0.4205     0.1002     0.7810     2.6287   160.3200     0.6207     0.5289
  503   10.040   4864.66     0.6133     0.0166     0.4194     0.1004     0.7892     2.7210   160.6400     0.6285     0.5065
  504   10.060   4865.63     0.6130     0.0163     0.4238     0.1006     0.7904     2.6518   160.9600     0.6295     0.5112
  505   10.080   4866.60     0.6206     0.0166     0.4296     0.1008     0.8009     2.6956   161.2800     0.6396     0.5135
  506   10.100   4867.55     0.6519     0.0178     0.4373     0.1010     0.8330     2.7995   161.6000     0.6714     0.4922
  507   10.120   4868.49     0.8090     0.0215     0.4392     0.1012     0.9976     2.8358   161.9200     0.8357     0.4163
  508   10.140   4869.50     1.1313     0.0249     0.3200     0.1014     1.2897     2.3855   162.2400     1.1274     0.2452
  509   10.160   4870.49     1.3262     0.0217     0.2113     0.1016     1.4213     1.6753   162.5600     1.2587     0.0991
  510   10.180   4871.46     1.2980     0.0177     0.1985     0.1018     1.3795     1.3407   162.8800     1.2166     0.0759
  511   10.200   4872.37     1.1853     0.0171     0.2276     0.1020     1.2723     1.3976   163.2000     1.1091     0.0949
  512   10.220   4873.37     1.0450     0.0187     0.2884     0.1022     1.1575     1.7108   163.5200     0.9940     0.1672
  513   10.240   4874.37     1.0729     0.0237     0.3659     0.1024     1.2200     2.3297   163.8400     1.0562     0.2342
  514   10.260   4875.30     1.4749     0.0291     0.2921     0.1026     1.6102     2.0652   164.1600     1.4460     0.1531
  515   10.280   4876.22     2.2113     0.0358     0.1762     0.1028     2.3098     1.7351   164.4800     2.1453     0.0645
  516   10.300   4877.18     3.1279     0.0348     0.1080     0.1030     3.1782     1.1632   164.8000     3.0134     0.0058
  517   10.320   4878.15     4.0530     0.0394     0.1157     0.1032     4.0993     1.0064   165.1200     3.9342     0.0017
  518   10.340   4879.21     5.9491     0.0528     0.1228     0.1034     5.9978     0.9575   165.4400     5.8324     0.0020
  519   10.360   4880.22     8.5529     0.0685     0.0861     0.1036     8.5960     0.8779   165.7600     8.4302    -0.0001
  520   10.380   4881.20    11.0138     0.0809    -0.0514     0.1038    11.0049     0.7803   166.0800    10.8388    -0.0114
  521   10.400   4882.17    12.3880     0.0891    -0.0712     0.1040    12.3602     0.7347   166.4000    12.1938    -0.0139
  522   10.420   4883.16    12.8021     0.0929    -0.0424     0.1042    12.7784     0.7281   166.7200    12.6117    -0.0127
  523   10.440   4884.11    12.5198     0.0965    -0.0179     0.1044    12.5043     0.7612   167.0400    12.3373    -0.0114
  524   10.460   4885.05    11.8970     0.0942     0.0275     0.1046    11.9017     0.7791   167.3600    11.7343    -0.0080
  525   10.480   4886.06    10.9074     0.0894     0.0594     0.1048    10.9287     0.7973   167.6800    10.7610    -0.0050
  526   10.500   4887.04     9.6885     0.0871     0.0831     0.1050     9.7212     0.8654   168.0000     9.5532    -0.0028
  527   10.520   4888.02     8.1674     0.0862     0.1039     0.1052     8.2102     1.0039   168.3200     8.0419    -0.0004
  528   10.540   4888.96     6.9507     0.0871     0.1128     0.1054     6.9953     1.1900   168.6400     6.8267     0.0001
  529   10.560   4889.88     5.8370     0.0835     0.1361     0.1056     5.8924     1.3633   168.9600     5.7234     0.0046
  530   10.580   4890.85     4.9860     0.0789     0.1417     0.1058     5.0446     1.5338   169.2800     4.8753     0.0069
  531   10.600   4891.87     4.2739     0.0711     0.1472     0.1060     4.3350     1.6034   169.6000     4.1654     0.0095
  532   10.620   4892.87     3.5273     0.0585     0.1572     0.1062     3.5909     1.5591   169.9200     3.4209     0.0133
  533   10.640   4893.80     2.9675     0.0372     0.1620     0.1064     3.0364     1.2073   170.2400     2.8661     0.0201
  534   10.660   4894.74     2.5564     0.0127     0.1808     0.1066     2.6262     0.4779   170.5600     2.4556     0.0246
  535   10.680   4895.76     1.9465     0.0066     0.2484     0.1068     2.0391     0.3226   170.8800     1.8682     0.0614
  536   10.700   4896.70     1.6748     0.0107     0.3005     0.1070     1.7966     0.6212   171.2000     1.6254     0.1128
  537   10.720   4897.69     1.5644     0.0173     0.3299     0.1072     1.7002     1.0835   171.5200     1.5286     0.1415
  538   10.740   4898.66     1.4995     0.0179     0.4191     0.1074     1.6536     1.2458   171.8400     1.4817     0.1742
  539   10.760   4899.63     2.9008     0.0166     0.5093     0.1076     3.1134     0.7293   172.1600     2.9412     0.1402
  540   10.780   4900.65     5.2844     0.0194     0.1998     0.1078     5.4391     0.4074   172.4800     5.2666     0.0510
  541   10.800   4901.63     6.1894     0.0261    -0.0822     0.1080     6.1833     0.4246   172.8000     6.0105    -0.0205
  542   10.820   4902.58     5.5347     0.0337    -0.0952     0.1082     5.4921     0.5785   173.1200     5.3190    -0.0395
  543   10.840   4903.56     4.3251     0.0411    -0.0893     0.1084     4.2880     0.8715   173.4400     4.1145    -0.0480
  544   10.860   4904.53     3.2674     0.0491    -0.0397     0.1086     3.2415     1.3717   173.7600     3.0677    -0.0554
  545   10.880   4905.52     2.6721     0.0513     0.0538     0.1088     2.6798     1.7994   174.0800     2.5057    -0.0361
  546   10.900   4906.49     2.2929     0.0488     0.1540     0.1090     2.3465     2.0317   174.4000     2.1721     0.0085
  547   10.920   4907.43     2.0242     0.0425     0.1980     0.1092     2.1016     2.0177   174.7200     1.9268     0.0391
  548   10.940   4908.36     1.7904     0.0335     0.2384     0.1094     1.8858     1.8191   175.0400     1.7108     0.0691
  549   10.960   4909.31     1.6273     0.0271     0.2488     0.1096     1.7327     1.6376   175.3600     1.5574     0.0909
  550   10.980   4910.27     1.5533     0.0191     0.2203     0.1098     1.6489     1.2166   175.6800     1.4732     0.0797
  551   11.000   4911.27     1.3711     0.0144     0.2591     0.1100     1.4703     1.0110   176.0000     1.2943     0.0981
  552   11.020   4912.27     1.2073     0.0115     0.3237     0.1102     1.3360     0.9281   176.3200     1.1596     0.1695
  553   11.040   4913.22     1.1446     0.0130     0.3625     0.1104     1.2920     1.1305   176.6400     1.1153     0.2155
  554   11.060   4914.20     1.1573     0.0119     0.3763     0.1106     1.3150     1.0437   176.9600     1.1380     0.2327
  555   11.080   4915.19     1.2656     0.0105     0.3579     0.1108     1.4183     0.8692   177.2800     1.2410     0.2040
  556   11.100   4916.17     1.4406     0.0096     0.3550     0.1110     1.5902     0.6975   177.6000     1.4126     0.1739
  557   11.120   4917.14     1.5056     0.0148     0.3743     0.1112     1.6576     0.9785   177.9200     1.4796     0.1694
  558   11.140   4918.08     1.4398     0.0151     0.4043     0.1114     1.6021     1.0464   178.2400     1.4239     0.1932
  559   11.160   4919.02     1.4707     0.0186     0.4444     0.1116     1.6547     1.2741   178.5600     1.4761     0.2211
  560   11.180   4919.97     1.6360     0.0195     0.4618     0.1118     1.8321     1.2142   178.8800     1.6532     0.2147
  561   11.200   4920.95     2.4231     0.0229     0.4680     0.1120     2.6285     1.0448   179.2000     2.4493     0.1542
  562   11.220   4921.98     3.7794     0.0264     0.2066     0.1122     3.9355     0.7998   179.5200     3.7559     0.0693
  563   11.240   4923.03     4.4731     0.0282    -0.0957     0.1124     4.4520     0.6524   179.8400     4.2722    -0.0381
  564   11.260   4923.95     4.1174     0.0324    -0.0871     0.1126     4.0736     0.7533   180.1600     3.8935    -0.0557
  565   11.280   4924.93     3.3665     0.0367     0.0076     0.1128     3.3532     1.0319   180.4800     3.1727    -0.0455
  566   11.300   4925.86     2.8138     0.0443     0.1353     0.1130     2.8535     1.4715   180.8000     2.6727    -0.0064
  567   11.320   4926.79     2.5386     0.0436     0.2405     0.1132     2.6264     1.4870   181.1200     2.4453     0.0390
  568   11.340   4927.74     2.8463     0.0428     0.2465     0.1134     2.9528     1.5025   181.4400     2.7714     0.0506
  569   11.360   4928.73     2.7316     0.0381     0.2007     0.1136     2.8229     1.3818   181.7600     2.6411     0.0392
  570   11.380   4929.77     2.7711     0.0367     0.2168     0.1138     2.8560     1.3627   182.0800     2.6739     0.0330
  571   11.400   4931.11     3.3092     0.0313     0.2729     0.1140     3.4115     0.9525   182.4000     3.2291     0.0400
  572   11.420   4947.10     5.0900     0.0351     0.2652     0.1142     5.2025     1.0376   182.7200     5.0197     0.0368
  573   11.440   4963.28     6.8610     0.0490     0.2574     0.1144     6.9702     1.4485   183.0400     6.7872     0.0245
  574   11.460   4971.57    10.2672     0.0648     0.2042     0.1146    10.3713     0.7718   183.3600    10.1880     0.0133
  575   11.480   4972.57    14.9092     0.0786    -0.1110     0.1148    14.8894     0.5317   183.6800    14.7057    -0.0109
  576   11.500   4973.57    16.8735     0.0887    -0.1440     0.1150    16.8124     0.5310   184.0000    16.6284    -0.0157
  577   11.520   4974.43    18.1801     0.0925    -0.1258     0.1152    18.1227     0.5109   184.3200    17.9384    -0.0140
  578   11.540   4975.36    18.3642     0.0947    -0.0792     0.1154    18.3232     0.5172   184.6400    18.1386    -0.0117
  579   11.560   4976.28    17.7647     0.0910    -0.0179     0.1156    17.7476     0.5017   184.9600    17.5626    -0.0089
  580   11.580   4977.18    16.6798     0.0857     0.0374     0.1158    16.6890     0.5022   185.2800    16.5037    -0.0057
  581   11.600   4978.14    15.4275     0.0837     0.0518     0.1160    15.4485     0.5308   185.6000    15.2629    -0.0043
  582   11.620   4979.02    13.9976     0.0826     0.0772     0.1162    14.0277     0.5793   185.9200    13.8418    -0.0032
  583   11.640   4980.03    12.2674     0.0884     0.0999     0.1164    12.3085     0.6997   186.2400    12.1222    -0.0015
  584   11.660   4981.01    11.4316     0.0932     0.1088     0.1166    11.4784     0.8074   186.5600    11.2919    -0.0005
  585   11.680   4982.02    11.0597     0.0972     0.1245     0.1168    11.1087     0.8751   186.8800    10.9218     0.0000
  586   11.700   4982.96    11.0001     0.1041     0.1052     0.1170    11.0466     0.9460   187.2000    10.8594    -0.0006
  587   11.720   4983.98    10.9201     0.1107     0.0854     0.1172    10.9584     1.0109   187.5200    10.7709    -0.0024
  588   11.740   4984.95    10.4723     0.1116     0.0534     0.1174    10.4980     1.0522   187.8400    10.3102    -0.0054
  589   11.760   4985.95     9.7875     0.1044     0.0512     0.1176     9.7988     1.0433   188.1600     9.6106    -0.0094
  590   11.780   4986.90     8.7787     0.0960     0.0793     0.1178     8.8130     1.0655   188.4800     8.6246    -0.0042
  591   11.800   4987.86     8.1489     0.0881     0.0764     0.1180     8.1799     1.0710   188.8000     7.9911    -0.0055
  592   11.820   4988.84     8.0838     0.0839     0.1107     0.1182     8.1234     1.0444   189.1200     7.9343    -0.0030
  593   11.840   4989.85     8.8931     0.0849     0.1293     0.1184     8.9481     1.0000   189.4400     8.7586     0.0014
  594   11.860   4990.86    10.2899     0.0918     0.1331     0.1186    10.3456     0.9370   189.7600    10.1558     0.0014
  595   11.880   4991.81    11.3667     0.0807     0.1202     0.1188    11.4181     0.7385   190.0800    11.2280     0.0003
  596   11.900   4992.78    12.4449     0.0802     0.1276     0.1190    12.4980     0.6723   190.4000    12.3076     0.0006
  597   11.920   4993.75    13.6595     0.0963     0.1124     0.1192    13.7099     0.7228   190.7200    13.5192     0.0001
  598   11.940   4994.67    14.6445     0.1077     0.0717     0.1194    14.6823     0.7553   191.0400    14.4913    -0.0020
  599   11.960   4995.65    16.0756     0.1168    -0.0751     0.1196    16.0675     0.7356   191.3600    15.8761    -0.0087
  600   11.980   4996.52    17.2420     0.1450    -0.0994     0.1198    17.1956     0.8425   191.6800    17.0040    -0.0135
  601   12.000   4997.45    17.6074     0.1598    -0.0500     0.1200    17.5772     0.9078   192.0000    17.3852    -0.0110
  602   12.020   4998.39    16.8626     0.1807     0.0496     0.1202    16.8656     1.0677   192.3200    16.6733    -0.0068
  603   12.040   4999.27    16.0928     0.1907     0.0882     0.1204    16.1291     1.1811   192.6400    15.9365    -0.0021
  604   12.060   5000.18    15.9691     0.1861     0.1313     0.1206    16.0188     1.1756   192.9600    15.8258    -0.0002
  605   12.080   5001.09    16.0606     0.1676    -0.0805     0.1208    16.0875     1.0386   193.2800    15.8942    -0.0036
  606   12.100   5002.01    17.0622     0.1382    -0.1935     0.1210    17.0094     0.8465   193.6000    16.8158    -0.0146
  607   12.120   5002.96    18.9235     0.1129    -0.2662     0.1212    18.8280     0.6229   193.9200    18.6340    -0.0187
  608   12.140   5003.87    20.3665     0.1015    -0.3223     0.1214    20.2365     0.4996   194.2400    20.0423    -0.0215
  609   12.160   5004.81    22.1330     0.1084    -0.3343     0.1216    21.9926     0.4946   194.5600    21.7981    -0.0209
  610   12.180   5005.78    23.0802     0.1036    -0.3302     0.1218    22.9412     0.4513   194.8800    22.7463    -0.0199
  611   12.200   5006.70    23.3508     0.0887    -0.3260     0.1220    23.2125     0.3799   195.2000    23.0173    -0.0196
  612   12.220   5007.59    23.0341     0.0877    -0.3197     0.1222    22.8984     0.3803   195.5200    22.7029    -0.0196
  613   12.240   5008.49    22.0402     0.1060    -0.3073     0.1224    21.9094     0.4795   195.8400    21.7135    -0.0200
  614   12.260   5009.36    19.2169     0.1295    -0.3008     0.1226    19.0909     0.6186   196.1600    18.8947    -0.0224
  615   12.280   5010.25    15.2424     0.1350    -0.3071     0.1228    15.1142     0.9132   196.4800    14.9177    -0.0289
  616   12.300   5011.15     9.9498     0.1329    -0.3113     0.1230     9.8194     1.2966   196.8000     9.6226    -0.0453
  617   12.320   5012.16     7.4059     0.1308    -0.3069     0.1232     7.2757     1.6800   197.1200     7.0786    -0.0615
  618   12.340   5013.11     5.7060     0.1279    -0.2994     0.1234     5.5780     2.1407   197.4400     5.3805    -0.0799
  619   12.360   5014.09     4.5432     0.1084    -0.2853     0.1236     4.4212     2.3324   197.7600     4.2234    -0.0981
  620   12.380   5015.24     3.9879     0.0932    -0.2004     0.1238     3.8777     2.3049   198.0800     3.6797    -0.1040
  621   12.400   5017.63     3.6263     0.0744    -0.0213     0.1240     3.5914     1.8484   198.4000     3.3930    -0.0547
  622   12.420   5020.03     3.2646     0.0538     0.1579     0.1242     3.3050     1.3383   198.7200     3.1063    -0.0053
  623   12.440   5021.58     2.8217     0.0383     0.2776     0.1244     2.9571     1.2872   199.0400     2.7581     0.0715
  624   12.460   5022.53     2.4285     0.0385     0.4864     0.1246     2.6084     1.5343   199.3600     2.4091     0.1261
  625   12.480   5023.52     2.6820     0.0413     0.4832     0.1248     2.9107     1.6259   199.6800     2.7110     0.1549
  626   12.500   5024.45     3.1759     0.0460     0.4998     0.1250     3.3935     1.5195   200.0000     3.1935     0.1231
  627   12.520   5025.45     3.4960     0.0434     0.2091     0.1252     3.6412     1.2277   200.3200     3.4409     0.0640
  628   12.540   5026.40     3.0765     0.0419     0.1159     0.1254     3.1242     1.3028   200.6400     2.9235    -0.0041
  629   12.560   5027.38     2.5663     0.0401     0.2073     0.1256     2.6341     1.4939   200.9600     2.4332     0.0152
  630   12.580   5028.36     2.1259     0.0335     0.2354     0.1258     2.2192     1.5151   201.2800     2.0179     0.0477
  631   12.600   5029.33     1.8171     0.0280     0.4245     0.1260     1.9654     1.5024   201.6000     1.7638     0.1293
  632   12.620   5030.30     1.6713     0.0269     0.5540     0.1262     1.8916     1.6151   201.9200     1.6896     0.2354
  633   12.640   5031.28     1.7216     0.0187     0.5538     0.1264     1.9556     1.0927   202.2400     1.7534     0.2456
  634   12.660   5032.27     1.7337     0.0160     0.4741     0.1266     1.9515     0.9226   202.5600     1.7490     0.2241
  635   12.680   5033.26     1.6195     0.0150     0.3917     0.1268     1.7877     0.9000   202.8800     1.5849     0.1726
  636   12.700   5034.22     1.4441     0.0152     0.4429     0.1270     1.6219     1.0077   203.2000     1.4187     0.2095
  637   12.720   5035.16     1.2823     0.0154     0.4519     0.1272     1.4815     1.1625   203.5200     1.2780     0.2714
  638   12.740   5036.09     1.1910     0.0138     0.5039     0.1274     1.3985     1.1435   203.8400     1.1947     0.3068
  639   12.760   5037.08     1.2010     0.0130     0.5389     0.1276     1.4202     1.0844   204.1600     1.2160     0.3243
  640   12.780   5038.07     1.2849     0.0140     0.5565     0.1278     1.5143     1.1254   204.4800     1.3098     0.3195
  641   12.800   5039.03     1.3936     0.0141     0.5388     0.1280     1.6223     1.0340   204.8000     1.4175     0.2939
  642   12.820   5039.96     1.4758     0.0149     0.4643     0.1282     1.6878     1.0266   205.1200     1.4827     0.2540
  643   12.840   5040.96     1.3772     0.0157     0.4640     0.1284     1.5742     1.1161   205.4400     1.3688     0.2490
  644   12.860   5041.96     1.2659     0.0173     0.5462     0.1286     1.4851     1.3118   205.7600     1.2793     0.3075
  645   12.880   5042.90     1.2014     0.0175     0.5797     0.1288     1.4410     1.4494   206.0800     1.2349     0.3578
  646   12.900   5043.82     1.1971     0.0138     0.5833     0.1290     1.4426     1.1561   206.4000     1.2362     0.3685
  647   12.920   5044.82     1.2065     0.0131     0.5976     0.1292     1.4555     1.0865   206.7200     1.2488     0.3714
  648   12.940   5045.79     1.2059     0.0135     0.6013     0.1294     1.4588     1.1154   207.0400     1.2518     0.3777
  649   12.960   5046.76     1.1993     0.0142     0.6212     0.1296     1.4550     1.1742   207.3600     1.2476     0.3841
  650   12.980   5047.74     1.1865     0.0142     0.6461     0.1298     1.4552     1.1883   207.6800     1.2475     0.4089
  651   13.000   5048.68     1.1838     0.0146     0.6511     0.1300     1.4546     1.2371   208.0000     1.2466     0.4129
  652   13.020   5049.68     1.1876     0.0151     0.6586     0.1302     1.4641     1.2731   208.3200     1.2557     0.4206
  653   13.040   5050.62     1.1866     0.0153     0.6666     0.1304     1.4637     1.2885   208.6400     1.2551     0.4218
  654   13.060   5051.58     1.1605     0.0144     0.6774     0.1306     1.4441     1.2309   208.9600     1.2352     0.4411
  655   13.080   5052.51     1.1578     0.0140     0.6816     0.1308     1.4427     1.2072   209.2800     1.2334     0.4438
  656   13.100   5053.54     1.1658     0.0137     0.6806     0.1310     1.4529     1.1816   209.6000     1.2433     0.4444
  657   13.120   5054.54     1.1945     0.0134     0.6856     0.1312     1.4824     1.1274   209.9200     1.2724     0.4356
  658   13.140   5055.50     1.2190     0.0129     0.7028     0.1314     1.5126     1.0580   210.2400     1.3023     0.4359
  659   13.160   5056.47     1.2610     0.0129     0.6803     0.1316     1.5477     1.0334   210.5600     1.3372     0.4122
  660   13.180   5057.43     1.2167     0.0124     0.6873     0.1318     1.5059     1.0175   210.8800     1.2950     0.4300
  661   13.200   5058.41     1.2204     0.0121     0.6847     0.1320     1.5033     0.9903   211.2000     1.2921     0.4190
  662   13.220   5059.42     1.1830     0.0138     0.7089     0.1322     1.4770     1.1640   211.5200     1.2655     0.4487
  663   13.240   5060.39     1.1761     0.0150     0.7180     0.1324     1.4790     1.2736   211.8400     1.2672     0.4646
  664   13.260   5061.32     1.2599     0.0145     0.7113     0.1326     1.5584     1.1878   212.1600     1.3462     0.4296
  665   13.280   5062.28     1.2913     0.0148     0.7225     0.1328     1.5937     1.1568   212.4800     1.3812     0.4252
  666   13.300   5063.24     1.3272     0.0153     0.7089     0.1330     1.6271     1.1933   212.8000     1.4143     0.4109
  667   13.320   5064.23     1.2809     0.0159     0.7350     0.1332     1.5829     1.2298   213.1200     1.3697     0.4278
  668   13.340   5065.22     1.2522     0.0023     0.7733     0.1334     1.5734     0.1840   213.4400     1.3600     0.4642
  669   13.360   5066.13     1.2659     0.0136     0.8143     0.1336     1.6028     1.0799   213.7600     1.3890     0.4813
  670   13.380   5068.28     1.3461     0.0410     0.8624     0.1338     1.6981     3.1837   214.0800     1.4840     0.4816
  671   13.400   5081.67     1.8998     0.0709     0.9327     0.1340     2.2813     5.4806   214.4000     2.0669     0.4100
  672   13.420   5095.05     2.4535     0.0971     1.0029     0.1342     2.8645     6.1995   214.7200     2.6498     0.3383
  673   13.440   5103.43     4.2572     0.1491     0.8745     0.1344     4.6929     5.2709   215.0400     4.4778     0.2048
  674   13.460   5104.38     7.0060     0.2011    -0.0304     0.1346     7.0062     4.3423   215.3600     6.7908    -0.0184
  675   13.480   5108.33     6.7518     0.2408     0.2701     0.1348     6.8747     3.3697   215.6800     6.6590     0.0239
  676   13.500   5109.34     7.4786     0.2563    -0.0849     0.1350     7.4917     3.3381   216.0000     7.2757    -0.0148
  677   13.520   5110.35     7.5042     0.2381    -0.1694     0.1352     7.4339     3.2216   216.3200     7.2175    -0.0419
  678   13.540   5112.83     8.4709     0.1990    -0.1476     0.1354     8.4057     2.6722   216.6400     8.1891    -0.0369
  679   13.560   5115.53     9.5031     0.1599    -0.1257     0.1356     9.4472     2.1229   216.9600     9.2302    -0.0304
  680   13.580   5118.09    10.5011     0.1119    -0.0980     0.1358    10.4548     1.3609   217.2800    10.2375    -0.0240
  681   13.600   5119.09    10.8608     0.0915    -0.1048     0.1360    10.8178     0.8483   217.6000    10.6002    -0.0225
  682   13.620   5120.10    10.0173     0.0931    -0.1240     0.1362     9.9751     0.8786   217.9200     9.7572    -0.0247
  683   13.640   5122.28     8.3327     0.0929    -0.1928     0.1364     8.2618     0.9209   218.2400     8.0435    -0.0460
  684   13.660   5124.46     6.6482     0.0946    -0.2615     0.1366     6.5483     0.9373   218.5600     6.3297    -0.0674
  685   13.680   5126.27     4.8099     0.0901    -0.2543     0.1368     4.6966     1.6610   218.8800     4.4777    -0.0920
  686   13.700   5127.29     3.2165     0.0862    -0.2494     0.1370     3.1141     2.4232   219.2000     2.8949    -0.1328
  687   13.720   5128.20     2.5064     0.0603    -0.2364     0.1372     2.3988     2.2908   219.5200     2.1793    -0.1807
  688   13.740   5129.14     2.1282     0.0436    -0.1058     0.1374     2.0626     1.9849   219.8400     1.8428    -0.1590
  689   13.760   5130.13     1.9111     0.0322     0.0747     0.1376     1.9152     1.6330   220.1600     1.6950    -0.0749
  690   13.780   5131.14     1.6156     0.0278     0.1170     0.1378     1.6636     1.6187   220.4800     1.4431    -0.0162
  691   13.800   5132.12     1.3882     0.0248     0.2606     0.1380     1.4626     1.7312   220.8000     1.2418     0.0318
  692   13.820   5133.08     1.3313     0.0204     0.3811     0.1382     1.4777     1.5284   221.1200     1.2565     0.1672
  693   13.840   5134.02     1.3321     0.0186     0.4610     0.1384     1.5131     1.4003   221.4400     1.2916     0.2265
  694   13.860   5134.99     1.3481     0.0198     0.5317     0.1386     1.5602     1.4711   221.7600     1.3385     0.2738
  695   13.880   5135.93     1.3770     0.0209     0.6030     0.1388     1.6215     1.5279   222.0800     1.3994     0.3167
  696   13.900   5136.92     1.4079     0.0236     0.6595     0.1390     1.6780     1.6835   222.4000     1.4556     0.3463
  697   13.920   5137.86     1.4081     0.0254     0.7021     0.1392     1.7006     1.8074   222.7200     1.4779     0.3769
  698   13.940   5138.78     1.4331     0.0257     0.7222     0.1394     1.7318     1.8004   223.0400     1.5088     0.3790
  699   13.960   5139.79     1.4192     0.0235     0.7592     0.1396     1.7331     1.6484   223.3600     1.5097     0.4027
  700   13.980   5140.81     1.4087     0.0268     0.8102     0.1398     1.7392     1.9094   223.6800     1.5156     0.4270
  701   14.000   5141.75     1.4427     0.0307     0.8796     0.1400     1.8034     2.1621   224.0000     1.5794     0.4551
  702   14.020   5142.73     1.6015     0.0358     0.9554     0.1402     1.9911     2.3381   224.3200     1.7668     0.4459
  703   14.040   5143.68     1.8656     0.0414     0.9396     0.1404     2.2688     2.3274   224.6400     2.0442     0.4017
  704   14.060   5144.64     2.0926     0.0461     0.9231     0.1406     2.4889     2.2463   224.9600     2.2639     0.3548
  705   14.080   5145.63     2.1523     0.0503     0.9000     0.1408     2.5272     2.3377   225.2800     2.3020     0.3266
  706   14.100   5146.58     2.1532     0.0580     0.9009     0.1410     2.5288     2.7038   225.6000     2.3032     0.3271
  707   14.120   5147.56     2.1593     0.0622     0.8981     0.1412     2.5232     2.8739   225.9200     2.2973     0.3157
  708   14.140   5148.51     2.1300     0.0619     0.8931     0.1414     2.5108     2.8926   226.2400     2.2846     0.3350
  709   14.160   5149.50     2.1434     0.0619     0.7496     0.1416     2.4906     2.8884   226.5600     2.2640     0.3025
  710   14.180   5150.46     2.1631     0.0597     0.7485     0.1418     2.4713     2.7650   226.8800     2.2444     0.2637
  711   14.200   5151.42     2.1367     0.0588     0.8097     0.1420     2.4710     2.7382   227.2000     2.2438     0.2915
  712   14.220   5152.39     2.0851     0.0588     0.8181     0.1422     2.4305     2.8030   227.5200     2.2030     0.3088
  713   14.240   5153.34     2.1178     0.0600     0.8243     0.1424     2.4604     2.8540   227.8400     2.2325     0.3016
  714   14.260   5154.29     2.1651     0.0662     0.8821     0.1426     2.5255     3.0832   228.1600     2.2974     0.3114
  715   14.280   5155.31     2.6076     0.0746     0.9650     0.1428     3.0050     2.9923   228.4800     2.7765     0.2898
  716   14.300   5156.31     3.7156     0.0949     0.9048     0.1430     4.1106     2.7702   228.8000     3.8818     0.2078
  717   14.320   5157.27     5.1615     0.0981     0.7300     0.1432     5.5013     1.9996   229.1200     5.2722     0.1272
  718   14.340   5158.25     6.4673     0.0999     0.5693     0.1434     6.7216     1.6534   229.4400     6.4922     0.0717
  719   14.360   5159.23     8.5773     0.0971     0.4416     0.1436     8.7782     1.2385   229.7600     8.5485     0.0396
  720   14.380   5160.27    11.4130     0.0866     0.3025     0.1438    11.5588     0.8459   230.0800    11.3287     0.0182
  721   14.400   5161.28    13.9127     0.0757    -0.0411     0.1440    13.9463     0.5734   230.4000    13.7159    -0.0043
  722   14.420   5162.19    15.5378     0.0656    -0.0901     0.1442    15.5088     0.4244   230.7200    15.2781    -0.0139
  723   14.440   5163.16    16.8953     0.0521    -0.1849     0.1444    16.8291     0.3111   231.0400    16.5981    -0.0182
  724   14.460   5164.06    17.9142     0.0642    -0.2618     0.1446    17.8103     0.3680   231.3600    17.5790    -0.0223
  725   14.480   5165.01    18.3954     0.0812    -0.2622     0.1448    18.2813     0.4418   231.6800    18.0496    -0.0231
  726   14.500   5165.92    18.5165     0.0962    -0.2674     0.1450    18.4054     0.5194   232.0000    18.1734    -0.0225
  727   14.520   5166.80    18.0685     0.1099    -0.2613     0.1452    17.9573     0.6078   232.3200    17.7250    -0.0231
  728   14.540   5167.72    17.5363     0.1203    -0.2538     0.1454    17.4281     0.6837   232.6400    17.1955    -0.0234
  729   14.560   5168.65    17.1329     0.1307    -0.2277     0.1456    17.0328     0.7617   232.9600    16.7998    -0.0229
  730   14.580   5169.58    16.9007     0.1410    -0.1986     0.1458    16.8125     0.8336   233.2800    16.5793    -0.0215
  731   14.600   5170.49    16.7275     0.1501    -0.1597     0.1460    16.6534     0.8969   233.6000    16.4198    -0.0196
  732   14.620   5171.41    16.5764     0.1566    -0.1259     0.1462    16.5197     0.9437   233.9200    16.2858    -0.0173
  733   14.640   5172.28    16.3479     0.1561    -0.0875     0.1464    16.3044     0.9492   234.2400    16.0701    -0.0156
  734   14.660   5173.17    16.0641     0.1542    -0.0242     0.1466    16.0448     0.9591   234.5600    15.8102    -0.0122
  735   14.680   5174.10    15.7559     0.1564    -0.0154     0.1468    15.7478     0.9839   234.8800    15.5129    -0.0107
  736   14.700   5175.06    15.5420     0.1514     0.0371     0.1470    15.5521     0.9670   235.2000    15.3169    -0.0080
  737   14.720   5175.97    15.4273     0.1471     0.0514     0.1472    15.4455     0.9518   235.5200    15.2099    -0.0068
  738   14.740   5176.89    15.6109     0.1334     0.1002     0.1474    15.6444     0.8620   235.8400    15.4086    -0.0044
  739   14.760   5177.80    16.2976     0.1109     0.0839     0.1476    16.3409     0.6987   236.1600    16.1047    -0.0028
  740   14.780   5178.74    17.1787     0.1015     0.0263     0.1478    17.1962     0.5933   236.4800    16.9597    -0.0063
  741   14.800   5179.67    18.0354     0.1023    -0.0336     0.1480    18.0310     0.5776   236.8000    17.7942    -0.0089
  742   14.820   5180.58    18.7356     0.1112    -0.1306     0.1482    18.6948     0.5941   237.1200    18.4576    -0.0133
  743   14.840   5181.51    19.2834     0.1281    -0.1312     0.1484    19.2224     0.6649   237.4400    18.9850    -0.0155
  744   14.860   5182.43    19.9286     0.1449    -0.0923     0.1486    19.8833     0.7314   237.7600    19.6455    -0.0131
  745   14.880   5183.35    20.7529     0.1628    -0.0454     0.1488    20.7243     0.7961   238.0800    20.4862    -0.0106
  746   14.900   5184.25    21.4795     0.1785     0.0436     0.1490    21.4884     0.8324   238.4000    21.2500    -0.0060
  747   14.920   5185.20    21.8111     0.1931     0.0336     0.1492    21.8316     0.8863   238.7200    21.5929    -0.0046
  748   14.940   5186.10    21.8642     0.2034     0.0681     0.1494    21.8931     0.9315   239.0400    21.6540    -0.0037
  749   14.960   5186.97    21.7346     0.2085     0.0800     0.1496    21.7700     0.9571   239.3600    21.5307    -0.0030
  750   14.980   5187.93    21.6808     0.2137     0.1107     0.1498    21.7266     0.9845   239.6800    21.4870    -0.0019
  751   15.000   5188.90    21.8610     0.2099     0.1258     0.1500    21.9112     0.9660   240.0000    21.6712    -0.0014
  752   15.020   5189.82    22.3950     0.2103     0.1405     0.1502    22.4522     0.9522   240.3200    22.2119    -0.0006
  753   15.040   5190.76    23.1321     0.2138     0.1405     0.1504    23.1924     0.9270   240.6400    22.9517    -0.0003
  754   15.060   5191.67    23.8265     0.2215     0.0998     0.1506    23.8746     0.9448   240.9600    23.6336    -0.0015
  755   15.080   5192.59    24.5401     0.2262     0.0049     0.1508    24.5548     0.9339   241.2800    24.3135    -0.0048
  756   15.100   5193.55    24.9235     0.2291    -0.0242     0.1510    24.9106     0.9197   241.6000    24.6690    -0.0074
  757   15.120   5194.44    24.9560     0.2353     0.0170     0.1512    24.9613     0.9429   241.9200    24.7194    -0.0056
  758   15.140   5195.32    24.8888     0.2416     0.0684     0.1514    24.9087     0.9687   242.2400    24.6664    -0.0042
  759   15.160   5196.31    24.6277     0.2502     0.1058     0.1516    24.6708     1.0141   242.5600    24.4283    -0.0020
  760   15.180   5197.28    24.2157     0.2556     0.1089     0.1518    24.2578     1.0530   242.8800    24.0149    -0.0022
  761   15.200   5198.18    23.6677     0.2571     0.1425     0.1520    23.7208     1.0829   243.2000    23.4776    -0.0011
  762   15.220   5199.11    23.0822     0.2525     0.1159     0.1522    23.1329     1.0908   243.5200    22.8894    -0.0014
  763   15.240   5200.03    22.3612     0.2409     0.1153     0.1524    22.4083     1.0735   243.8400    22.1645    -0.0018
  764   15.260   5200.98    21.5248     0.2258     0.1293     0.1526    21.5793     1.0450   244.1600    21.3352    -0.0011
  765   15.280   5201.85    20.7245     0.2185     0.1371     0.1528    20.7815     1.0509   244.4800    20.5370    -0.0008
  766   15.300   5202.73    19.9673     0.2116     0.1256     0.1530    20.0216     1.0559   244.8000    19.7768    -0.0012
  767   15.320   5203.67    19.2312     0.2003     0.1400     0.1532    19.2866     1.0396   245.1200    19.0414    -0.0011
  768   15.340   5204.64    18.6283     0.1923     0.1383     0.1534    18.6833     1.0288   245.4400    18.4378    -0.0012
  769   15.360   5205.58    18.2775     0.1870     0.1313     0.1536    18.3308     1.0200   245.7600    18.0850    -0.0015
  770   15.380   5217.05    17.9101     0.1883     0.1284     0.1538    17.9647     1.0383   246.0800    17.7187    -0.0013
  771   15.400   5237.34    17.5014     0.1995     0.1236     0.1540    17.5540     1.1002   246.4000    17.3076    -0.0017
  772   15.420   5253.69    17.0195     0.1998     0.1306     0.1542    17.0720     1.1309   246.7200    16.8253    -0.0017
  773   15.440   5254.62    16.2704     0.1911     0.1233     0.1544    16.3240     1.1564   247.0400    16.0770    -0.0017
  774   15.460   5255.53    15.9540     0.1595     0.1330     0.1546    16.0044     0.9947   247.3600    15.7570    -0.0022
  775   15.480   5256.48    16.7305     0.1034     0.0661     0.1548    16.7784     0.6384   247.6800    16.5307    -0.0025
  776   15.500   5257.38    18.5016     0.0684    -0.1235     0.1550    18.4792     0.3887   248.0000    18.2312    -0.0114
  777   15.520   5258.35    19.9950     0.0538    -0.2738     0.1552    19.8965     0.2775   248.3200    19.6482    -0.0198
  778   15.540   5259.32    20.7601     0.0467    -0.3061     0.1554    20.6324     0.2286   248.6400    20.3838    -0.0225
  779   15.560   5260.22    21.6876     0.0304    -0.2895     0.1556    21.5628     0.1439   248.9600    21.3138    -0.0213
  780   15.580   5261.18    22.9054     0.0223    -0.2607     0.1558    22.7871     0.1000   249.2800    22.5378    -0.0194
  781   15.600   5262.09    24.0319     0.0258    -0.2593     0.1560    23.9226     0.1094   249.6000    23.6730    -0.0176
  782   15.620   5263.08    25.3735     0.0361    -0.2598     0.1562    25.2619     0.1427   249.9200    25.0120    -0.0169
  783   15.640   5264.00    26.0407     0.0438    -0.2378     0.1564    25.9386     0.1705   250.2400    25.6883    -0.0156
  784   15.660   5264.92    26.5662     0.0484    -0.2071     0.1566    26.4752     0.1821   250.5600    26.2246    -0.0142
  785   15.680   5265.83    26.1851     0.0488    -0.1676     0.1568    26.1083     0.1850   250.8800    25.8574    -0.0131
  786   15.700   5266.78    25.9932     0.0499    -0.1240     0.1570    25.9349     0.1910   251.2000    25.6837    -0.0115
  787   15.720   5267.66    25.2479     0.0542    -0.0780     0.1572    25.2076     0.2109   251.5200    24.9561    -0.0101
  788   15.740   5268.59    24.6375     0.0555    -0.0254     0.1574    24.6162     0.2251   251.8400    24.3644    -0.0085
  789   15.760   5269.55    23.9468     0.0513     0.0075     0.1576    23.9407     0.2114   252.1600    23.6885    -0.0073
  790   15.780   5270.45    23.2600     0.0497     0.0742     0.1578    23.2867     0.2136   252.4800    23.0342    -0.0041
  791   15.800   5271.40    22.4493     0.0519     0.0655     0.1580    22.4736     0.2308   252.8000    22.2208    -0.0045
  792   15.820   5272.34    21.5816     0.0494     0.0904     0.1582    21.6176     0.2275   253.1200    21.3645    -0.0034
  793   15.840   5273.26    20.7722     0.0467     0.1147     0.1584    20.8165     0.2240   253.4400    20.5631    -0.0026
  794   15.860   5274.17    20.1169     0.0391     0.1108     0.1586    20.1578     0.1935   253.7600    19.9041    -0.0031
  795   15.880   5275.04    19.4070     0.0324     0.1259     0.1588    19.4535     0.1665   254.0800    19.1994    -0.0025
  796   15.900   5275.96    18.5883     0.0311     0.1048     0.1590    18.6369     0.1667   254.4000    18.3825    -0.0024
  797   15.920   5276.87    18.1769     0.0305     0.0817     0.1592    18.2155     0.1666   254.7200    17.9608    -0.0037
  798   15.940   5277.79    17.8769     0.0312     0.0963     0.1594    17.9120     0.1739   255.0400    17.6569    -0.0043
  799   15.960   5278.70    17.8943     0.0306     0.1110     0.1596    17.9405     0.1711   255.3600    17.6852    -0.0028
  800   15.980   5279.62    18.0563     0.0313     0.1201     0.1598    18.1061     0.1743   255.6800    17.8504    -0.0023
  801   16.000   5280.54    18.5715     0.0334     0.1240     0.1600    18.6299     0.1804   256.0000    18.3739    -0.0011
  802   16.020   5281.48    18.9667     0.0347     0.1247     0.1602    19.0185     0.1829   256.3200    18.7622    -0.0020
  803   16.040   5282.42    19.1888     0.0350     0.1376     0.1604    19.2481     0.1826   256.6400    18.9915    -0.0010
  804   16.060   5283.31    19.2097     0.0325     0.1453     0.1606    19.2680     0.1690   256.9600    19.0110    -0.0011
  805   16.080   5284.20    19.2504     0.0361     0.1339     0.1608    19.3100     0.1878   257.2800    19.0527    -0.0010
  806   16.100   5285.12    19.2884     0.0415     0.1409     0.1610    19.3504     0.2154   257.6000    19.0928    -0.0007
  807   16.120   5286.04    19.3764     0.0386     0.1390     0.1612    19.4362     0.1990   257.9200    19.1782    -0.0010
  808   16.140   5286.95    19.1382     0.0343     0.1505     0.1614    19.2011     0.1772   258.2400    18.9429    -0.0006
  809   16.160   5287.92    18.4547     0.0337     0.1524     0.1616    18.5149     0.1820   258.5600    18.2564    -0.0010
  810   16.180   5288.80    17.8037     0.0349     0.1501     0.1618    17.8673     0.1954   258.8800    17.6084    -0.0006
  811   16.200   5289.73    17.0859     0.0343     0.1506     0.1620    17.1519     0.2006   259.2000    16.8927    -0.0003
  812   16.220   5290.61    16.6366     0.0341     0.1534     0.1622    16.7015     0.2042   259.5200    16.4420    -0.0005
  813   16.240   5291.56    16.2000     0.0346     0.1609     0.1624    16.2674     0.2132   259.8400    16.0075    -0.0001
  814   16.260   5292.48    15.7762     0.0380     0.1528     0.1626    15.8403     0.2402   260.1600    15.5802    -0.0006
  815   16.280   5293.38    15.4852     0.0388     0.1446     0.1628    15.5443     0.2506   260.4800    15.2838    -0.0014
  816   16.300   5294.29    15.1222     0.0398     0.1589     0.1630    15.1882     0.2603   260.8000    14.9274    -0.0004
  817   16.320   5295.18    14.7339     0.0402     0.1544     0.1632    14.8004     0.2691   261.1200    14.5393    -0.0003
  818   16.340   5296.10    14.2622     0.0437     0.1498     0.1634    14.3256     0.3033   261.4400    14.0642    -0.0009
  819   16.360   5297.01    13.8459     0.0401     0.1571     0.1636    13.9101     0.2874   261.7600    13.6483    -0.0008
  820   16.380   5297.97    13.1603     0.0362     0.1611     0.1638    13.2270     0.2716   262.0800    12.9649    -0.0004
  821   16.400   5298.95    12.5813     0.0332     0.1452     0.1640    12.6416     0.2619   262.4000    12.3792    -0.0017
  822   16.420   5299.86    12.0251     0.0293     0.1120     0.1642    12.0787     0.2426   262.7200    11.8160    -0.0031
  823   16.440   5300.88    11.6392     0.0253     0.0756     0.1644    11.6748     0.2158   263.0400    11.4118    -0.0070
  824   16.460   5301.88    11.3530     0.0216     0.0580     0.1646    11.3767     0.1888   263.3600    11.1133    -0.0097
  825   16.480   5302.90    11.2207     0.0182     0.0687     0.1648    11.2413     0.1612   263.6800    10.9776    -0.0106
  826   16.500   5303.89    11.2366     0.0186     0.1087     0.1650    11.2828     0.1652   264.0000    11.0188    -0.0050
  827   16.520   5304.88    11.5095     0.0206     0.0980     0.1652    11.5487     0.1815   264.3200    11.2844    -0.0064
  828   16.540   5305.81    12.1961     0.0196     0.0801     0.1654    12.2320     0.1662   264.6400    11.9674    -0.0067
  829   16.560   5306.71    13.0457     0.0188     0.0953     0.1656    13.0867     0.1486   264.9600    12.8217    -0.0053
  830   16.580   5307.66    14.2989     0.0199     0.0948     0.1658    14.3396     0.1446   265.2800    14.0743    -0.0049
  831   16.600   5308.62    15.6274     0.0228     0.0967     0.1660    15.6697     0.1513   265.6000    15.4041    -0.0042
  832   16.620   5309.56    17.1923     0.0297     0.1238     0.1662    17.2447     0.1812   265.9200    16.9788    -0.0024
  833   16.640   5310.51    19.1002     0.0385     0.1138     0.1664    19.1457     0.2120   266.2400    18.8795    -0.0031
  834   16.660   5311.45    20.9942     0.0464     0.1193     0.1666    21.0459     0.2319   266.5600    20.7794    -0.0021
  835   16.680   5312.38    22.8504     0.0533     0.1190     0.1668    22.9013     0.2359   266.8800    22.6344    -0.0020
  836   16.700   5313.29    24.4081     0.0623     0.1347     0.1670    24.4616     0.2587   267.2000    24.1944    -0.0016
  837   16.720   5314.28    25.7137     0.0676     0.1361     0.1672    25.7704     0.2675   267.5200    25.5029    -0.0013
  838   16.740   5315.16    26.3679     0.0710     0.1471     0.1674    26.4267     0.2694   267.8400    26.1588    -0.0010
  839   16.760   5316.14    26.6819     0.0717     0.1353     0.1676    26.7398     0.2689   268.1600    26.4717    -0.0011
  840   16.780   5317.04    26.9027     0.0666     0.1248     0.1678    26.9581     0.2479   268.4800    26.6896    -0.0013
  841   16.800   5317.95    26.7791     0.0575     0.1026     0.1680    26.8275     0.2144   268.8000    26.5587    -0.0020
  842   16.820   5318.87    25.7150     0.0568     0.0949     0.1682    25.7528     0.2197   269.1200    25.4837    -0.0031
  843   16.840   5319.78    24.3508     0.0605     0.0959     0.1684    24.3926     0.2447   269.4400    24.1231    -0.0029
  844   16.860   5320.65    23.0560     0.0664     0.1068     0.1686    23.0978     0.2860   269.7600    22.8281    -0.0030
  845   16.880   5321.59    22.1388     0.0716     0.1205     0.1688    22.1886     0.3225   270.0800    21.9185    -0.0023
  846   16.900   5322.46    21.5970     0.0815     0.1152     0.1690    21.6478     0.3736   270.4000    21.3774    -0.0022
  847   16.920   5323.42    21.6442     0.0831     0.1441     0.1692    21.7052     0.3853   270.7200    21.4345    -0.0011
  848   16.940   5324.37    22.1389     0.0752     0.0167     0.1694    22.1684     0.3447   271.0400    21.8974    -0.0045
  849   16.960   5325.29    22.3882     0.0777    -0.0294     0.1696    22.3749     0.3476   271.3600    22.1035    -0.0091
  850   16.980   5326.22    22.5161     0.0852    -0.0712     0.1698    22.5001     0.3795   271.6800    22.2284    -0.0094
  851   17.000   5327.17    22.5517     0.0990    -0.1444     0.1700    22.5075     0.4397   272.0000    22.2355    -0.0124
  852   17.020   5328.08    22.6747     0.1194    -0.1234     0.1702    22.6290     0.5274   272.3200    22.3567    -0.0125
  853   17.040   5329.03    22.9861     0.1436    -0.1117     0.1704    22.9430     0.6280   272.6400    22.6704    -0.0120
  854   17.060   5329.99    23.7522     0.1074    -0.1334     0.1706    23.6963     0.4544   272.9600    23.4233    -0.0130
  855   17.080   5330.90    24.8954     0.0904    -0.1642     0.1708    24.8286     0.3649   273.2800    24.5553    -0.0134
  856   17.100   5331.85    26.5385     0.0883    -0.2085     0.1710    26.4603     0.3417   273.6000    26.1867    -0.0136
  857   17.120   5332.79    29.3227     0.0850    -0.2466     0.1712    29.2240     0.3009   273.9200    28.9501    -0.0140
  858   17.140   5334.07    33.9955     0.0857    -0.2973     0.1714    33.8763     0.2702   274.2400    33.6020    -0.0136
  859   17.160   5335.98    37.1882     0.0917    -0.2766     0.1716    37.0634     0.2500   274.5600    36.7888    -0.0127
  860   17.180   5336.97    40.1182     0.1060    -0.2794     0.1718    39.9989     0.2756   274.8800    39.7240    -0.0115
  861   17.200   5337.93    42.6111     0.1224    -0.1473     0.1720    42.5337     0.2999   275.2000    42.2585    -0.0085
  862   17.220   5340.59    42.7163     0.1156    -0.1907     0.1722    42.6485     0.2776   275.5200    42.3729    -0.0079
  863   17.240   5341.63    47.3351     0.1000    -0.1799     0.1724    47.2594     0.2139   275.8400    46.9836    -0.0075
  864   17.260   5342.55    48.0265     0.0810    -0.2310     0.1726    47.9373     0.1690   276.1600    47.6612    -0.0081
  865   17.280   5343.56    47.8218     0.0922    -0.1832     0.1728    47.7332     0.1948   276.4800    47.4567    -0.0081
  866   17.300   5344.54    46.7287     0.1085    -0.2066     0.1730    46.6422     0.2321   276.8000    46.3654    -0.0082
  867   17.320   5345.50    46.0546     0.1352    -0.1732     0.1732    45.9799     0.2924   277.1200    45.7028    -0.0077
  868   17.340   5346.46    45.8423     0.1589    -0.1759     0.1734    45.7719     0.3451   277.4400    45.4944    -0.0075
  869   17.360   5347.41    45.9890     0.1821    -0.1881     0.1736    45.9081     0.3970   277.7600    45.6303    -0.0080
  870   17.380   5353.03    45.5401     0.1731    -0.1605     0.1738    45.4687     0.3765   278.0800    45.1906    -0.0076
  871   17.400   5365.40    44.4549     0.1561    -0.1331     0.1740    44.3950     0.3394   278.4000    44.1166    -0.0072
  872   17.420   5377.76    43.3697     0.1617    -0.1182     0.1742    43.3214     0.3517   278.7200    43.0426    -0.0067
  873   17.440   5380.77    43.7311     0.1517    -0.1817     0.1744    43.6652     0.3490   279.0400    43.3862    -0.0076
  874   17.460   5381.71    43.9297     0.1309    -0.2117     0.1746    43.8420     0.2958   279.3600    43.5627    -0.0088
  875   17.480   5382.67    41.9928     0.0911    -0.2202     0.1748    41.8944     0.2142   279.6800    41.6147    -0.0098
  876   17.500   5383.64    41.1932     0.0765    -0.2166     0.1750    41.1037     0.1839   280.0000    40.8237    -0.0095
  877   17.520   5384.57    40.5473     0.0648    -0.2034     0.1752    40.4618     0.1587   280.3200    40.1815    -0.0094
  878   17.540   5385.46    40.7142     0.0753    -0.1789     0.1754    40.6382     0.1851   280.6400    40.3575    -0.0088
  879   17.560   5386.49    41.2451     0.0882    -0.1950     0.1756    41.1731     0.2148   280.9600    40.8921    -0.0085
  880   17.580   5387.43    41.0811     0.0969    -0.1987     0.1758    40.9979     0.2350   281.2800    40.7166    -0.0092
  881   17.600   5388.34    40.7006     0.0944    -0.1962     0.1760    40.6183     0.2310   281.6000    40.3367    -0.0092
  882   17.620   5389.29    40.5418     0.0926    -0.1902     0.1762    40.4606     0.2282   281.9200    40.1787    -0.0092
  883   17.640   5390.27    39.7095     0.0927    -0.1755     0.1764    39.6319     0.2302   282.2400    39.3496    -0.0092
  884   17.660   5391.21    38.3876     0.0973    -0.1779     0.1766    38.3115     0.2505   282.5600    38.0289    -0.0094
  885   17.680   5392.14    37.4049     0.0974    -0.1830     0.1768    37.3297     0.2574   282.8800    37.0469    -0.0096
  886   17.700   5393.12    36.7214     0.0772    -0.1604     0.1770    36.6495     0.2088   283.2000    36.3663    -0.0096
  887   17.720   5394.06    36.2254     0.0670    -0.1471     0.1772    36.1617     0.1847   283.5200    35.8782    -0.0092
  888   17.740   5395.00    35.7977     0.0619    -0.1229     0.1774    35.7444     0.1722   283.8400    35.4606    -0.0086
  889   17.760   5395.92    35.3317     0.0639    -0.1144     0.1776    35.2816     0.1808   284.1600    34.9974    -0.0085
  890   17.780   5396.85    34.4984     0.0633    -0.1005     0.1778    34.4554     0.1831   284.4800    34.1709    -0.0082
  891   17.800   5397.77    33.5605     0.0621    -0.0948     0.1780    33.5188     0.1822   284.8000    33.2340    -0.0083
  892   17.820   5398.73    32.8077     0.0623    -0.0807     0.1782    32.7725     0.1881   285.1200    32.4873    -0.0081
  893   17.840   5399.64    32.0239     0.0599    -0.0589     0.1784    31.9961     0.1861   285.4400    31.7107    -0.0077
  894   17.860   5400.53    31.1790     0.0609    -0.0457     0.1786    31.1594     0.1923   285.7600    30.8737    -0.0073
  895   17.880   5401.43    30.7646     0.0602    -0.0195     0.1788    30.7533     0.1947   286.0800    30.4673    -0.0067
  896   17.900   5402.42    30.3320     0.0611     0.0122     0.1790    30.3359     0.1997   286.4000    30.0495    -0.0056
  897   17.920   5403.38    30.0123     0.0637     0.0245     0.1792    30.0262     0.2115   286.7200    29.7395    -0.0049
  898   17.940   5404.30    30.0515     0.0636     0.0218     0.1794    30.0557     0.2118   287.0400    29.7687    -0.0057
  899   17.960   5405.23    30.3247     0.0637     0.0492     0.1796    30.3452     0.2114   287.3600    30.0578    -0.0044
  900   17.980   5406.16    30.5499     0.0690     0.0350     0.1798    30.5685     0.2262   287.6800    30.2808    -0.0045
  901   18.000   5407.07    30.8598     0.0738     0.0496     0.1800    30.8862     0.2400   288.0000    30.5982    -0.0038
  902   18.020   5408.06    31.0714     0.0786     0.0949     0.1802    31.1130     0.2538   288.3200    30.8247    -0.0026
  903   18.040   5408.97    31.2811     0.0798     0.1145     0.1804    31.3300     0.2559   288.6400    31.0413    -0.0021
  904   18.060   5409.93    31.8556     0.0828     0.1241     0.1806    31.9084     0.2625   288.9600    31.6194    -0.0017
  905   18.080   5410.87    32.9486     0.0814     0.1557     0.1808    33.0101     0.2493   289.2800    32.7208    -0.0010
  906   18.100   5412.94    34.1075     0.0831     0.1570     0.1810    34.1733     0.2510   289.6000    33.8837    -0.0007
  907   18.120   5415.13    35.2366     0.0862     0.1584     0.1812    35.3029     0.2603   289.9200    35.0130    -0.0007
  908   18.140   5417.12    36.1728     0.0890     0.1476     0.1814    36.2381     0.2571   290.2400    35.9478    -0.0007
  909   18.160   5418.10    35.8313     0.0892     0.1493     0.1816    35.8920     0.2476   290.5600    35.6014    -0.0010
  910   18.180   5418.95    35.6195     0.0915     0.1526     0.1818    35.6841     0.2564   290.8800    35.3932    -0.0008
  911   18.200   5419.89    35.8419     0.0862     0.1545     0.1820    35.9063     0.2419   291.2000    35.6151    -0.0008
  912   18.220   5420.88    36.4240     0.0747     0.1601     0.1822    36.4875     0.2056   291.5200    36.1960    -0.0009
  913   18.240   5421.85    37.1858                0.1642     0.1824    37.2613              291.8400    36.9694    -0.0001
  914   18.260   5422.85    38.3342                0.1525     0.1826    38.3976              292.1600    38.1054    -0.0008
  915   18.280   5423.80    40.7873                0.1585     0.1828    40.8526              292.4800    40.5601    -0.0007
  916   18.300   5424.75    44.7104                0.1237     0.1830    44.7683              292.8000    44.4755    -0.0010
  917   18.320   5425.81    50.1715                0.1251     0.1832    50.2266              293.1200    49.9335    -0.0010
  918   18.333   5426.50    52.7303                           0.1833    52.7759              293.3222    52.4826    -0.0014
 
 
