

 Program UNIPLOT                         version 05.36.02
 _______________
 (c) Fugro Netherlands Marine, Nootdorp, The Netherlands


 ASCII representation of data plotted on a graph.

 This ASCII file presents data interpolated to values per fixed depth interval.
 The data are corrected for the depth-offset differences between the various 
 transducers in the penetrometer.

 The records at the start of penetration may include no values or anomalous
 values where a depth offset implies incomplete penetration of a particular
 sensor into the ground.

 The records at the end of penetration may include no values for data channels
 where the transducer did not reach this depth.

 The reference level for test values is (1) the ground surface for onshore tests and (2) the seafloor for nearshore and offshore tests.

 UNICAS data file          : CPT-1037.000                            
 Output using command file : PlotASCII.cmd

 ASCII file created at : date          :27-Apr-2022
                         time          :16:05:18
 Project number                        :20024805                                                                                            
 Date of testing                       :24-Apr-2022                                                                                         
 Location                              :Hong Kong Offshore Wind Farm Project                                                                
 Test name                             :CPT-1037
 Penetrometer                          :F7.5CKE2HAW2/B/3342
 Serial no                             :1701-3342

 Table description:
 Column ID                             :Parameter name
 ___________________________________________________________________________________
 Rec                                   :Record ID, Record ID [-]
 Depth                                 :Depth, Depth [m]
 Time                                  :Time, Time [s]
 Cone                                  :Cone Resistance, Cone Resistance [MPa]
 Friction                              :Sleeve Friction, Sleeve Friction [MPa]
 Pore 2                                :Porewater Pressure, Porewater Pressure at Shoulder [MPa]
 HydroPress                            :Hydrostatic Pressure, Hydrostatic Pressure [MPa]
 qt                                    :Total Cone Resistance, Total Cone Resistance [MPa]
 Fric_ratio                            :Friction Ratio, Friction Ratio [%]
 SigmaVert                             :Vertical stress, Vertical stress [kPa] as specified in ground model
 Qnet                                  :Net Cone Resistance, Net Cone Resistance [MPa], unit weight as specified in ground model
 Bq                                    :Porewater Pressure Ratio, Porewater Pressure Ratio [-], unit weight as specified in ground model


 Data table:
  Rec    Depth      Time       Cone   Friction     Pore 2 HydroPress         qt Fric_ratio  SigmaVert       Qnet         Bq
   No        m         s        MPa        MPa        MPa        MPa        MPa          %        kPa        MPa          -
    1    0.000   2125.22     0.0000                           0.0000     0.0000                0.0000     0.0000           
    2    0.020   2126.19     0.0161               -0.0006     0.0002     0.0163                0.3200     0.0160     0.0150
    3    0.040   2127.19     0.0136               -0.0008     0.0004     0.0131                0.6400     0.0124    -0.1390
    4    0.060   2128.22     0.0693     0.0019    -0.0003     0.0006     0.0690     3.8194     0.9600     0.0681    -0.0189
    5    0.080   2129.19     0.0546     0.0012    -0.0007     0.0008     0.0547     2.0529     1.2800     0.0534    -0.0106
    6    0.100   2130.22     0.0482     0.0005    -0.0003     0.0010     0.0480     0.9454     1.6000     0.0464    -0.0296
    7    0.120   2131.23     0.0740     0.0010    -0.0009     0.0012     0.0734     1.3521     1.9200     0.0715    -0.0378
    8    0.140   2132.18     0.0684     0.0012    -0.0001     0.0014     0.0683     1.9304     2.2400     0.0660    -0.0240
    9    0.160   2133.21     0.0610     0.0012     0.0002     0.0016     0.0604     2.0911     2.5600     0.0579    -0.0494
   10    0.180   2134.23     0.0352     0.0010     0.0020     0.0018     0.0354     2.8369     2.8800     0.0326    -0.0406
   11    0.200   2135.23     0.0252     0.0011     0.0049     0.0020     0.0272     4.1565     3.2000     0.0240     0.1181
   12    0.220   2136.23     0.0197     0.0012     0.0062     0.0022     0.0222     5.8211     3.5200     0.0187     0.2023
   13    0.240   2137.23     0.0180     0.0014     0.0066     0.0024     0.0202     7.8980     3.8400     0.0164     0.1813
   14    0.260   2138.26     0.0195     0.0012     0.0045     0.0026     0.0219     6.3450     4.1600     0.0178     0.1787
   15    0.280   2139.22     0.0238     0.0015     0.0057     0.0028     0.0258     7.3826     4.4800     0.0213     0.0994
   16    0.300   2140.23     0.0194     0.0011     0.0067     0.0030     0.0222     5.7458     4.8000     0.0174     0.2170
   17    0.320   2141.28     0.0248     0.0016     0.0060     0.0032     0.0271     6.3309     5.1200     0.0219     0.1029
   18    0.340   2142.24     0.0248     0.0014     0.0086     0.0034     0.0279     5.6311     5.4400     0.0225     0.1838
   19    0.360   2143.26     0.0233     0.0014     0.0101     0.0036     0.0273     5.8066     5.7600     0.0216     0.2816
   20    0.380   2144.28     0.0261     0.0017     0.0095     0.0038     0.0304     6.7887     6.0800     0.0243     0.2571
   21    0.400   2145.24     0.0283     0.0014     0.0104     0.0040     0.0327     5.2892     6.4000     0.0263     0.2504
   22    0.420   2146.27     0.0275     0.0016     0.0070     0.0042     0.0311     5.7543     6.7200     0.0244     0.1756
   23    0.440   2148.97     0.0141     0.0016     0.0112     0.0044     0.0201    10.9652     7.0400     0.0130     0.8132
   24    0.460   2150.54     0.0217     0.0017     0.0111     0.0046     0.0268     8.7998     7.3600     0.0194     0.4294
   25    0.480   2151.55     0.0227     0.0016     0.0104     0.0048     0.0271     6.5079     7.6800     0.0194     0.2989
   26    0.500   2152.53     0.0254     0.0017     0.0108     0.0050     0.0299     6.5115     8.0000     0.0219     0.2593
   27    0.520   2153.50     0.0269     0.0015     0.0112     0.0052     0.0315     5.2274     8.3200     0.0232     0.2531
   28    0.540   2154.57     0.0256     0.0017     0.0121     0.0054     0.0304     6.3585     8.6400     0.0218     0.2871
   29    0.560   2155.59     0.0264     0.0018     0.0121     0.0056     0.0315     7.2512     8.9600     0.0225     0.2888
   30    0.580   2156.59     0.0275     0.0017     0.0130     0.0058     0.0329     6.3870     9.2800     0.0236     0.3033
   31    0.600   2157.54     0.0260     0.0018     0.0132     0.0060     0.0315     6.9519     9.6000     0.0219     0.3274
   32    0.620   2158.54     0.0282     0.0020     0.0131     0.0062     0.0337     7.1677     9.9200     0.0238     0.2931
   33    0.640   2159.61     0.0296     0.0021     0.0136     0.0064     0.0351     6.9404    10.2400     0.0249     0.2778
   34    0.660   2160.61     0.0299     0.0018     0.0130     0.0066     0.0354     6.0405    10.5600     0.0249     0.2590
   35    0.680   2161.63     0.0283     0.0019     0.0123     0.0068     0.0335     6.5636    10.8800     0.0226     0.2480
   36    0.700   2162.61     0.0288     0.0018     0.0122     0.0070     0.0339     6.1193    11.2000     0.0227     0.2289
   37    0.720   2163.59     0.0256     0.0019     0.0134     0.0072     0.0309     7.0305    11.5200     0.0194     0.2821
   38    0.740   2164.57     0.0272     0.0018     0.0158     0.0074     0.0337     7.0188    11.8400     0.0218     0.3675
   39    0.760   2165.63     0.0300     0.0016     0.0149     0.0076     0.0365     5.6812    12.1600     0.0243     0.3196
   40    0.780   2166.63     0.0314     0.0017     0.0149     0.0078     0.0377     5.6793    12.4800     0.0252     0.2913
   41    0.800   2167.66     0.0266     0.0016     0.0149     0.0080     0.0326     5.9785    12.8000     0.0198     0.3257
   42    0.820   2168.66     0.0311     0.0018     0.0161     0.0082     0.0376     5.8173    13.1200     0.0245     0.2978
   43    0.840   2169.67     0.0282     0.0017     0.0182     0.0084     0.0355     5.9377    13.4400     0.0221     0.4091
   44    0.860   2170.61     0.0279     0.0020     0.0196     0.0086     0.0360     7.1485    13.7600     0.0222     0.4744
   45    0.880   2171.61     0.0282     0.0018     0.0202     0.0088     0.0370     6.4100    14.0800     0.0229     0.5284
   46    0.900   2172.67     0.0296     0.0015     0.0194     0.0090     0.0380     5.2737    14.4000     0.0236     0.4602
   47    0.920   2173.67     0.0291     0.0017     0.0235     0.0092     0.0385     5.7965    14.7200     0.0238     0.5513
   48    0.940   2174.62     0.0339     0.0017     0.0218     0.0094     0.0439     5.5589    15.0400     0.0289     0.4964
   49    0.960   2175.62     0.0378     0.0017     0.0223     0.0096     0.0463     5.0803    15.3600     0.0309     0.3459
   50    0.980   2176.60     0.0384     0.0016     0.0214     0.0098     0.0489     4.6017    15.6800     0.0332     0.4607
   51    1.000   2177.64     0.0429     0.0019     0.0186     0.0100     0.0500     4.7055    16.0000     0.0340     0.2040
   52    1.020   2178.62     0.0476     0.0022     0.0211     0.0102     0.0561     4.9664    16.3200     0.0398     0.2529
   53    1.040   2185.99     0.0490     0.0028     0.0191     0.0104     0.0575     5.8355    16.6400     0.0409     0.2430
   54    1.060   2200.92     0.0515     0.0029     0.0158     0.0106     0.0586     5.9670    16.9600     0.0416     0.1555
   55    1.080   2215.84     0.0539     0.0022     0.0125     0.0108     0.0596     4.6855    17.2800     0.0424     0.0679
   56    1.100   2222.35     0.0497     0.0025     0.0177     0.0110     0.0563     5.0482    17.6000     0.0387     0.1214
   57    1.120   2223.35     0.0490     0.0024     0.0291     0.0112     0.0603     4.8404    17.9200     0.0424     0.3711
   58    1.140   2224.34     0.0485     0.0019     0.0297     0.0114     0.0606     3.9476    18.2400     0.0424     0.4141
   59    1.160   2225.34     0.0470     0.0013     0.0344     0.0116     0.0611     2.8144    18.5600     0.0426     0.5174
   60    1.180   2226.36     0.0520     0.0015     0.0366     0.0118     0.0670     2.9525    18.8800     0.0482     0.4980
   61    1.200   2227.41     0.0550     0.0017     0.0355     0.0120     0.0703     3.2072    19.2000     0.0511     0.4786
   62    1.220   2228.41     0.0567     0.0018     0.0339     0.0122     0.0714     3.2392    19.5200     0.0518     0.4363
   63    1.240   2229.43     0.0610     0.0016     0.0314     0.0124     0.0750     2.6908    19.8400     0.0551     0.3789
   64    1.260   2230.43     0.0603     0.0017     0.0239     0.0126     0.0713     2.7955    20.1600     0.0512     0.2652
   65    1.280   2231.41     0.0605     0.0017     0.0278     0.0128     0.0715     2.8854    20.4800     0.0510     0.2641
   66    1.300   2232.40     0.0608     0.0015     0.0310     0.0130     0.0736     2.4480    20.8000     0.0528     0.3312
   67    1.320   2233.43     0.0667     0.0015     0.0366     0.0132     0.0816     2.2632    21.1200     0.0605     0.3693
   68    1.340   2234.43     0.0686     0.0017     0.0364     0.0134     0.0840     2.6015    21.4400     0.0626     0.3752
   69    1.360   2235.42     0.0684     0.0017     0.0297     0.0136     0.0824     2.4445    21.7600     0.0607     0.3251
   70    1.380   2236.43     0.0663     0.0019     0.0290     0.0138     0.0788     2.8541    22.0800     0.0567     0.2801
   71    1.400   2237.43     0.0622     0.0017     0.0303     0.0140     0.0746     2.6672    22.4000     0.0522     0.2975
   72    1.420   2238.44     0.0623     0.0019     0.0273     0.0142     0.0732     3.0380    22.7200     0.0505     0.2333
   73    1.440   2239.44     0.0624     0.0019     0.0356     0.0144     0.0758     2.9489    23.0400     0.0527     0.3310
   74    1.460   2240.45     0.0638     0.0018     0.0386     0.0146     0.0796     2.8120    23.3600     0.0562     0.4066
   75    1.480   2241.44     0.0667     0.0018     0.0452     0.0148     0.0847     2.6146    23.6800     0.0610     0.4597
   76    1.500   2242.44     0.0714     0.0017     0.0464     0.0150     0.0910     2.3895    24.0000     0.0670     0.4750
   77    1.520   2243.45     0.0726     0.0018     0.0430     0.0152     0.0912     2.4163    24.3200     0.0668     0.4320
   78    1.540   2244.45     0.0714     0.0018     0.0445     0.0154     0.0903     2.4703    24.6400     0.0657     0.4518
   79    1.560   2245.45     0.0727     0.0018     0.0496     0.0156     0.0928     2.5121    24.9600     0.0678     0.4752
   80    1.580   2246.42     0.0715     0.0020     0.0502     0.0158     0.0925     2.8489    25.2800     0.0672     0.5094
   81    1.600   2247.43     0.0736     0.0023     0.0493     0.0160     0.0944     3.0763    25.6000     0.0688     0.4893
   82    1.620   2248.45     0.0746     0.0025     0.0497     0.0162     0.0955     3.3971    25.9200     0.0696     0.4852
   83    1.640   2249.45     0.0739     0.0027     0.0487     0.0164     0.0944     3.6371    26.2400     0.0681     0.4758
   84    1.660   2250.46     0.0779     0.0024     0.0482     0.0166     0.0981     3.0691    26.5600     0.0715     0.4415
   85    1.680   2251.48     0.0776     0.0027     0.0528     0.0168     0.0986     3.5537    26.8800     0.0717     0.4601
   86    1.700   2252.46     0.0795     0.0026     0.0532     0.0170     0.1022     3.3571    27.2000     0.0750     0.4961
   87    1.720   2253.46     0.0798     0.0024     0.0493     0.0172     0.1007     2.9569    27.5200     0.0731     0.4451
   88    1.740   2254.45     0.0774     0.0024     0.0482     0.0174     0.0980     3.1565    27.8400     0.0702     0.4511
   89    1.760   2255.49     0.0800     0.0026     0.0513     0.0176     0.1007     3.2216    28.1600     0.0725     0.4351
   90    1.780   2256.48     0.0785     0.0023     0.0531     0.0178     0.1011     2.9417    28.4800     0.0726     0.4972
   91    1.800   2257.46     0.0799     0.0024     0.0524     0.0180     0.1019     2.9489    28.8000     0.0731     0.4707
   92    1.820   2258.43     0.0830     0.0025     0.0519     0.0182     0.1048     3.0413    29.1200     0.0756     0.4457
   93    1.840   2259.49     0.0843     0.0023     0.0566     0.0184     0.1075     2.7506    29.4400     0.0780     0.4720
   94    1.860   2260.51     0.0865     0.0023     0.0586     0.0186     0.1109     2.6607    29.7600     0.0812     0.4872
   95    1.880   2261.46     0.0902     0.0024     0.0534     0.0188     0.1140     2.6941    30.0800     0.0839     0.4514
   96    1.900   2262.44     0.0908     0.0022     0.0515     0.0190     0.1128     2.4414    30.4000     0.0824     0.4074
   97    1.920   2263.47     0.0918     0.0024     0.0513     0.0192     0.1125     2.5796    30.7200     0.0818     0.3671
   98    1.940   2264.45     0.0960     0.0025     0.0570     0.0194     0.1193     2.5525    31.0400     0.0883     0.4107
   99    1.960   2265.40     0.0973     0.0027     0.0568     0.0196     0.1210     2.7762    31.3600     0.0896     0.4104
  100    1.980   2266.43     0.1017     0.0021     0.0538     0.0198     0.1247     2.0799    31.6800     0.0930     0.3749
  101    2.000   2267.47     0.1068     0.0027     0.0552     0.0200     0.1295     2.5560    32.0000     0.0975     0.3502
  102    2.020   2268.48     0.1136     0.0028     0.0583     0.0202     0.1381     2.4720    32.3200     0.1058     0.3614
  103    2.040   2269.44     0.1159     0.0033     0.0502     0.0204     0.1380     2.8665    32.6400     0.1054     0.3055
  104    2.060   2270.44     0.1182     0.0035     0.0519     0.0206     0.1404     2.9892    32.9600     0.1075     0.3013
  105    2.080   2271.41     0.1229     0.0035     0.0412     0.0208     0.1421     2.9200    33.2800     0.1088     0.2288
  106    2.100   2272.43     0.1176     0.0033     0.0343     0.0210     0.1325     2.8018    33.6000     0.0989     0.1472
  107    2.120   2273.45     0.1125     0.0035     0.0415     0.0212     0.1284     3.0916    33.9200     0.0945     0.1757
  108    2.140   2274.48     0.1023     0.0031     0.0470     0.0214     0.1214     3.0156    34.2400     0.0872     0.2785
  109    2.160   2275.48     0.0948     0.0028     0.0428     0.0216     0.1117     2.9485    34.5600     0.0772     0.2430
  110    2.180   2276.48     0.0915     0.0027     0.0633     0.0218     0.1163     2.9310    34.8800     0.0815     0.4562
  111    2.200   2277.48     0.0985     0.0022     0.0672     0.0220     0.1265     2.2907    35.2000     0.0913     0.4878
  112    2.220   2278.47     0.1057     0.0023     0.0656     0.0222     0.1336     2.1632    35.5200     0.0980     0.4505
  113    2.240   2279.46     0.1059     0.0025     0.0668     0.0224     0.1337     2.3714    35.8400     0.0979     0.4468
  114    2.260   2280.49     0.1049     0.0024     0.0624     0.0226     0.1327     2.2748    36.1600     0.0965     0.4519
  115    2.280   2281.47     0.0990     0.0026     0.0496     0.0228     0.1208     2.5648    36.4800     0.0843     0.3437
  116    2.300   2282.49     0.0933     0.0022     0.0503     0.0230     0.1136     2.3844    36.8000     0.0768     0.3311
  117    2.320   2283.49     0.0952     0.0028     0.0543     0.0232     0.1180     2.9871    37.1200     0.0809     0.3872
  118    2.340   2284.47     0.1028     0.0025     0.0558     0.0234     0.1253     2.5141    37.4400     0.0879     0.3441
  119    2.360   2285.46     0.1103     0.0028     0.0634     0.0236     0.1358     2.5129    37.7600     0.0980     0.3786
  120    2.380   2286.45     0.1164     0.0027     0.0565     0.0238     0.1422     2.3586    38.0800     0.1041     0.3610
  121    2.400   2287.44     0.1233     0.0028     0.0539     0.0240     0.1463     2.3056    38.4000     0.1079     0.2852
  122    2.420   2288.45     0.1280     0.0031     0.0574     0.0242     0.1503     2.3951    38.7200     0.1116     0.2596
  123    2.440   2289.42     0.1227     0.0033     0.0429     0.0244     0.1434     2.6864    39.0400     0.1044     0.2384
  124    2.460   2290.46     0.1260     0.0035     0.0582     0.0246     0.1481     2.7263    39.3600     0.1087     0.2572
  125    2.480   2291.45     0.1255     0.0031     0.0621     0.0248     0.1524     2.4542    39.6800     0.1127     0.3464
  126    2.500   2292.46     0.1258     0.0031     0.0661     0.0250     0.1528     2.4839    40.0000     0.1128     0.3495
  127    2.520   2293.44     0.1229     0.0030     0.0655     0.0252     0.1507     2.4225    40.3200     0.1104     0.3716
  128    2.540   2294.46     0.1217     0.0029     0.0687     0.0254     0.1504     2.3549    40.6400     0.1098     0.3914
  129    2.560   2295.46     0.1179     0.0028     0.0712     0.0256     0.1476     2.3556    40.9600     0.1066     0.4228
  130    2.580   2296.46     0.1160     0.0027     0.0718     0.0258     0.1461     2.3302    41.2800     0.1048     0.4373
  131    2.600   2297.45     0.1147     0.0026     0.0726     0.0260     0.1448     2.2487    41.6000     0.1032     0.4439
  132    2.620   2298.46     0.1125     0.0026     0.0697     0.0262     0.1425     2.3252    41.9200     0.1006     0.4502
  133    2.640   2299.49     0.1178     0.0026     0.0690     0.0264     0.1466     2.2279    42.2400     0.1043     0.4045
  134    2.660   2300.52     0.1182     0.0026     0.0715     0.0266     0.1481     2.1549    42.5600     0.1055     0.4214
  135    2.680   2301.49     0.1168     0.0025     0.0738     0.0268     0.1476     2.1028    42.8800     0.1047     0.4449
  136    2.700   2302.48     0.1177     0.0026     0.0692     0.0270     0.1477     2.2168    43.2000     0.1045     0.4254
  137    2.720   2303.49     0.1147     0.0027     0.0678     0.0272     0.1432     2.4107    43.5200     0.0997     0.4083
  138    2.740   2304.47     0.1179     0.0028     0.0685     0.0274     0.1467     2.3452    43.8400     0.1028     0.3995
  139    2.760   2305.46     0.1163     0.0026     0.0703     0.0276     0.1450     2.2671    44.1600     0.1009     0.4049
  140    2.780   2306.50     0.1156     0.0026     0.0732     0.0278     0.1463     2.2507    44.4800     0.1019     0.4447
  141    2.800   2307.52     0.1184     0.0025     0.0761     0.0280     0.1500     2.0996    44.8000     0.1052     0.4484
  142    2.820   2308.50     0.1214     0.0020     0.0795     0.0282     0.1548     1.6890    45.1200     0.1097     0.4679
  143    2.840   2309.50     0.1300     0.0019     0.0762     0.0284     0.1622     1.5230    45.4400     0.1168     0.4131
  144    2.860   2310.53     0.1360     0.0022     0.0737     0.0286     0.1672     1.6299    45.7600     0.1214     0.3767
  145    2.880   2311.51     0.1417     0.0020     0.0773     0.0288     0.1737     1.4365    46.0800     0.1277     0.3712
  146    2.900   2312.50     0.1431     0.0024     0.0783     0.0290     0.1765     1.7028    46.4000     0.1301     0.3877
  147    2.920   2313.49     0.1460     0.0027     0.0757     0.0292     0.1780     1.8594    46.7200     0.1313     0.3577
  148    2.940   2314.47     0.1444     0.0030     0.0724     0.0294     0.1750     2.0160    47.0400     0.1280     0.3404
  149    2.960   2315.45     0.1422     0.0030     0.0683     0.0296     0.1714     2.1359    47.3600     0.1241     0.3229
  150    2.980   2316.51     0.1389     0.0030     0.0670     0.0298     0.1673     2.1792    47.6800     0.1197     0.3165
  151    3.000   2317.50     0.1347     0.0031     0.0661     0.0300     0.1624     2.3040    48.0000     0.1144     0.3145
  152    3.020   2328.68     0.1341     0.0031     0.0632     0.0302     0.1611     2.2788    48.3200     0.1128     0.3009
  153    3.040   2342.79     0.1335     0.0028     0.0603     0.0304     0.1593     2.0704    48.6400     0.1106     0.2789
  154    3.060   2352.62     0.1314     0.0026     0.0686     0.0306     0.1587     1.9895    48.9600     0.1097     0.3119
  155    3.080   2353.60     0.1306     0.0028     0.0718     0.0308     0.1605     2.1750    49.2800     0.1112     0.3628
  156    3.100   2354.61     0.1250     0.0027     0.0744     0.0310     0.1550     2.1866    49.6000     0.1054     0.3841
  157    3.120   2355.63     0.1218     0.0026     0.0799     0.0312     0.1554     2.1258    49.9200     0.1055     0.4631
  158    3.140   2356.59     0.1284     0.0028     0.0752     0.0314     0.1605     2.1550    50.2400     0.1103     0.4086
  159    3.160   2357.63     0.1324     0.0026     0.0787     0.0316     0.1635     2.0011    50.5600     0.1130     0.3760
  160    3.180   2358.61     0.1287     0.0027     0.0817     0.0318     0.1636     2.0779    50.8800     0.1127     0.4565
  161    3.200   2359.63     0.1310     0.0028     0.0818     0.0320     0.1661     2.1192    51.2000     0.1149     0.4493
  162    3.220   2360.62     0.1340     0.0026     0.0778     0.0322     0.1666     1.9592    51.5200     0.1150     0.3939
  163    3.240   2361.63     0.1377     0.0026     0.0730     0.0324     0.1691     1.8766    51.8400     0.1173     0.3616
  164    3.260   2362.66     0.1410     0.0031     0.0694     0.0326     0.1697     2.2225    52.1600     0.1175     0.3044
  165    3.280   2363.64     0.1460     0.0032     0.0716     0.0328     0.1763     2.1988    52.4800     0.1238     0.3178
  166    3.300   2364.64     0.1490     0.0032     0.0681     0.0330     0.1781     2.1453    52.8000     0.1253     0.2891
  167    3.320   2365.62     0.1506     0.0034     0.0648     0.0332     0.1778     2.2837    53.1200     0.1246     0.2522
  168    3.340   2366.62     0.1538     0.0032     0.0690     0.0334     0.1816     2.0805    53.4400     0.1282     0.2558
  169    3.360   2367.60     0.1581     0.0028     0.0798     0.0336     0.1903     1.7988    53.7600     0.1365     0.3152
  170    3.380   2368.64     0.1569     0.0030     0.0831     0.0338     0.1924     1.9439    54.0800     0.1383     0.3655
  171    3.400   2369.62     0.1605     0.0031     0.0828     0.0340     0.1947     1.9146    54.4000     0.1403     0.3374
  172    3.420   2370.65     0.1675     0.0030     0.0881     0.0342     0.2035     1.7912    54.7200     0.1487     0.3458
  173    3.440   2371.60     0.1781     0.0031     0.0866     0.0344     0.2157     1.7784    55.0400     0.1607     0.3437
  174    3.460   2372.63     0.1908     0.0035     0.0785     0.0346     0.2251     1.8631    55.3600     0.1697     0.2777
  175    3.480   2373.67     0.1937     0.0039     0.0757     0.0348     0.2264     1.9980    55.6800     0.1707     0.2514
  176    3.500   2374.68     0.2016     0.0041     0.0666     0.0350     0.2310     2.0355    56.0000     0.1750     0.1997
  177    3.520   2375.63     0.2159     0.0045     0.0678     0.0352     0.2434     2.0748    56.3200     0.1871     0.1624
  178    3.540   2376.66     0.2196     0.0049     0.0627     0.0354     0.2478     2.2433    56.6400     0.1912     0.1666
  179    3.560   2377.68     0.2101     0.0050     0.0545     0.0356     0.2332     2.3565    56.9600     0.1762     0.1096
  180    3.580   2378.68     0.1979     0.0047     0.0457     0.0358     0.2195     2.3416    57.2800     0.1622     0.0958
  181    3.600   2379.68     0.1921     0.0051     0.0570     0.0360     0.2144     2.6631    57.6000     0.1568     0.1093
  182    3.620   2380.71     0.1787     0.0048     0.0612     0.0362     0.2041     2.6726    57.9200     0.1462     0.1673
  183    3.640   2381.72     0.1680     0.0045     0.0774     0.0364     0.1980     2.6359    58.2400     0.1398     0.2505
  184    3.660   2382.71     0.1704     0.0038     0.0834     0.0366     0.2040     2.2161    58.5600     0.1455     0.2984
  185    3.680   2383.72     0.1718     0.0036     0.0884     0.0368     0.2084     2.0917    58.8800     0.1496     0.3378
  186    3.700   2384.76     0.1734     0.0032     0.0863     0.0370     0.2097     1.8570    59.2000     0.1505     0.3294
  187    3.720   2385.72     0.1776     0.0035     0.0846     0.0372     0.2123     2.0021    59.5200     0.1528     0.2970
  188    3.740   2386.76     0.1775     0.0034     0.0858     0.0374     0.2136     1.9004    59.8400     0.1538     0.3166
  189    3.760   2387.76     0.1803     0.0032     0.0863     0.0376     0.2159     1.7727    60.1600     0.1557     0.3027
  190    3.780   2388.79     0.1806     0.0035     0.0888     0.0378     0.2174     1.9298    60.4800     0.1569     0.3175
  191    3.800   2389.75     0.1815     0.0035     0.0842     0.0380     0.2178     1.9179    60.8000     0.1570     0.3088
  192    3.820   2390.82     0.1803     0.0032     0.0823     0.0382     0.2153     1.7976    61.1200     0.1542     0.2931
  193    3.840   2391.78     0.1824     0.0034     0.0763     0.0384     0.2148     1.8817    61.4400     0.1533     0.2519
  194    3.860   2392.75     0.1800     0.0041     0.0726     0.0386     0.2110     2.2417    61.7600     0.1493     0.2354
  195    3.880   2393.83     0.1844     0.0043     0.0670     0.0388     0.2136     2.3264    62.0800     0.1515     0.2029
  196    3.900   2394.83     0.1774     0.0042     0.0630     0.0390     0.2038     2.3678    62.4000     0.1414     0.1681
  197    3.920   2395.83     0.1830     0.0044     0.0675     0.0392     0.2108     2.4303    62.7200     0.1481     0.1830
  198    3.940   2396.85     0.1918     0.0045     0.0702     0.0394     0.2213     2.3342    63.0400     0.1583     0.1956
  199    3.960   2397.82     0.1928     0.0046     0.0675     0.0396     0.2216     2.3927    63.3600     0.1582     0.1819
  200    3.980   2398.84     0.1988     0.0049     0.0594     0.0398     0.2246     2.4985    63.6800     0.1609     0.1340
  201    4.000   2399.84     0.2069     0.0046     0.0617     0.0400     0.2327     2.2435    64.0000     0.1687     0.1269
  202    4.020   2400.88     0.2092     0.0050     0.0570     0.0402     0.2335     2.3751    64.3200     0.1692     0.1050
  203    4.040   2401.85     0.2090     0.0046     0.0599     0.0404     0.2349     2.2086    64.6400     0.1702     0.1250
  204    4.060   2402.88     0.2119     0.0052     0.0574     0.0406     0.2346     2.4904    64.9600     0.1697     0.0790
  205    4.080   2403.86     0.2120     0.0054     0.0618     0.0408     0.2377     2.5730    65.2800     0.1725     0.1187
  206    4.100   2404.89     0.2163     0.0063     0.0611     0.0410     0.2431     2.9379    65.6000     0.1775     0.1294
  207    4.120   2405.91     0.2232     0.0066     0.0557     0.0412     0.2461     2.9478    65.9200     0.1801     0.0727
  208    4.140   2406.87     0.2262     0.0067     0.0401     0.0414     0.2470     2.9650    66.2400     0.1808     0.0446
  209    4.160   2407.84     0.2274     0.0065     0.0472     0.0416     0.2466     2.8523    66.5600     0.1800     0.0228
  210    4.180   2408.91     0.2322     0.0065     0.0505     0.0418     0.2535     2.8100    66.8800     0.1867     0.0481
  211    4.200   2409.91     0.2304     0.0063     0.0559     0.0420     0.2522     2.7299    67.2000     0.1850     0.0533
  212    4.220   2410.90     0.2277     0.0059     0.0570     0.0422     0.2506     2.5936    67.5200     0.1831     0.0676
  213    4.240   2411.88     0.2323     0.0056     0.0465     0.0424     0.2526     2.4190    67.8400     0.1847     0.0313
  214    4.260   2412.85     0.2337     0.0054     0.0437     0.0426     0.2509     2.3102    68.1600     0.1827    -0.0095
  215    4.280   2413.87     0.2304     0.0057     0.0427     0.0428     0.2482     2.4738    68.4800     0.1797    -0.0026
  216    4.300   2414.87     0.2293     0.0055     0.0451     0.0430     0.2479     2.4028    68.8000     0.1791     0.0074
  217    4.320   2415.88     0.2257     0.0055     0.0534     0.0432     0.2476     2.4218    69.1200     0.1785     0.0502
  218    4.340   2416.84     0.2263     0.0052     0.0473     0.0434     0.2471     2.2898    69.4400     0.1777     0.0342
  219    4.360   2417.86     0.2212     0.0053     0.0565     0.0436     0.2435     2.4108    69.7600     0.1738     0.0553
  220    4.380   2418.81     0.2205     0.0055     0.0642     0.0438     0.2469     2.4720    70.0800     0.1769     0.1084
  221    4.400   2419.81     0.2221     0.0055     0.0602     0.0440     0.2478     2.4610    70.4000     0.1774     0.0974
  222    4.420   2420.83     0.2225     0.0058     0.0653     0.0442     0.2488     2.6010    70.7200     0.1781     0.1031
  223    4.440   2421.82     0.2182     0.0056     0.0662     0.0444     0.2469     2.5526    71.0400     0.1758     0.1363
  224    4.460   2422.80     0.2086     0.0053     0.0701     0.0446     0.2365     2.5203    71.3600     0.1652     0.1334
  225    4.480   2423.81     0.1992     0.0047     0.0740     0.0448     0.2290     2.3612    71.6800     0.1573     0.1659
  226    4.500   2424.80     0.1853     0.0045     0.0842     0.0450     0.2195     2.4205    72.0000     0.1475     0.2472
  227    4.520   2425.79     0.1798     0.0043     0.0921     0.0452     0.2176     2.4065    72.3200     0.1453     0.3087
  228    4.540   2426.80     0.1777     0.0047     0.0990     0.0454     0.2178     2.6463    72.6400     0.1452     0.3454
  229    4.560   2427.82     0.1790     0.0045     0.1024     0.0456     0.2218     2.5044    72.9600     0.1488     0.3770
  230    4.580   2428.82     0.1842     0.0042     0.1055     0.0458     0.2281     2.3137    73.2800     0.1548     0.3790
  231    4.600   2429.85     0.1862     0.0047     0.1051     0.0460     0.2305     2.5115    73.6000     0.1569     0.3789
  232    4.620   2430.83     0.1817     0.0043     0.1066     0.0462     0.2263     2.3659    73.9200     0.1524     0.3939
  233    4.640   2431.77     0.1827     0.0047     0.1083     0.0464     0.2283     2.5550    74.2400     0.1541     0.4033
  234    4.660   2432.80     0.1784     0.0040     0.1120     0.0466     0.2242     2.2381    74.5600     0.1497     0.4180
  235    4.680   2433.81     0.1778     0.0039     0.1196     0.0468     0.2267     2.1752    74.8800     0.1518     0.4580
  236    4.700   2434.83     0.1768     0.0040     0.1213     0.0470     0.2274     2.2885    75.2000     0.1522     0.4833
  237    4.720   2435.83     0.1847     0.0041     0.1233     0.0472     0.2362     2.1979    75.5200     0.1607     0.4688
  238    4.740   2436.82     0.1881     0.0042     0.1244     0.0474     0.2396     2.2171    75.8400     0.1638     0.4595
  239    4.760   2437.85     0.1907     0.0043     0.1221     0.0476     0.2426     2.2499    76.1600     0.1664     0.4569
  240    4.780   2438.84     0.2007     0.0046     0.1100     0.0478     0.2499     2.3168    76.4800     0.1735     0.4012
  241    4.800   2439.86     0.2034     0.0039     0.1009     0.0480     0.2472     1.9094    76.8000     0.1704     0.3304
  242    4.820   2440.89     0.2068     0.0045     0.0987     0.0482     0.2489     2.1548    77.1200     0.1718     0.3025
  243    4.840   2441.88     0.2032     0.0043     0.0970     0.0484     0.2449     2.0844    77.4400     0.1675     0.3049
  244    4.860   2442.84     0.1987     0.0043     0.1129     0.0486     0.2443     2.1568    77.7600     0.1665     0.3599
  245    4.880   2443.83     0.1981     0.0045     0.1211     0.0488     0.2483     2.2805    78.0800     0.1703     0.4156
  246    4.900   2444.82     0.1977     0.0047     0.1230     0.0490     0.2494     2.3729    78.4000     0.1710     0.4333
  247    4.920   2445.82     0.1944     0.0043     0.1258     0.0492     0.2469     2.1905    78.7200     0.1681     0.4499
  248    4.940   2446.71     0.1992     0.0045     0.1250     0.0494     0.2514     2.2718    79.0400     0.1723     0.4347
  249    4.960   2454.29     0.2066     0.0046     0.1171     0.0496     0.2575     2.6723    79.3600     0.1781     0.4006
  250    4.980   2470.58     0.2089     0.0044     0.1056     0.0498     0.2549     2.6543    79.6800     0.1753     0.3400
  251    5.000   2480.63     0.2073     0.0039     0.1071     0.0500     0.2519     1.9532    80.0000     0.1719     0.3272
  252    5.020   2481.76     0.2012     0.0037     0.1172     0.0502     0.2486     1.8132    80.3200     0.1683     0.3725
  253    5.040   2482.70     0.2014     0.0040     0.1181     0.0504     0.2523     1.9760    80.6400     0.1716     0.4120
  254    5.060   2483.73     0.1911     0.0035     0.1119     0.0506     0.2376     1.8444    80.9600     0.1566     0.3841
  255    5.080   2484.70     0.1851     0.0035     0.1246     0.0508     0.2355     1.8951    81.2800     0.1542     0.4486
  256    5.100   2485.73     0.1882     0.0038     0.1218     0.0510     0.2415     2.0111    81.6000     0.1599     0.4751
  257    5.120   2486.71     0.1960     0.0042     0.1144     0.0512     0.2462     2.1302    81.9200     0.1643     0.4155
  258    5.140   2487.74     0.1911     0.0042     0.1143     0.0514     0.2391     2.1807    82.2400     0.1569     0.4015
  259    5.160   2488.78     0.1853     0.0045     0.1095     0.0516     0.2314     2.4210    82.5600     0.1488     0.3907
  260    5.180   2489.74     0.1886     0.0044     0.1040     0.0518     0.2362     2.3164    82.8800     0.1533     0.4021
  261    5.200   2490.82     0.1914     0.0045     0.1080     0.0520     0.2343     2.3260    83.2000     0.1511     0.3317
  262    5.220   2491.80     0.1932     0.0048     0.1141     0.0522     0.2406     2.4575    83.5200     0.1571     0.3865
  263    5.240   2492.82     0.1971     0.0050     0.1182     0.0524     0.2460     2.5429    83.8400     0.1622     0.3952
  264    5.260   2493.79     0.1976     0.0048     0.1231     0.0526     0.2488     2.4449    84.1600     0.1646     0.4207
  265    5.280   2494.78     0.2015     0.0045     0.1212     0.0528     0.2527     2.2354    84.4800     0.1682     0.4111
  266    5.300   2495.78     0.1996     0.0048     0.1206     0.0530     0.2508     2.3862    84.8000     0.1660     0.4144
  267    5.320   2496.80     0.1982     0.0045     0.1267     0.0532     0.2499     2.2581    85.1200     0.1648     0.4238
  268    5.340   2497.82     0.1966     0.0047     0.1250     0.0534     0.2507     2.4038    85.4400     0.1652     0.4561
  269    5.360   2498.81     0.1920     0.0048     0.1301     0.0536     0.2461     2.4972    85.7600     0.1603     0.4686
  270    5.380   2499.80     0.1930     0.0047     0.1346     0.0538     0.2493     2.4585    86.0800     0.1633     0.4914
  271    5.400   2500.80     0.1911     0.0047     0.1344     0.0540     0.2478     2.4442    86.4000     0.1614     0.5027
  272    5.420   2501.79     0.1935     0.0045     0.1335     0.0542     0.2502     2.3371    86.7200     0.1635     0.4935
  273    5.440   2502.80     0.1944     0.0045     0.1320     0.0544     0.2495     2.3117    87.0400     0.1625     0.4720
  274    5.460   2503.74     0.1917     0.0044     0.1314     0.0546     0.2460     2.2910    87.3600     0.1586     0.4707
  275    5.480   2504.76     0.1884     0.0042     0.1299     0.0548     0.2436     2.2233    87.6800     0.1559     0.4909
  276    5.500   2505.71     0.1877     0.0042     0.1270     0.0550     0.2408     2.2521    88.0000     0.1528     0.4672
  277    5.520   2506.74     0.1883     0.0044     0.1305     0.0552     0.2426     2.3413    88.3200     0.1543     0.4804
  278    5.540   2507.74     0.1889     0.0046     0.1288     0.0554     0.2411     2.4350    88.6400     0.1525     0.4519
  279    5.560   2508.70     0.1863     0.0044     0.1327     0.0556     0.2421     2.3662    88.9600     0.1531     0.5048
  280    5.580   2509.66     0.1968     0.0043     0.1326     0.0558     0.2526     2.2043    89.2800     0.1633     0.4727
  281    5.600   2510.66     0.1946     0.0044     0.1295     0.0560     0.2492     2.2760    89.6000     0.1596     0.4633
  282    5.620   2511.72     0.1954     0.0045     0.1267     0.0562     0.2483     2.2904    89.9200     0.1584     0.4406
  283    5.640   2512.64     0.2009     0.0045     0.1254     0.0564     0.2543     2.2433    90.2400     0.1641     0.4313
  284    5.660   2513.64     0.2098     0.0046     0.1288     0.0566     0.2638     2.2129    90.5600     0.1732     0.4150
  285    5.680   2514.62     0.2096     0.0046     0.1268     0.0568     0.2643     2.1830    90.8800     0.1734     0.4230
  286    5.700   2515.60     0.2119     0.0043     0.1176     0.0570     0.2623     2.0249    91.2000     0.1711     0.3678
  287    5.720   2516.62     0.2078     0.0046     0.1175     0.0572     0.2583     2.2160    91.5200     0.1668     0.3782
  288    5.740   2517.58     0.2055     0.0049     0.1171     0.0574     0.2531     2.4096    91.8400     0.1613     0.3477
  289    5.760   2518.57     0.2002     0.0052     0.1337     0.0576     0.2538     2.6032    92.1600     0.1617     0.4337
  290    5.780   2519.59     0.1984     0.0055     0.1369     0.0578     0.2564     2.7968    92.4800     0.1639     0.4895
  291    5.800   2520.56     0.2029     0.0054     0.1284     0.0580     0.2591     2.6839    92.8000     0.1663     0.4568
  292    5.820   2521.58     0.2049     0.0055     0.1200     0.0582     0.2551     2.6386    93.1200     0.1619     0.3787
  293    5.840   2532.94     0.2050     0.0051     0.1230     0.0584     0.2562     2.5239    93.4400     0.1628     0.3903
  294    5.860   2545.96     0.2064     0.0055     0.1260     0.0586     0.2589     2.6909    93.7600     0.1651     0.4016
  295    5.880   2558.99     0.2078     0.0052     0.1290     0.0588     0.2616     2.5649    94.0800     0.1675     0.4129
  296    5.900   2567.48     0.2076     0.0052     0.1409     0.0590     0.2645     2.5158    94.4000     0.1701     0.4497
  297    5.920   2568.11     0.2065     0.0054     0.1394     0.0592     0.2650     2.5941    94.7200     0.1703     0.4712
  298    5.940   2568.73     0.2129     0.0056     0.1442     0.0594     0.2732     2.6440    95.0400     0.1781     0.4726
  299    5.960   2569.43     0.2158     0.0054     0.1434     0.0596     0.2763     2.4962    95.3600     0.1810     0.4671
  300    5.980   2570.06     0.2156     0.0055     0.1490     0.0598     0.2774     2.5563    95.6800     0.1817     0.4807
  301    6.000   2570.70     0.2159     0.0052     0.1403     0.0600     0.2770     2.3948    96.0000     0.1810     0.4728
  302    6.020   2571.30     0.2155     0.0051     0.1394     0.0602     0.2721     2.3798    96.3200     0.1758     0.4246
  303    6.040   2571.94     0.2148     0.0052     0.1346     0.0604     0.2734     2.4118    96.6400     0.1767     0.4466
  304    6.060   2572.60     0.2205     0.0053     0.1434     0.0606     0.2793     2.4438    96.9600     0.1824     0.4360
  305    6.080   2573.24     0.2194     0.0054     0.1406     0.0608     0.2810     2.4758    97.2800     0.1837     0.4670
  306    6.100   2573.89     0.2157     0.0055     0.1329     0.0610     0.2717     2.5350    97.6000     0.1741     0.4149
  307    6.120   2574.54     0.2167     0.0058     0.1384     0.0612     0.2740     2.6509    97.9200     0.1761     0.4270
  308    6.140   2583.17     0.2161     0.0056     0.1320     0.0614     0.2724     2.6014    98.2400     0.1742     0.4169
  309    6.160   2595.53     0.2161     0.0047     0.1255     0.0616     0.2698     2.1840    98.5600     0.1712     0.3849
  310    6.180   2607.89     0.2162     0.0054     0.1191     0.0618     0.2671     2.5151    98.8800     0.1683     0.3529
  311    6.200   2614.71     0.2138     0.0052     0.1286     0.0620     0.2659     2.4159    99.2000     0.1667     0.3719
  312    6.220   2615.73     0.2012     0.0052     0.1381     0.0622     0.2583     2.5212    99.5200     0.1588     0.4646
  313    6.240   2616.76     0.2018     0.0050     0.1436     0.0624     0.2620     2.4780    99.8400     0.1621     0.4983
  314    6.260   2618.89     0.1718     0.0049     0.1537     0.0626     0.2355     2.5640   100.1600     0.1354     0.6584
  315    6.280   2619.99     0.2114     0.0047     0.1496     0.0628     0.2723     2.2335   100.4800     0.1719     0.4790
  316    6.300   2621.06     0.2187     0.0051     0.1554     0.0630     0.2837     2.3665   100.8000     0.1829     0.5018
  317    6.320   2622.04     0.2239     0.0050     0.1561     0.0632     0.2896     2.2281   101.1200     0.1885     0.4944
  318    6.340   2623.06     0.2243     0.0049     0.1466     0.0634     0.2878     2.2019   101.4400     0.1864     0.4706
  319    6.360   2624.05     0.2276     0.0052     0.1354     0.0636     0.2856     2.3042   101.7600     0.1839     0.4057
  320    6.380   2625.02     0.2322     0.0054     0.1367     0.0638     0.2895     2.3235   102.0800     0.1874     0.3879
  321    6.400   2626.03     0.2256     0.0059     0.1405     0.0640     0.2842     2.6158   102.4000     0.1818     0.4154
  322    6.420   2627.02     0.2280     0.0064     0.1416     0.0642     0.2865     2.7947   102.7200     0.1838     0.4081
  323    6.440   2628.04     0.2296     0.0059     0.1488     0.0644     0.2924     2.5998   103.0400     0.1893     0.4490
  324    6.460   2629.02     0.2306     0.0063     0.1463     0.0646     0.2920     2.7470   103.3600     0.1887     0.4327
  325    6.480   2630.01     0.2296     0.0058     0.1468     0.0648     0.2917     2.5449   103.6800     0.1880     0.4413
  326    6.500   2631.03     0.2271     0.0059     0.1389     0.0650     0.2849     2.5939   104.0000     0.1809     0.4022
  327    6.520   2632.10     0.2240     0.0059     0.1408     0.0652     0.2834     2.5994   104.3200     0.1791     0.4257
  328    6.540   2633.05     0.2208     0.0057     0.1454     0.0654     0.2804     2.5775   104.6400     0.1758     0.4350
  329    6.560   2634.10     0.2162     0.0058     0.1612     0.0656     0.2817     2.6810   104.9600     0.1767     0.5119
  330    6.580   2635.08     0.2193     0.0059     0.1518     0.0658     0.2843     2.6797   105.2800     0.1790     0.4969
  331    6.600   2636.10     0.2206     0.0056     0.1493     0.0660     0.2844     2.5336   105.6000     0.1788     0.4802
  332    6.620   2637.14     0.2333     0.0058     0.1546     0.0662     0.2964     2.5032   105.9200     0.1905     0.4412
  333    6.640   2638.12     0.2396     0.0059     0.1547     0.0664     0.3053     2.4978   106.2400     0.1990     0.4523
  334    6.660   2639.13     0.2410     0.0059     0.1578     0.0666     0.3082     2.4284   106.5600     0.2017     0.4646
  335    6.680   2640.12     0.2347     0.0064     0.1663     0.0668     0.3043     2.7247   106.8800     0.1974     0.5004
  336    6.700   2641.12     0.2443     0.0064     0.1562     0.0670     0.3086     2.6052   107.2000     0.2014     0.4269
  337    6.720   2642.13     0.2419     0.0068     0.1700     0.0672     0.3125     2.8202   107.5200     0.2050     0.4922
  338    6.740   2643.10     0.2471     0.0067     0.1647     0.0674     0.3181     2.7877   107.8400     0.2103     0.4843
  339    6.760   2644.12     0.2470     0.0063     0.1523     0.0676     0.3113     2.5364   108.1600     0.2031     0.4212
  340    6.780   2645.14     0.2462     0.0062     0.1631     0.0678     0.3126     2.4963   108.4800     0.2042     0.4434
  341    6.800   2646.12     0.2491     0.0060     0.1631     0.0680     0.3198     2.4296   108.8000     0.2110     0.4760
  342    6.820   2647.15     0.2561     0.0058     0.1775     0.0682     0.3282     2.2512   109.1200     0.2190     0.4716
  343    6.840   2648.18     0.2554     0.0056     0.1879     0.0684     0.3351     2.1873   109.4400     0.2257     0.5379
  344    6.860   2649.18     0.2658     0.0055     0.1805     0.0686     0.3438     2.0832   109.7600     0.2341     0.5007
  345    6.880   2650.18     0.2691     0.0052     0.1757     0.0688     0.3430     1.9312   110.0800     0.2329     0.4604
  346    6.900   2651.23     0.2713     0.0052     0.1802     0.0690     0.3458     1.9190   110.4000     0.2354     0.4604
  347    6.920   2652.23     0.2732     0.0053     0.1857     0.0692     0.3490     1.9612   110.7200     0.2383     0.4679
  348    6.940   2653.19     0.2716     0.0057     0.1945     0.0694     0.3529     2.1258   111.0400     0.2418     0.5136
  349    6.960   2654.21     0.2696     0.0062     0.1920     0.0696     0.3516     2.3097   111.3600     0.2403     0.5233
  350    6.980   2655.21     0.2719     0.0065     0.1914     0.0698     0.3526     2.3975   111.6800     0.2409     0.5082
  351    7.000   2656.20     0.2779     0.0063     0.1765     0.0700     0.3527     2.2652   112.0000     0.2407     0.4492
  352    7.020   2657.24     0.2769     0.0061     0.1692     0.0702     0.3497     2.2170   112.3200     0.2374     0.4347
  353    7.040   2675.16     0.2696     0.0060     0.1569     0.0704     0.3373     2.1655   112.6400     0.2247     0.4020
  354    7.060   2693.22     0.2623     0.0057     0.1527     0.0706     0.3248     2.1480   112.9600     0.2118     0.3691
  355    7.080   2695.11     0.2518     0.0059     0.1676     0.0708     0.3206     2.2877   113.2800     0.2073     0.4491
  356    7.100   2696.14     0.2562     0.0064     0.1900     0.0710     0.3343     2.4965   113.6000     0.2207     0.5197
  357    7.120   2697.17     0.2680     0.0059     0.1826     0.0712     0.3452     2.2313   113.9200     0.2313     0.4869
  358    7.140   2698.26     0.2860     0.0054     0.1598     0.0714     0.3547     1.9260   114.2400     0.2405     0.3838
  359    7.160   2699.22     0.3014     0.0062     0.1322     0.0716     0.3602     2.0612   114.5600     0.2457     0.2782
  360    7.180   2700.22     0.3042     0.0066     0.1432     0.0718     0.3645     2.1620   114.8800     0.2496     0.2874
  361    7.200   2701.18     0.3154     0.0073     0.1469     0.0720     0.3788     2.3128   115.2000     0.2636     0.2997
  362    7.220   2702.16     0.3196     0.0073     0.1397     0.0722     0.3804     2.2960   115.5200     0.2649     0.2744
  363    7.240   2703.17     0.3097     0.0072     0.1347     0.0724     0.3639     2.3299   115.8400     0.2481     0.2280
  364    7.260   2704.16     0.2959     0.0071     0.1367     0.0726     0.3540     2.3897   116.1600     0.2379     0.2770
  365    7.280   2705.23     0.2856     0.0069     0.1465     0.0728     0.3446     2.4090   116.4800     0.2281     0.2962
  366    7.300   2706.26     0.2896     0.0071     0.1576     0.0730     0.3550     2.4406   116.8000     0.2382     0.3472
  367    7.320   2707.24     0.3008     0.0076     0.1606     0.0732     0.3680     2.5220   117.1200     0.2509     0.3459
  368    7.340   2708.18     0.3058     0.0075     0.1485     0.0734     0.3720     2.4477   117.4400     0.2545     0.3302
  369    7.360   2709.19     0.3087     0.0073     0.1460     0.0736     0.3680     2.3737   117.7600     0.2502     0.2697
  370    7.380   2710.24     0.3204     0.0073     0.1471     0.0738     0.3840     2.2910   118.0800     0.2659     0.2913
  371    7.400   2711.25     0.3153     0.0077     0.1441     0.0740     0.3766     2.4302   118.4000     0.2582     0.2786
  372    7.420   2712.24     0.3110     0.0085     0.1647     0.0742     0.3741     2.7186   118.7200     0.2553     0.2972
  373    7.440   2713.22     0.3167     0.0083     0.1739     0.0744     0.3904     2.6425   119.0400     0.2713     0.3721
  374    7.460   2714.21     0.3315     0.0082     0.1652     0.0746     0.4004     2.4888   119.3600     0.2810     0.3183
  375    7.480   2715.25     0.3411     0.0086     0.1634     0.0748     0.4069     2.5134   119.6800     0.2872     0.2851
  376    7.500   2716.36     0.3359     0.0088     0.1675     0.0750     0.4064     2.6034   120.0000     0.2864     0.3242
  377    7.520   2717.25     0.3294     0.0093     0.1804     0.0752     0.4029     2.8051   120.3200     0.2826     0.3535
  378    7.540   2718.22     0.3223     0.0088     0.1866     0.0754     0.4019     2.7361   120.6400     0.2813     0.4061
  379    7.560   2719.25     0.3144     0.0085     0.1780     0.0756     0.3897     2.6881   120.9600     0.2688     0.3858
  380    7.580   2720.28     0.3077     0.0073     0.1755     0.0758     0.3837     2.3686   121.2800     0.2624     0.4005
  381    7.600   2721.23     0.3092     0.0081     0.1779     0.0760     0.3830     2.6044   121.6000     0.2614     0.3819
  382    7.620   2722.26     0.2972     0.0077     0.2009     0.0762     0.3760     2.5717   121.9200     0.2540     0.4379
  383    7.640   2723.29     0.3116     0.0081     0.2072     0.0764     0.3964     2.6127   122.2400     0.2742     0.4580
  384    7.660   2724.31     0.3142     0.0084     0.1878     0.0766     0.3945     2.6579   122.5600     0.2719     0.4209
  385    7.680   2725.29     0.3196     0.0087     0.1785     0.0768     0.3962     2.7207   122.8800     0.2734     0.3868
  386    7.700   2726.31     0.3241     0.0091     0.1848     0.0770     0.4013     2.8057   123.2000     0.2781     0.3834
  387    7.720   2727.31     0.3213     0.0093     0.1717     0.0772     0.3978     2.9040   123.5200     0.2743     0.3826
  388    7.740   2728.34     0.3211     0.0093     0.1700     0.0774     0.3930     2.8894   123.8400     0.2691     0.3485
  389    7.760   2729.30     0.3184     0.0090     0.1795     0.0776     0.3931     2.8178   124.1600     0.2689     0.3725
  390    7.780   2730.31     0.3202     0.0092     0.1807     0.0778     0.3964     2.8730   124.4800     0.2719     0.3809
  391    7.800   2731.27     0.3255     0.0093     0.1907     0.0780     0.4037     2.8559   124.8000     0.2789     0.3884
  392    7.820   2732.33     0.3312     0.0094     0.1977     0.0782     0.4147     2.8342   125.1200     0.2895     0.4161
  393    7.840   2733.32     0.3419     0.0090     0.1878     0.0784     0.4215     2.6315   125.4400     0.2960     0.3751
  394    7.860   2734.35     0.3356     0.0089     0.1866     0.0786     0.4138     2.6484   125.7600     0.2880     0.3730
  395    7.880   2735.35     0.3316     0.0091     0.1855     0.0788     0.4096     2.7515   126.0800     0.2835     0.3769
  396    7.900   2736.31     0.3350     0.0082     0.1840     0.0790     0.4126     2.4726   126.4000     0.2862     0.3690
  397    7.920   2737.32     0.3279     0.0082     0.1932     0.0792     0.4082     2.5104   126.7200     0.2815     0.3980
  398    7.940   2738.31     0.3235     0.0085     0.1884     0.0794     0.4023     2.6096   127.0400     0.2753     0.3932
  399    7.960   2739.33     0.3154     0.0087     0.1873     0.0796     0.3953     2.7559   127.3600     0.2680     0.4129
  400    7.980   2740.35     0.3203     0.0090     0.1927     0.0798     0.4017     2.7980   127.6800     0.2740     0.4158
  401    8.000   2741.37     0.3263     0.0090     0.1783     0.0800     0.4048     2.7500   128.0000     0.2768     0.3860
  402    8.020   2742.38     0.3216     0.0088     0.1996     0.0802     0.4044     2.7234   128.3200     0.2761     0.4240
  403    8.040   2743.33     0.3203     0.0087     0.1947     0.0804     0.4029     2.7099   128.6400     0.2743     0.4240
  404    8.060   2744.34     0.3158     0.0083     0.1937     0.0806     0.3973     2.6332   128.9600     0.2683     0.4227
  405    8.080   2745.38     0.3077     0.0087     0.1814     0.0808     0.3862     2.8545   129.2800     0.2570     0.4131
  406    8.100   2746.39     0.3131     0.0093     0.1881     0.0810     0.3906     2.9617   129.6000     0.2610     0.3961
  407    8.120   2747.42     0.3119     0.0093     0.1990     0.0812     0.3934     2.9965   129.9200     0.2635     0.4286
  408    8.140   2748.43     0.3163     0.0090     0.2029     0.0814     0.4016     2.8337   130.2400     0.2713     0.4478
  409    8.160   2749.43     0.3148     0.0080     0.1953     0.0816     0.3980     2.5534   130.5600     0.2675     0.4362
  410    8.180   2750.45     0.2974     0.0076     0.1969     0.0818     0.3790     2.5432   130.8800     0.2481     0.4531
  411    8.200   2751.45     0.2915     0.0075     0.1932     0.0820     0.3744     2.5540   131.2000     0.2432     0.4745
  412    8.220   2752.45     0.2902     0.0077     0.1832     0.0822     0.3686     2.6423   131.5200     0.2371     0.4404
  413    8.240   2753.44     0.2840     0.0079     0.1845     0.0824     0.3609     2.7562   131.8400     0.2290     0.4397
  414    8.260   2754.42     0.2794     0.0082     0.1885     0.0826     0.3582     2.9257   132.1600     0.2260     0.4643
  415    8.280   2755.43     0.2775     0.0083     0.1990     0.0828     0.3609     2.9788   132.4800     0.2284     0.5073
  416    8.300   2756.54     0.2813     0.0079     0.2025     0.0830     0.3635     2.8139   132.8000     0.2307     0.4884
  417    8.320   2757.50     0.2782     0.0072     0.2105     0.0832     0.3669     2.5993   133.1200     0.2338     0.5481
  418    8.340   2758.47     0.2696     0.0068     0.2085     0.0834     0.3571     2.5173   133.4400     0.2237     0.5589
  419    8.360   2759.51     0.2627     0.0066     0.1980     0.0836     0.3469     2.5162   133.7600     0.2131     0.5480
  420    8.380   2760.46     0.2762     0.0065     0.2041     0.0838     0.3598     2.3398   134.0800     0.2258     0.5107
  421    8.400   2761.45     0.2770     0.0066     0.2135     0.0840     0.3667     2.3858   134.4000     0.2323     0.5575
  422    8.420   2762.49     0.2841     0.0068     0.2040     0.0842     0.3706     2.3929   134.7200     0.2359     0.5157
  423    8.440   2763.52     0.2848     0.0068     0.1959     0.0844     0.3681     2.3715   135.0400     0.2330     0.4892
  424    8.460   2764.53     0.2882     0.0073     0.1893     0.0846     0.3686     2.5228   135.3600     0.2333     0.4585
  425    8.480   2765.51     0.2852     0.0069     0.1952     0.0848     0.3663     2.4036   135.6800     0.2306     0.4695
  426    8.500   2766.56     0.2685     0.0070     0.1963     0.0850     0.3513     2.5896   136.0000     0.2153     0.5206
  427    8.520   2767.57     0.2523     0.0071     0.1955     0.0852     0.3350     2.7939   136.3200     0.1986     0.5629
  428    8.540   2768.57     0.2539     0.0070     0.1965     0.0854     0.3347     2.7775   136.6400     0.1980     0.5407
  429    8.560   2769.60     0.2439     0.0059     0.2116     0.0856     0.3301     2.3989   136.9600     0.1931     0.6197
  430    8.580   2770.54     0.2437     0.0059     0.2244     0.0858     0.3369     2.4253   137.2800     0.1997     0.6819
  431    8.600   2771.51     0.2524     0.0058     0.2206     0.0860     0.3467     2.3281   137.6000     0.2091     0.6619
  432    8.620   2772.62     0.2654     0.0059     0.2226     0.0862     0.3567     2.2466   137.9200     0.2188     0.6001
  433    8.640   2773.63     0.2861     0.0064     0.2218     0.0864     0.3798     2.2739   138.2400     0.2416     0.5667
  434    8.660   2774.68     0.2799     0.0077     0.2045     0.0866     0.3685     2.7278   138.5600     0.2299     0.5402
  435    8.680   2775.67     0.2848     0.0076     0.1996     0.0868     0.3684     2.6470   138.8800     0.2296     0.4892
  436    8.700   2776.68     0.2864     0.0074     0.2063     0.0870     0.3727     2.5749   139.2000     0.2335     0.5068
  437    8.720   2777.67     0.3017     0.0078     0.2066     0.0872     0.3878     2.6026   139.5200     0.2483     0.4746
  438    8.740   2778.69     0.3142     0.0080     0.2123     0.0874     0.4035     2.5485   139.8400     0.2637     0.4754
  439    8.760   2779.69     0.3099     0.0084     0.2070     0.0876     0.3977     2.6985   140.1600     0.2575     0.4710
  440    8.780   2780.72     0.3048     0.0079     0.2047     0.0878     0.3906     2.6048   140.4800     0.2501     0.4655
  441    8.800   2781.64     0.2869     0.0073     0.1993     0.0880     0.3714     2.4475   140.8000     0.2306     0.4905
  442    8.820   2782.65     0.2705     0.0075     0.2054     0.0882     0.3558     2.7667   141.1200     0.2146     0.5349
  443    8.840   2783.67     0.2833     0.0077     0.2168     0.0884     0.3725     2.8552   141.4400     0.2310     0.5367
  444    8.860   2784.77     0.3102     0.0084     0.2381     0.0886     0.4078     2.7547   141.7600     0.2660     0.5402
  445    8.880   2785.78     0.3307     0.0093     0.2292     0.0888     0.4311     2.8253   142.0800     0.2890     0.5195
  446    8.900   2786.73     0.3301     0.0099     0.2210     0.0890     0.4219     2.9846   142.4000     0.2795     0.4636
  447    8.920   2787.73     0.3223     0.0099     0.2189     0.0892     0.4140     3.0738   142.7200     0.2713     0.4764
  448    8.940   2788.70     0.3173     0.0104     0.2239     0.0894     0.4099     3.2407   143.0400     0.2669     0.4910
  449    8.960   2789.80     0.3167     0.0108     0.2246     0.0896     0.4115     3.4077   143.3600     0.2681     0.5072
  450    8.980   2790.74     0.3066     0.0108     0.2338     0.0898     0.4024     3.4863   143.6800     0.2587     0.5347
  451    9.000   2791.76     0.3016     0.0106     0.2342     0.0900     0.3997     3.4709   144.0000     0.2557     0.5615
  452    9.020   2792.74     0.3067     0.0107     0.2276     0.0902     0.4020     3.4900   144.3200     0.2577     0.5304
  453    9.040   2807.53     0.3057     0.0098     0.2301     0.0904     0.4020     3.2102   144.6400     0.2573     0.5394
  454    9.060   2822.44     0.3046     0.0093     0.2326     0.0906     0.4019     3.0409   144.9600     0.2570     0.5491
  455    9.080   2831.15     0.3099     0.0093     0.2318     0.0908     0.4068     3.0443   145.2800     0.2615     0.5352
  456    9.100   2832.17     0.3118     0.0096     0.2341     0.0910     0.4095     3.1020   145.6000     0.2639     0.5364
  457    9.120   2833.22     0.3115     0.0097     0.2535     0.0912     0.4154     3.1237   145.9200     0.2695     0.5796
  458    9.140   2834.25     0.3314     0.0100     0.2545     0.0914     0.4408     3.0597   146.2400     0.2945     0.5736
  459    9.160   2835.25     0.3575     0.0097     0.2589     0.0916     0.4667     2.7194   146.5600     0.3202     0.5261
  460    9.180   2836.22     0.3632     0.0096     0.2550     0.0918     0.4701     2.6504   146.8800     0.3233     0.5035
  461    9.200   2837.26     0.3552     0.0101     0.2558     0.0920     0.4622     2.8483   147.2000     0.3150     0.5170
  462    9.220   2838.30     0.3492     0.0100     0.2452     0.0922     0.4527     2.8555   147.5200     0.3052     0.5058
  463    9.240   2839.26     0.3486     0.0101     0.2406     0.0924     0.4507     2.8977   147.8400     0.3029     0.4974
  464    9.260   2840.28     0.3494     0.0106     0.2313     0.0926     0.4485     3.0421   148.1600     0.3004     0.4776
  465    9.280   2841.26     0.3560     0.0107     0.2234     0.0928     0.4512     3.0004   148.4800     0.3027     0.4422
  466    9.300   2842.27     0.3628     0.0104     0.2468     0.0930     0.4624     2.8512   148.8000     0.3136     0.4593
  467    9.320   2843.28     0.3655     0.0102     0.2368     0.0932     0.4664     2.7913   149.1200     0.3173     0.4636
  468    9.340   2844.27     0.3685     0.0101     0.2454     0.0934     0.4713     2.7350   149.4400     0.3219     0.4700
  469    9.360   2845.29     0.3632     0.0100     0.2377     0.0936     0.4637     2.7471   149.7600     0.3139     0.4642
  470    9.380   2846.27     0.3643     0.0100     0.2337     0.0938     0.4611     2.7564   150.0800     0.3110     0.4395
  471    9.400   2847.29     0.3671     0.0100     0.2322     0.0940     0.4660     2.7209   150.4000     0.3156     0.4489
  472    9.420   2848.29     0.3810     0.0102     0.2261     0.0942     0.4755     2.6869   150.7200     0.3248     0.4033
  473    9.440   2849.31     0.3778     0.0107     0.2242     0.0944     0.4717     2.8153   151.0400     0.3206     0.4023
  474    9.460   2850.29     0.3757     0.0109     0.2228     0.0946     0.4693     2.9034   151.3600     0.3179     0.4033
  475    9.480   2851.30     0.3632     0.0105     0.2110     0.0948     0.4526     2.8623   151.6800     0.3010     0.3928
  476    9.500   2852.33     0.3540     0.0100     0.2135     0.0950     0.4435     2.8146   152.0000     0.2915     0.4054
  477    9.520   2853.31     0.3501     0.0093     0.2170     0.0952     0.4391     2.6614   152.3200     0.2868     0.4073
  478    9.540   2854.29     0.3438     0.0090     0.2175     0.0954     0.4349     2.6251   152.6400     0.2822     0.4303
  479    9.560   2855.30     0.3477     0.0091     0.2251     0.0956     0.4394     2.6123   152.9600     0.2865     0.4283
  480    9.580   2856.34     0.3600     0.0092     0.2400     0.0958     0.4594     2.5628   153.2800     0.3062     0.4606
  481    9.600   2857.33     0.3737     0.0093     0.2614     0.0960     0.4784     2.5095   153.6000     0.3248     0.4719
  482    9.620   2858.32     0.3839     0.0098     0.2735     0.0962     0.4991     2.5624   153.9200     0.3452     0.5158
  483    9.640   2859.39     0.3946     0.0105     0.2775     0.0964     0.5075     2.6731   154.2400     0.3532     0.4876
  484    9.660   2860.36     0.4008     0.0109     0.2836     0.0966     0.5202     2.7238   154.5600     0.3656     0.5130
  485    9.680   2861.34     0.3979     0.0111     0.2747     0.0968     0.5154     2.7809   154.8800     0.3605     0.5077
  486    9.700   2862.37     0.3960     0.0109     0.2767     0.0970     0.5113     2.7462   155.2000     0.3561     0.4985
  487    9.720   2863.35     0.3930     0.0116     0.2855     0.0972     0.5122     2.9314   155.5200     0.3567     0.5232
  488    9.740   2864.40     0.3821     0.0111     0.2783     0.0974     0.5001     2.8546   155.8400     0.3443     0.5333
  489    9.760   2865.37     0.3926     0.0109     0.2743     0.0976     0.5077     2.7858   156.1600     0.3515     0.5013
  490    9.780   2866.40     0.3916     0.0113     0.2748     0.0978     0.5058     2.8762   156.4800     0.3493     0.4982
  491    9.800   2867.38     0.4014     0.0111     0.2751     0.0980     0.5160     2.7808   156.8000     0.3592     0.4865
  492    9.820   2868.41     0.4030     0.0110     0.2666     0.0982     0.5148     2.7232   157.1200     0.3576     0.4693
  493    9.840   2869.45     0.4059     0.0109     0.2738     0.0984     0.5181     2.6999   157.4400     0.3606     0.4676
  494    9.860   2870.45     0.4070     0.0105     0.2869     0.0986     0.5262     2.5692   157.7600     0.3685     0.5028
  495    9.880   2871.42     0.4014     0.0105     0.2842     0.0988     0.5224     2.6200   158.0800     0.3643     0.5192
  496    9.900   2872.42     0.4046     0.0113     0.2886     0.0990     0.5241     2.7826   158.4000     0.3657     0.5072
  497    9.920   2873.42     0.3990     0.0116     0.2897     0.0992     0.5196     2.9081   158.7200     0.3609     0.5211
  498    9.940   2874.44     0.3976     0.0115     0.2763     0.0994     0.5175     2.8775   159.0400     0.3585     0.5191
  499    9.960   2875.44     0.3701     0.0114     0.2431     0.0996     0.4772     3.0769   159.3600     0.3178     0.4880
  500    9.980   2876.43     0.3652     0.0113     0.2373     0.0998     0.4650     3.1096   159.6800     0.3053     0.4514
  501   10.000   2877.46     0.3750     0.0116     0.2363     0.1000     0.4746     3.0934   160.0000     0.3146     0.4359
  502   10.020   2878.47     0.3826     0.0113     0.2515     0.1002     0.4854     2.9499   160.3200     0.3251     0.4450
  503   10.040   2879.49     0.3897     0.0114     0.2593     0.1004     0.4977     2.9194   160.6400     0.3370     0.4650
  504   10.060   2880.50     0.3890     0.0111     0.2628     0.1006     0.4982     2.8475   160.9600     0.3372     0.4724
  505   10.080   2881.48     0.4012     0.0114     0.2647     0.1008     0.5126     2.8461   161.2800     0.3514     0.4682
  506   10.100   2882.52     0.4046     0.0115     0.2687     0.1010     0.5167     2.8536   161.6000     0.3551     0.4675
  507   10.120   2883.52     0.4119     0.0112     0.2763     0.1012     0.5260     2.7175   161.9200     0.3640     0.4683
  508   10.140   2884.52     0.4088     0.0113     0.2977     0.1014     0.5321     2.7598   162.2400     0.3698     0.5197
  509   10.160   2885.54     0.4103     0.0113     0.3043     0.1016     0.5373     2.7616   162.5600     0.3748     0.5358
  510   10.180   2886.55     0.4070     0.0116     0.3100     0.1018     0.5363     2.8399   162.8800     0.3734     0.5515
  511   10.200   2887.56     0.4110     0.0113     0.3186     0.1020     0.5440     2.7414   163.2000     0.3808     0.5636
  512   10.220   2888.60     0.4076     0.0114     0.3228     0.1022     0.5417     2.7965   163.5200     0.3782     0.5742
  513   10.240   2889.61     0.4088     0.0113     0.3317     0.1024     0.5475     2.7546   163.8400     0.3837     0.5939
  514   10.260   2890.60     0.4131     0.0110     0.3284     0.1026     0.5507     2.6523   164.1600     0.3865     0.5821
  515   10.280   2891.59     0.4152     0.0111     0.3353     0.1028     0.5556     2.6779   164.4800     0.3912     0.5922
  516   10.300   2892.62     0.4167     0.0111     0.3381     0.1030     0.5584     2.6759   164.8000     0.3936     0.5958
  517   10.320   2893.62     0.4190     0.0111     0.3385     0.1032     0.5610     2.6536   165.1200     0.3959     0.5936
  518   10.340   2894.62     0.4219     0.0107     0.3396     0.1034     0.5641     2.5413   165.4400     0.3986     0.5898
  519   10.360   2895.63     0.4245     0.0107     0.3415     0.1036     0.5672     2.5158   165.7600     0.4014     0.5880
  520   10.380   2896.63     0.4293     0.0113     0.3392     0.1038     0.5726     2.6259   166.0800     0.4065     0.5840
  521   10.400   2897.66     0.4276     0.0111     0.3354     0.1040     0.5684     2.5980   166.4000     0.4020     0.5754
  522   10.420   2898.61     0.4295     0.0117     0.3388     0.1042     0.5712     2.7221   166.7200     0.4045     0.5768
  523   10.440   2899.62     0.4316     0.0114     0.3375     0.1044     0.5739     2.6552   167.0400     0.4069     0.5761
  524   10.460   2900.66     0.4319     0.0112     0.3363     0.1046     0.5728     2.5986   167.3600     0.4055     0.5694
  525   10.480   2901.65     0.4310     0.0112     0.3371     0.1048     0.5728     2.5876   167.6800     0.4051     0.5745
  526   10.500   2902.69     0.4323     0.0110     0.3395     0.1050     0.5742     2.5432   168.0000     0.4062     0.5732
  527   10.520   2903.69     0.4301     0.0107     0.3374     0.1052     0.5722     2.4862   168.3200     0.4039     0.5772
  528   10.540   2904.69     0.4281     0.0108     0.3337     0.1054     0.5693     2.5171   168.6400     0.4006     0.5757
  529   10.560   2905.65     0.4300     0.0108     0.3384     0.1056     0.5707     2.5272   168.9600     0.4017     0.5710
  530   10.580   2906.72     0.4313     0.0110     0.3402     0.1058     0.5737     2.5522   169.2800     0.4044     0.5768
  531   10.600   2907.73     0.4318     0.0115     0.3401     0.1060     0.5745     2.6714   169.6000     0.4049     0.5775
  532   10.620   2908.70     0.4306     0.0116     0.3412     0.1062     0.5735     2.6842   169.9200     0.4036     0.5797
  533   10.640   2909.75     0.4302     0.0112     0.3470     0.1064     0.5749     2.6157   170.2400     0.4047     0.5885
  534   10.660   2910.73     0.4295     0.0116     0.3492     0.1066     0.5757     2.6910   170.5600     0.4051     0.5961
  535   10.680   2911.79     0.4288     0.0114     0.3488     0.1068     0.5745     2.6550   170.8800     0.4037     0.5948
  536   10.700   2912.83     0.4295     0.0115     0.3572     0.1070     0.5782     2.6664   171.2000     0.4070     0.6072
  537   10.720   2913.79     0.4314     0.0114     0.3596     0.1072     0.5818     2.6546   171.5200     0.4102     0.6114
  538   10.740   2914.74     0.4324     0.0110     0.3548     0.1074     0.5824     2.5558   171.8400     0.4106     0.6084
  539   10.760   2915.81     0.4319     0.0109     0.3530     0.1076     0.5805     2.5348   172.1600     0.4083     0.6029
  540   10.780   2916.86     0.4336     0.0114     0.3580     0.1078     0.5837     2.6277   172.4800     0.4113     0.6071
  541   10.800   2917.85     0.4370     0.0118     0.3619     0.1080     0.5885     2.7092   172.8000     0.4157     0.6080
  542   10.820   2918.87     0.4329     0.0117     0.3672     0.1082     0.5870     2.7178   173.1200     0.4138     0.6251
  543   10.840   2919.80     0.4352     0.0116     0.3615     0.1084     0.5881     2.6674   173.4400     0.4147     0.6169
  544   10.860   2920.83     0.4407     0.0121     0.3572     0.1086     0.5895     2.7365   173.7600     0.4158     0.5912
  545   10.880   2921.85     0.4420     0.0119     0.3572     0.1088     0.5915     2.6882   174.0800     0.4174     0.5921
  546   10.900   2922.88     0.4479     0.0119     0.3590     0.1090     0.5989     2.6632   174.4000     0.4245     0.5903
  547   10.920   2923.89     0.4458     0.0124     0.3551     0.1092     0.5956     2.7793   174.7200     0.4209     0.5881
  548   10.940   2924.90     0.4477     0.0130     0.3566     0.1094     0.5971     2.9231   175.0400     0.4221     0.5835
  549   10.960   2925.84     0.4437     0.0134     0.3558     0.1096     0.5929     3.0240   175.3600     0.4175     0.5885
  550   10.980   2926.88     0.4480     0.0131     0.3554     0.1098     0.5971     2.9193   175.6800     0.4215     0.5822
  551   11.000   2927.92     0.4456     0.0126     0.3561     0.1100     0.5951     2.8306   176.0000     0.4191     0.5871
  552   11.020   2929.01     0.4447     0.0128     0.3523     0.1102     0.5953     2.8467   176.3200     0.4189     0.5928
  553   11.040   2940.85     0.4420     0.0128     0.3507     0.1104     0.5895     2.9122   176.6400     0.4129     0.5834
  554   11.060   2955.32     0.4447     0.0125     0.3516     0.1106     0.5915     2.8445   176.9600     0.4146     0.5764
  555   11.080   2956.92     0.4466     0.0121     0.3504     0.1108     0.5951     2.7046   177.2800     0.4178     0.5810
  556   11.100   2957.87     0.4439     0.0121     0.3517     0.1110     0.5914     2.7282   177.6000     0.4138     0.5802
  557   11.120   2958.84     0.4474     0.0123     0.3565     0.1112     0.5958     2.7627   177.9200     0.4179     0.5795
  558   11.140   2959.80     0.4487     0.0122     0.3564     0.1114     0.5983     2.7187   178.2400     0.4201     0.5827
  559   11.160   2960.85     0.4515     0.0124     0.3570     0.1116     0.6012     2.7566   178.5600     0.4227     0.5795
  560   11.180   2961.94     0.4551     0.0123     0.3589     0.1118     0.6049     2.7072   178.8800     0.4260     0.5747
  561   11.200   2962.95     0.4591     0.0123     0.3595     0.1120     0.6102     2.6865   179.2000     0.4310     0.5747
  562   11.220   2963.91     0.4579     0.0125     0.3568     0.1122     0.6081     2.7226   179.5200     0.4286     0.5726
  563   11.240   2964.95     0.4614     0.0125     0.3567     0.1124     0.6107     2.7248   179.8400     0.4308     0.5639
  564   11.260   2965.96     0.4604     0.0128     0.3576     0.1126     0.6101     2.7739   180.1600     0.4300     0.5671
  565   11.280   2966.95     0.4641     0.0127     0.3615     0.1128     0.6156     2.7508   180.4800     0.4351     0.5699
  566   11.300   2967.97     0.4672     0.0127     0.3615     0.1130     0.6185     2.7139   180.8000     0.4377     0.5645
  567   11.320   2968.96     0.4622     0.0125     0.3611     0.1132     0.6145     2.7075   181.1200     0.4334     0.5756
  568   11.340   2969.90     0.4714     0.0125     0.3608     0.1134     0.6231     2.6888   181.4400     0.4417     0.5611
  569   11.360   2970.89     0.4708     0.0125     0.3647     0.1136     0.6220     2.6261   181.7600     0.4402     0.5600
  570   11.380   2971.99     0.4705     0.0126     0.3623     0.1138     0.6235     2.6926   182.0800     0.4414     0.5673
  571   11.400   2972.99     0.4721     0.0128     0.3599     0.1140     0.6234     2.7131   182.4000     0.4410     0.5585
  572   11.420   2974.03     0.4719     0.0132     0.3632     0.1142     0.6237     2.7955   182.7200     0.4410     0.5608
  573   11.440   2975.01     0.4695     0.0130     0.3711     0.1144     0.6246     2.7676   183.0400     0.4415     0.5769
  574   11.460   2976.02     0.4751     0.0132     0.3684     0.1146     0.6312     2.7869   183.3600     0.4479     0.5743
  575   11.480   2977.01     0.4776     0.0130     0.3747     0.1148     0.6326     2.7157   183.6800     0.4489     0.5660
  576   11.500   2978.05     0.4734     0.0130     0.3799     0.1150     0.6323     2.7522   184.0000     0.4483     0.5874
  577   11.520   2978.96     0.4702     0.0132     0.3788     0.1152     0.6296     2.7943   184.3200     0.4453     0.5939
  578   11.540   2979.96     0.4721     0.0131     0.3795     0.1154     0.6316     2.7905   184.6400     0.4470     0.5917
  579   11.560   2980.99     0.4677     0.0128     0.3844     0.1156     0.6283     2.7401   184.9600     0.4434     0.6019
  580   11.580   2982.10     0.4793     0.0128     0.3870     0.1158     0.6415     2.6764   185.2800     0.4562     0.5928
  581   11.600   2983.08     0.4832     0.0134     0.3896     0.1160     0.6467     2.7659   185.6000     0.4611     0.5928
  582   11.620   2984.09     0.4889     0.0135     0.3916     0.1162     0.6531     2.7625   185.9200     0.4672     0.5882
  583   11.640   2985.09     0.4883     0.0135     0.3843     0.1164     0.6512     2.7679   186.2400     0.4649     0.5839
  584   11.660   2986.02     0.4932     0.0133     0.3746     0.1166     0.6514     2.6961   186.5600     0.4648     0.5594
  585   11.680   2987.07     0.4942     0.0134     0.3734     0.1168     0.6512     2.7117   186.8800     0.4643     0.5535
  586   11.700   2988.11     0.4844     0.0137     0.3809     0.1170     0.6427     2.8269   187.2000     0.4555     0.5702
  587   11.720   2989.12     0.4865     0.0139     0.3847     0.1172     0.6481     2.8673   187.5200     0.4606     0.5813
  588   11.740   2990.11     0.4916     0.0141     0.3840     0.1174     0.6533     2.8881   187.8400     0.4654     0.5749
  589   11.760   2991.08     0.4901     0.0144     0.3774     0.1176     0.6479     2.9321   188.1600     0.4598     0.5615
  590   11.780   2992.13     0.4946     0.0139     0.3856     0.1178     0.6565     2.8184   188.4800     0.4680     0.5716
  591   11.800   2993.17     0.4868     0.0136     0.3823     0.1180     0.6488     2.7918   188.8000     0.4600     0.5822
  592   11.820   2994.17     0.4873     0.0124     0.3855     0.1182     0.6485     2.5468   189.1200     0.4594     0.5782
  593   11.840   2995.20     0.5003     0.0093     0.3927     0.1184     0.6640     1.8643   189.4400     0.4746     0.5718
  594   11.860   2996.12     0.5163     0.0086     0.3908     0.1186     0.6821     1.6683   189.7600     0.4923     0.5609
  595   11.880   2997.11     0.5404     0.0105     0.4058     0.1188     0.7070     1.9559   190.0800     0.5169     0.5375
  596   11.900   2998.20     0.6332     0.0175     0.3872     0.1190     0.8006     2.8186   190.4000     0.6102     0.4588
  597   11.920   2999.18     0.9674     0.0260     0.3304     0.1192     1.1069     2.7845   190.7200     0.9162     0.2341
  598   11.940   3000.21     1.3009     0.0265     0.2104     0.1194     1.4204     2.2791   191.0400     1.2294     0.1349
  599   11.960   3001.15     1.3652     0.0265     0.1213     0.1196     1.4192     1.8896   191.3600     1.2278     0.0071
  600   11.980   3002.14     1.1151     0.0264     0.1222     0.1198     1.1669     2.1316   191.6800     0.9752     0.0036
  601   12.000   3003.18     0.8898     0.0272     0.1433     0.1200     0.9525     2.9927   192.0000     0.7605     0.0389
  602   12.020   3004.24     0.6517     0.0261     0.2560     0.1202     0.7348     3.8430   192.3200     0.5425     0.1438
  603   12.040   3005.24     0.5413     0.0223     0.3811     0.1204     0.6903     4.0698   192.6400     0.4977     0.4709
  604   12.060   3006.23     0.5247     0.0182     0.4108     0.1206     0.6943     3.4665   192.9600     0.5014     0.5649
  605   12.080   3007.28     0.5196     0.0146     0.4106     0.1208     0.6924     2.8097   193.2800     0.4992     0.5824
  606   12.100   3008.27     0.5111     0.0144     0.4109     0.1210     0.6841     2.8096   193.6000     0.4905     0.5932
  607   12.120   3009.30     0.5122     0.0141     0.4084     0.1212     0.6847     2.7499   193.9200     0.4908     0.5900
  608   12.140   3010.30     0.5161     0.0135     0.4054     0.1214     0.6860     2.6102   194.2400     0.4918     0.5758
  609   12.160   3011.29     0.5115     0.0140     0.4093     0.1216     0.6841     2.7311   194.5600     0.4895     0.5909
  610   12.180   3012.29     0.5136     0.0147     0.4167     0.1218     0.6875     2.8556   194.8800     0.4927     0.5932
  611   12.200   3013.34     0.5223     0.0147     0.4158     0.1220     0.6976     2.8315   195.2000     0.5024     0.5882
  612   12.220   3014.34     0.5391     0.0149     0.4116     0.1222     0.7135     2.7812   195.5200     0.5180     0.5657
  613   12.240   3015.34     0.5649     0.0153     0.3892     0.1224     0.7354     2.7367   195.8400     0.5395     0.5261
  614   12.260   3016.35     0.5617     0.0154     0.3500     0.1226     0.6953     2.7385   196.1600     0.4992     0.3913
  615   12.280   3017.36     0.5479     0.0152     0.4083     0.1228     0.7152     2.7719   196.4800     0.5187     0.5309
  616   12.300   3018.35     0.5416     0.0148     0.3685     0.1230     0.7070     2.7399   196.8000     0.5102     0.5303
  617   12.320   3019.37     0.5261     0.0143     0.4147     0.1232     0.6941     2.7216   197.1200     0.4970     0.5567
  618   12.340   3020.32     0.5212     0.0144     0.4244     0.1234     0.6983     2.7732   197.4400     0.5009     0.5954
  619   12.360   3021.35     0.5225     0.0142     0.4232     0.1236     0.7003     2.7232   197.7600     0.5025     0.5963
  620   12.380   3022.33     0.5230     0.0139     0.4319     0.1238     0.7023     2.6619   198.0800     0.5042     0.6010
  621   12.400   3023.41     0.5250     0.0142     0.4300     0.1240     0.7062     2.7192   198.4000     0.5078     0.6056
  622   12.420   3024.39     0.5345     0.0147     0.4304     0.1242     0.7151     2.7581   198.7200     0.5164     0.5922
  623   12.440   3025.39     0.5360     0.0136     0.4163     0.1244     0.7156     2.5505   199.0400     0.5166     0.5872
  624   12.460   3026.38     0.5426     0.0142     0.4159     0.1246     0.7178     2.6147   199.3600     0.5184     0.5641
  625   12.480   3027.41     0.5443     0.0144     0.4047     0.1248     0.7159     2.6546   199.6800     0.5163     0.5498
  626   12.500   3028.39     0.5461     0.0140     0.3921     0.1250     0.7114     2.5668   200.0000     0.5114     0.5253
  627   12.520   3029.37     0.5402     0.0139     0.4191     0.1252     0.7169     2.5900   200.3200     0.5166     0.5723
  628   12.540   3030.42     0.5491     0.0141     0.4177     0.1254     0.7241     2.5632   200.6400     0.5235     0.5567
  629   12.560   3031.44     0.5505     0.0142     0.4279     0.1256     0.7283     2.5654   200.9600     0.5273     0.5647
  630   12.580   3032.45     0.5536     0.0138     0.4329     0.1258     0.7350     2.4854   201.2800     0.5337     0.5737
  631   12.600   3033.47     0.5580     0.0137     0.4235     0.1260     0.7375     2.4576   201.6000     0.5359     0.5623
  632   12.620   3034.47     0.5517     0.0133     0.4097     0.1262     0.7243     2.4006   201.9200     0.5224     0.5452
  633   12.640   3035.46     0.5437     0.0132     0.4288     0.1264     0.7187     2.4081   202.2400     0.5165     0.5622
  634   12.660   3036.48     0.5356     0.0129     0.4357     0.1266     0.7181     2.3979   202.5600     0.5155     0.5972
  635   12.680   3037.52     0.5289     0.0127     0.4408     0.1268     0.7128     2.3936   202.8800     0.5100     0.6103
  636   12.700   3038.54     0.5237     0.0125     0.4443     0.1270     0.7119     2.3627   203.2000     0.5087     0.6312
  637   12.720   3039.57     0.5292     0.0125     0.4304     0.1272     0.7108     2.3503   203.5200     0.5073     0.6014
  638   12.740   3040.56     0.5227     0.0129     0.4371     0.1274     0.7047     2.4570   203.8400     0.5008     0.6107
  639   12.760   3041.59     0.5175     0.0127     0.4505     0.1276     0.7053     2.4617   204.1600     0.5012     0.6377
  640   12.780   3042.65     0.5227     0.0129     0.4461     0.1278     0.7114     2.4795   204.4800     0.5070     0.6345
  641   12.800   3043.65     0.5256     0.0126     0.4415     0.1280     0.7112     2.3902   204.8000     0.5064     0.6198
  642   12.820   3044.68     0.5337     0.0123     0.4320     0.1282     0.7182     2.3027   205.1200     0.5131     0.6064
  643   12.840   3045.63     0.5423     0.0116     0.4173     0.1284     0.7175     2.1250   205.4400     0.5120     0.5636
  644   12.860   3046.62     0.5406     0.0118     0.4267     0.1286     0.7185     2.1747   205.7600     0.5127     0.5750
  645   12.880   3047.65     0.5370     0.0121     0.4230     0.1288     0.7156     2.2443   206.0800     0.5096     0.5822
  646   12.900   3048.76     0.5470     0.0125     0.4227     0.1290     0.7270     2.3094   206.4000     0.5206     0.5754
  647   12.920   3049.72     0.5439     0.0121     0.4149     0.1292     0.7193     2.2378   206.7200     0.5126     0.5629
  648   12.940   3050.72     0.5536     0.0116     0.4045     0.1294     0.7270     2.1511   207.0400     0.5200     0.5451
  649   12.960   3067.11     0.5865     0.0108     0.3753     0.1296     0.7484     2.0189   207.3600     0.5410     0.4739
  650   12.980   3081.50     0.6014     0.0106     0.3626     0.1298     0.7540     1.7649   207.6800     0.5463     0.4273
  651   13.000   3082.49     0.5759     0.0102     0.3718     0.1300     0.7304     1.7431   208.0000     0.5224     0.4552
  652   13.020   3083.50     0.5547     0.0097     0.3931     0.1302     0.7155     1.7345   208.3200     0.5071     0.4985
  653   13.040   3084.51     0.5155     0.0101     0.4089     0.1304     0.6861     1.9450   208.6400     0.4775     0.5780
  654   13.060   3085.53     0.4970     0.0095     0.4185     0.1306     0.6717     1.8957   208.9600     0.4627     0.6165
  655   13.080   3086.55     0.4763     0.0091     0.4362     0.1308     0.6567     1.9049   209.2800     0.4474     0.6679
  656   13.100   3087.58     0.4906     0.0095     0.4360     0.1310     0.6751     1.9373   209.6000     0.4655     0.6627
  657   13.120   3088.55     0.5053     0.0107     0.4243     0.1312     0.6855     2.1372   209.9200     0.4756     0.6264
  658   13.140   3089.58     0.5254     0.0109     0.4118     0.1314     0.7006     2.1112   210.2400     0.4904     0.5831
  659   13.160   3090.60     0.5617     0.0105     0.3879     0.1316     0.7273     1.8792   210.5600     0.5168     0.5085
  660   13.180   3091.63     0.5968     0.0099     0.3747     0.1318     0.7555     1.6872   210.8800     0.5446     0.4518
  661   13.200   3092.60     0.5966     0.0098     0.3669     0.1320     0.7533     1.6432   211.2000     0.5421     0.4446
  662   13.220   3093.65     0.5550     0.0102     0.3823     0.1322     0.7111     1.8226   211.5200     0.4996     0.4797
  663   13.240   3094.65     0.5167     0.0100     0.4083     0.1324     0.6846     1.9253   211.8400     0.4727     0.5656
  664   13.260   3095.63     0.4892     0.0095     0.4298     0.1326     0.6674     1.9321   212.1600     0.4553     0.6412
  665   13.280   3096.70     0.4840     0.0097     0.4343     0.1328     0.6649     1.9943   212.4800     0.4524     0.6587
  666   13.300   3097.68     0.4894     0.0101     0.4383     0.1330     0.6733     2.0626   212.8000     0.4605     0.6622
  667   13.320   3098.71     0.4918     0.0104     0.4397     0.1332     0.6767     2.1114   213.1200     0.4635     0.6619
  668   13.340   3099.67     0.5037     0.0101     0.4318     0.1334     0.6862     2.0069   213.4400     0.4727     0.6367
  669   13.360   3100.64     0.5136     0.0098     0.4301     0.1336     0.6944     1.9058   213.7600     0.4807     0.6176
  670   13.380   3101.67     0.5082     0.0099     0.4195     0.1338     0.6869     1.9560   214.0800     0.4728     0.6169
  671   13.400   3102.69     0.5087     0.0103     0.4191     0.1340     0.6834     2.0147   214.4000     0.4690     0.6011
  672   13.420   3103.68     0.4957     0.0107     0.4339     0.1342     0.6765     2.1627   214.7200     0.4618     0.6419
  673   13.440   3104.68     0.5057     0.0100     0.4288     0.1344     0.6877     1.9786   215.0400     0.4726     0.6322
  674   13.460   3105.69     0.5187     0.0098     0.4136     0.1346     0.6934     1.8914   215.3600     0.4781     0.5887
  675   13.480   3106.68     0.5140     0.0101     0.4142     0.1348     0.6875     1.9642   215.6800     0.4718     0.5900
  676   13.500   3107.73     0.5091     0.0106     0.4227     0.1350     0.6872     2.0856   216.0000     0.4712     0.6132
  677   13.520   3108.69     0.5128     0.0103     0.4158     0.1352     0.6895     2.0033   216.3200     0.4731     0.6034
  678   13.540   3109.73     0.5322     0.0105     0.4110     0.1354     0.7041     1.9867   216.6400     0.4875     0.5620
  679   13.560   3110.71     0.5332     0.0100     0.4138     0.1356     0.7077     1.8831   216.9600     0.4907     0.5703
  680   13.580   3111.76     0.5399     0.0097     0.3987     0.1358     0.7084     1.8035   217.2800     0.4911     0.5402
  681   13.600   3112.79     0.5258     0.0101     0.3977     0.1360     0.6911     1.9246   217.6000     0.4735     0.5439
  682   13.620   3113.74     0.5252     0.0103     0.4168     0.1362     0.6977     1.9689   217.9200     0.4798     0.5725
  683   13.640   3114.77     0.5204     0.0097     0.4168     0.1364     0.6943     1.8563   218.2400     0.4760     0.5832
  684   13.660   3115.77     0.5251     0.0098     0.4146     0.1366     0.7006     1.8709   218.5600     0.4820     0.5832
  685   13.680   3116.80     0.5257     0.0098     0.4111     0.1368     0.6963     1.8701   218.8800     0.4774     0.5641
  686   13.700   3117.80     0.5146     0.0093     0.4166     0.1370     0.6884     1.7944   219.2000     0.4692     0.5901
  687   13.720   3118.83     0.5036     0.0095     0.4232     0.1372     0.6799     1.8943   219.5200     0.4604     0.6139
  688   13.740   3119.83     0.5059     0.0091     0.4320     0.1374     0.6872     1.8070   219.8400     0.4674     0.6297
  689   13.760   3120.83     0.5230     0.0095     0.4348     0.1376     0.7054     1.8284   220.1600     0.4852     0.6116
  690   13.780   3121.81     0.5376     0.0102     0.4353     0.1378     0.7185     1.9040   220.4800     0.4981     0.5885
  691   13.800   3122.86     0.5778     0.0104     0.4260     0.1380     0.7575     1.8085   220.8000     0.5367     0.5404
  692   13.820   3123.82     0.6296     0.0096     0.4227     0.1382     0.8075     1.5297   221.1200     0.5864     0.4868
  693   13.840   3124.84     0.6874     0.0106     0.3978     0.1384     0.8599     1.5510   221.4400     0.6384     0.4268
  694   13.860   3125.85     0.7189     0.0105     0.3707     0.1386     0.8799     1.4626   221.7600     0.6581     0.3718
  695   13.880   3126.87     0.7358     0.0101     0.3784     0.1388     0.8918     1.3743   222.0800     0.6697     0.3473
  696   13.900   3127.89     0.7181     0.0100     0.3695     0.1390     0.8758     1.3908   222.4000     0.6534     0.3617
  697   13.920   3128.88     0.7009     0.0102     0.3819     0.1392     0.8595     1.4563   222.7200     0.6368     0.3746
  698   13.940   3129.89     0.6612     0.0096     0.3866     0.1394     0.8223     1.4573   223.0400     0.5993     0.4075
  699   13.960   3130.91     0.6432     0.0096     0.4092     0.1396     0.8121     1.4823   223.3600     0.5888     0.4462
  700   13.980   3131.89     0.6391     0.0093     0.4056     0.1398     0.8119     1.4552   223.6800     0.5883     0.4620
  701   14.000   3132.91     0.6315     0.0093     0.3853     0.1400     0.7944     1.4645   224.0000     0.5704     0.4345
  702   14.020   3133.89     0.6131     0.0097     0.3904     0.1402     0.7741     1.5601   224.3200     0.5498     0.4424
  703   14.040   3134.93     0.5751     0.0099     0.4076     0.1404     0.7444     1.7112   224.6400     0.5198     0.5058
  704   14.060   3135.92     0.5577     0.0103     0.4291     0.1406     0.7348     1.8416   224.9600     0.5098     0.5513
  705   14.080   3136.93     0.5674     0.0096     0.4344     0.1408     0.7487     1.7085   225.2800     0.5234     0.5556
  706   14.100   3137.97     0.5780     0.0102     0.4268     0.1410     0.7590     1.7671   225.6000     0.5334     0.5437
  707   14.120   3138.97     0.5856     0.0100     0.4124     0.1412     0.7608     1.7057   225.9200     0.5348     0.5156
  708   14.140   3139.96     0.5855     0.0087     0.4109     0.1414     0.7580     1.4673   226.2400     0.5318     0.5068
  709   14.160   3141.02     0.5613     0.0089     0.4246     0.1416     0.7375     1.5727   226.5600     0.5109     0.5440
  710   14.180   3142.02     0.5512     0.0098     0.4249     0.1418     0.7299     1.7827   226.8800     0.5030     0.5638
  711   14.200   3142.99     0.5590     0.0106     0.4312     0.1420     0.7392     1.8897   227.2000     0.5120     0.5604
  712   14.220   3143.97     0.5692     0.0104     0.4324     0.1422     0.7519     1.8523   227.5200     0.5244     0.5586
  713   14.240   3144.98     0.5928     0.0106     0.4250     0.1424     0.7729     1.8068   227.8400     0.5451     0.5257
  714   14.260   3146.02     0.6101     0.0104     0.4006     0.1426     0.7792     1.7164   228.1600     0.5510     0.4720
  715   14.280   3147.05     0.6255     0.0104     0.3827     0.1428     0.7903     1.6737   228.4800     0.5618     0.4441
  716   14.300   3148.07     0.6317     0.0098     0.3739     0.1430     0.7887     1.5528   228.8000     0.5599     0.4122
  717   14.320   3149.08     0.6490     0.0096     0.3955     0.1432     0.8129     1.4874   229.1200     0.5838     0.4232
  718   14.340   3150.09     0.6271     0.0107     0.4068     0.1434     0.7973     1.6792   229.4400     0.5678     0.4611
  719   14.360   3151.10     0.6254     0.0097     0.4160     0.1436     0.7975     1.5570   229.7600     0.5678     0.4691
  720   14.380   3152.09     0.6396     0.0095     0.4256     0.1438     0.8183     1.4828   230.0800     0.5882     0.4790
  721   14.400   3153.09     0.6299     0.0099     0.4267     0.1440     0.8081     1.5599   230.4000     0.5777     0.4853
  722   14.420   3154.13     0.6183     0.0101     0.4272     0.1442     0.7966     1.6255   230.7200     0.5659     0.4953
  723   14.440   3155.11     0.5900     0.0101     0.4328     0.1444     0.7695     1.7055   231.0400     0.5385     0.5255
  724   14.460   3156.14     0.5833     0.0095     0.4425     0.1446     0.7704     1.6293   231.3600     0.5391     0.5582
  725   14.480   3157.14     0.5651     0.0094     0.4585     0.1448     0.7552     1.6533   231.6800     0.5236     0.5880
  726   14.500   3158.16     0.5653     0.0094     0.4638     0.1450     0.7596     1.6559   232.0000     0.5276     0.6021
  727   14.520   3159.21     0.5761     0.0094     0.4572     0.1452     0.7695     1.6315   232.3200     0.5372     0.5872
  728   14.540   3160.20     0.5812     0.0097     0.4553     0.1454     0.7746     1.6767   232.6400     0.5420     0.5813
  729   14.560   3161.20     0.5853     0.0100     0.4557     0.1456     0.7757     1.7184   232.9600     0.5428     0.5672
  730   14.580   3162.20     0.5847     0.0100     0.4574     0.1458     0.7775     1.7116   233.2800     0.5443     0.5759
  731   14.600   3163.22     0.5823     0.0099     0.4578     0.1460     0.7755     1.6941   233.6000     0.5419     0.5795
  732   14.620   3164.23     0.5997     0.0100     0.4584     0.1462     0.7928     1.6728   233.9200     0.5589     0.5611
  733   14.640   3165.26     0.6109     0.0096     0.4438     0.1464     0.8002     1.5645   234.2400     0.5659     0.5376
  734   14.660   3166.22     0.6092     0.0090     0.4199     0.1466     0.7883     1.4845   234.5600     0.5538     0.5053
  735   14.680   3167.24     0.6069     0.0087     0.4386     0.1468     0.7874     1.4402   234.8800     0.5525     0.5122
  736   14.700   3168.27     0.5938     0.0094     0.4502     0.1470     0.7828     1.5639   235.2000     0.5476     0.5534
  737   14.720   3169.27     0.6000     0.0097     0.4524     0.1472     0.7895     1.6181   235.5200     0.5540     0.5489
  738   14.740   3170.30     0.5864     0.0107     0.4573     0.1474     0.7788     1.8303   235.8400     0.5429     0.5722
  739   14.760   3171.25     0.5986     0.0105     0.4462     0.1476     0.7877     1.7560   236.1600     0.5515     0.5489
  740   14.780   3172.28     0.6552     0.0101     0.4335     0.1478     0.8375     1.5438   236.4800     0.6010     0.4765
  741   14.800   3173.35     0.6994     0.0102     0.4110     0.1480     0.8753     1.4749   236.8000     0.6385     0.4242
  742   14.820   3174.35     0.7240     0.0107     0.4130     0.1482     0.8967     1.4802   237.1200     0.6596     0.3988
  743   14.840   3175.35     0.7146     0.0110     0.4102     0.1484     0.8876     1.5422   237.4400     0.6502     0.4054
  744   14.860   3176.34     0.7275     0.0112     0.4244     0.1486     0.9024     1.5499   237.7600     0.6647     0.4031
  745   14.880   3177.33     0.8000     0.0098     0.4097     0.1488     0.9739     1.2294   238.0800     0.7358     0.3606
  746   14.900   3178.34     0.8354     0.0093     0.3995     0.1490     1.0047     1.1288   238.4000     0.7663     0.3318
  747   14.920   3179.41     0.8561     0.0098     0.3890     0.1492     1.0190     1.1331   238.7200     0.7803     0.3060
  748   14.940   3180.38     0.7872     0.0106     0.4015     0.1494     0.9545     1.4032   239.0400     0.7155     0.3481
  749   14.960   3181.35     0.6912     0.0114     0.4092     0.1496     0.8608     1.6734   239.3600     0.6214     0.4096
  750   14.980   3182.40     0.6723     0.0117     0.4375     0.1498     0.8545     1.7951   239.6800     0.6149     0.4631
  751   15.000   3183.40     0.7240     0.0111     0.4025     0.1500     0.8982     1.5417   240.0000     0.6582     0.4023
  752   15.020   3184.40     0.7087     0.0105     0.4025     0.1502     0.8740     1.4649   240.3200     0.6337     0.3845
  753   15.040   3191.29     0.7004     0.0109     0.4110     0.1504     0.8718     1.5838   240.6400     0.6312     0.4085
  754   15.060   3201.33     0.7218     0.0123     0.4195     0.1506     0.8968     1.7967   240.9600     0.6559     0.4058
  755   15.080   3211.26     0.7430     0.0134     0.4330     0.1508     0.9216     1.9514   241.2800     0.6803     0.4034
  756   15.100   3212.22     0.7591     0.0145     0.4333     0.1510     0.9419     1.9508   241.6000     0.7003     0.4058
  757   15.120   3213.27     0.8844     0.0150     0.4238     0.1512     1.0608     1.7180   241.9200     0.8189     0.3284
  758   15.140   3214.34     1.0289     0.0137     0.4078     0.1514     1.2036     1.3505   242.2400     0.9614     0.2756
  759   15.160   3215.32     1.1914     0.0120     0.3748     0.1516     1.3549     1.0171   242.5600     1.1124     0.2140
  760   15.180   3216.40     1.3322     0.0101     0.3442     0.1518     1.4779     0.7620   242.8800     1.2350     0.1579
  761   15.200   3217.34     1.3415     0.0094     0.3301     0.1520     1.4817     0.6980   243.2000     1.2385     0.1467
  762   15.220   3218.39     1.2876     0.0109     0.3305     0.1522     1.4219     0.8377   243.5200     1.1784     0.1425
  763   15.240   3219.33     1.1368     0.0119     0.3641     0.1524     1.2839     1.0384   243.8400     1.0400     0.1903
  764   15.260   3220.41     1.0605     0.0138     0.3890     0.1526     1.2229     1.2972   244.1600     0.9787     0.2391
  765   15.280   3221.43     1.0935     0.0150     0.4086     0.1528     1.2647     1.4093   244.4800     1.0202     0.2501
  766   15.300   3222.43     1.2404     0.0149     0.3737     0.1530     1.4002     1.2010   244.8000     1.1554     0.1969
  767   15.320   3223.41     1.2541     0.0147     0.3600     0.1532     1.4089     1.1704   245.1200     1.1637     0.1851
  768   15.340   3224.36     1.3029     0.0136     0.3431     0.1534     1.4502     1.0708   245.4400     1.2048     0.1639
  769   15.360   3225.35     1.2956     0.0133     0.3529     0.1536     1.4426     1.0118   245.7600     1.1969     0.1642
  770   15.380   3226.43     1.3060     0.0131     0.3333     0.1538     1.4490     1.0014   246.0800     1.2029     0.1552
  771   15.400   3227.48     1.2922     0.0113     0.3395     0.1540     1.4317     0.8741   246.4000     1.1853     0.1503
  772   15.420   3228.46     1.2297     0.0103     0.3649     0.1542     1.3807     0.8263   246.7200     1.1340     0.1812
  773   15.440   3229.46     1.1465     0.0107     0.3820     0.1544     1.3037     0.9139   247.0400     1.0567     0.2082
  774   15.460   3230.48     1.1057     0.0119     0.3826     0.1546     1.2689     1.0608   247.3600     1.0216     0.2291
  775   15.480   3231.49     1.0580     0.0115     0.3853     0.1548     1.2191     1.0850   247.6800     0.9715     0.2356
  776   15.500   3232.53     1.0894     0.0113     0.3813     0.1550     1.2499     1.0487   248.0000     1.0019     0.2268
  777   15.520   3233.52     1.1997     0.0102     0.3691     0.1552     1.3547     0.8571   248.3200     1.1063     0.1933
  778   15.540   3234.53     1.2553     0.0097     0.3867     0.1554     1.4174     0.7837   248.6400     1.1688     0.1972
  779   15.560   3235.56     1.3765     0.0093     0.3615     0.1556     1.5309     0.6915   248.9600     1.2820     0.1656
  780   15.580   3236.53     1.5064     0.0093     0.3688     0.1558     1.6607     0.6337   249.2800     1.4114     0.1500
  781   15.600   3237.55     1.6699     0.0094     0.3411     0.1560     1.8191     0.5937   249.6000     1.5695     0.1273
  782   15.620   3238.59     1.8128     0.0099     0.3289     0.1562     1.9506     0.5481   249.9200     1.7007     0.1011
  783   15.640   3239.61     1.8367     0.0093     0.3381     0.1564     1.9755     0.5042   250.2400     1.7252     0.1009
  784   15.660   3240.62     1.8951     0.0086     0.3495     0.1566     2.0409     0.4611   250.5600     1.7903     0.1064
  785   15.680   3241.66     1.9809     0.0101     0.3560     0.1568     2.1312     0.5186   250.8800     1.8803     0.1069
  786   15.700   3242.69     2.0493     0.0131     0.3368     0.1570     2.1949     0.6380   251.2000     1.9437     0.0976
  787   15.720   3243.67     2.2365     0.0177     0.2745     0.1572     2.3608     0.8289   251.5200     2.1093     0.0660
  788   15.740   3244.64     2.6082     0.0212     0.2598     0.1574     2.7160     0.8761   251.8400     2.4642     0.0404
  789   15.760   3245.72     2.9828     0.0235     0.2370     0.1576     3.0805     0.8307   252.1600     2.8284     0.0266
  790   15.780   3246.80     3.1828     0.0249     0.2500     0.1578     3.2849     0.8011   252.4800     3.0325     0.0281
  791   15.800   3247.78     3.4065     0.0258     0.2552     0.1580     3.5130     0.7854   252.8000     3.2602     0.0293
  792   15.820   3248.80     3.7351     0.0282     0.2495     0.1582     3.8424     0.7866   253.1200     3.5893     0.0271
  793   15.840   3249.81     4.0024     0.0311     0.2472     0.1584     4.1072     0.7978   253.4400     3.8538     0.0237
  794   15.860   3250.80     4.2388     0.0319     0.2434     0.1586     4.3446     0.7731   253.7600     4.0909     0.0229
  795   15.880   3251.87     4.5309     0.0303     0.2139     0.1588     4.6258     0.6912   254.0800     4.3717     0.0154
  796   15.900   3252.88     4.8793     0.0286     0.1686     0.1590     4.9568     0.6092   254.4000     4.7024     0.0055
  797   15.920   3253.87     5.3370     0.0277     0.1727     0.1592     5.4068     0.5425   254.7200     5.1521     0.0013
  798   15.940   3254.93     5.8096     0.0297     0.1325     0.1594     5.8760     0.5259   255.0400     5.6210    -0.0002
  799   15.960   3256.00     6.0560     0.0321     0.0940     0.1596     6.0962     0.5308   255.3600     5.8408    -0.0110
  800   15.980   3256.98     5.9257     0.0359     0.1010     0.1598     5.9692     0.5950   255.6800     5.7135    -0.0098
  801   16.000   3258.01     5.5436     0.0402     0.1040     0.1600     5.5855     0.6998   256.0000     5.3295    -0.0113
  802   16.020   3259.01     5.0786     0.0431     0.1123     0.1602     5.1249     0.8168   256.3200     4.8686    -0.0103
  803   16.040   3260.01     4.6617     0.0418     0.1159     0.1604     4.7103     0.8621   256.6400     4.4537    -0.0100
  804   16.060   3261.02     4.3825     0.0373     0.1343     0.1606     4.4351     0.8339   256.9600     4.1781    -0.0085
  805   16.080   3262.09     4.3601     0.0330     0.1754     0.1608     4.4277     0.7568   257.2800     4.1704     0.0000
  806   16.100   3263.12     4.6063     0.0332     0.1754     0.1610     4.6839     0.7435   257.6000     4.4263     0.0054
  807   16.120   3264.13     4.8269     0.0384     0.1400     0.1612     4.8903     0.8067   257.9200     4.6324    -0.0022
  808   16.140   3265.16     4.6739     0.0445     0.1285     0.1614     4.7269     0.9304   258.2400     4.4686    -0.0079
  809   16.160   3266.19     4.4411     0.0452     0.1478     0.1616     4.5034     0.9960   258.5600     4.2448    -0.0032
  810   16.180   3267.16     4.2307     0.0414     0.1635     0.1618     4.2964     0.9577   258.8800     4.0376    -0.0013
  811   16.200   3268.21     4.1159     0.0344     0.1896     0.1620     4.1917     0.8277   259.2000     3.9325     0.0047
  812   16.220   3269.25     4.1940     0.0271     0.2004     0.1622     4.2783     0.6546   259.5200     4.0188     0.0096
  813   16.240   3270.30     4.4707     0.0224     0.1881     0.1624     4.5528     0.5172   259.8400     4.2930     0.0077
  814   16.260   3271.31     4.8469     0.0214     0.1693     0.1626     4.9231     0.4584   260.1600     4.6629     0.0041
  815   16.280   3272.34     5.2372     0.0250     0.1190     0.1628     5.2979     0.4786   260.4800     5.0375    -0.0036
  816   16.300   3273.38     5.4349     0.0316     0.0754     0.1630     5.4694     0.5814   260.8000     5.2086    -0.0155
  817   16.320   3274.45     5.1579     0.0405     0.0912     0.1632     5.1978     0.7702   261.1200     4.9367    -0.0138
  818   16.340   3275.41     4.5863     0.0512     0.1013     0.1634     4.6257     1.1115   261.4400     4.3643    -0.0159
  819   16.360   3276.44     3.9594     0.0582     0.1198     0.1636     4.0061     1.4349   261.7600     3.7443    -0.0140
  820   16.380   3277.42     3.3854     0.0613     0.1299     0.1638     3.4385     1.6832   262.0800     3.1764    -0.0117
  821   16.400   3278.38     2.9301     0.0582     0.1587     0.1640     2.9914     1.8627   262.4000     2.7290    -0.0065
  822   16.420   3279.44     2.6640     0.0526     0.2038     0.1642     2.7431     1.9132   262.7200     2.4804     0.0098
  823   16.440   3280.50     2.5976     0.0472     0.1961     0.1644     2.6807     1.8139   263.0400     2.4177     0.0139
  824   16.460   3281.48     2.5526     0.0414     0.1930     0.1646     2.6340     1.6187   263.3600     2.3707     0.0123
  825   16.480   3282.51     2.4696     0.0350     0.1922     0.1648     2.5490     1.4098   263.6800     2.2853     0.0106
  826   16.500   3283.56     2.3603     0.0324     0.2328     0.1650     2.4524     1.3573   264.0000     2.1884     0.0249
  827   16.520   3284.55     2.2445     0.0311     0.2612     0.1652     2.3510     1.3682   264.3200     2.0867     0.0424
  828   16.540   3285.54     2.1314     0.0281     0.2582     0.1654     2.2414     1.2813   264.6400     1.9767     0.0488
  829   16.560   3286.49     2.0243     0.0193     0.2693     0.1656     2.1325     0.9314   264.9600     1.8675     0.0493
  830   16.580   3287.50     1.9351     0.0189     0.3111     0.1658     2.0599     0.9597   265.2800     1.7946     0.0733
  831   16.600   3288.59     1.9528     0.0241     0.3103     0.1660     2.0875     1.2544   265.6000     1.8219     0.0850
  832   16.620   3289.64     2.1999     0.0258     0.2588     0.1662     2.3176     1.1838   265.9200     2.0517     0.0558
  833   16.640   3290.67     2.4822     0.0273     0.1511     0.1664     2.5636     1.1296   266.2400     2.2974     0.0120
  834   16.660   3291.70     2.4507     0.0266     0.0705     0.1666     2.4831     1.0854   266.5600     2.2165    -0.0405
  835   16.680   3292.69     2.1981     0.0207     0.0901     0.1668     2.2335     0.8919   266.8800     1.9666    -0.0418
  836   16.700   3293.71     1.7969     0.0184     0.1218     0.1670     1.8428     1.0142   267.2000     1.5756    -0.0365
  837   16.720   3294.71     1.3988     0.0156     0.2052     0.1672     1.4698     1.1010   267.5200     1.2023     0.0020
  838   16.740   3295.73     1.0583     0.0116     0.2909     0.1674     1.1710     0.9687   267.8400     0.9032     0.1119
  839   16.760   3296.77     0.8657     0.0091     0.3416     0.1676     0.9987     1.0277   268.1600     0.7305     0.2042
  840   16.780   3297.77     0.7727     0.0091     0.4161     0.1678     0.9404     1.1771   268.4800     0.6719     0.3444
  841   16.800   3298.77     0.7390     0.0084     0.4510     0.1680     0.9224     1.1184   268.8000     0.6536     0.4112
  842   16.820   3299.74     0.7392     0.0084     0.4827     0.1682     0.9379     1.1430   269.1200     0.6688     0.4561
  843   16.840   3300.78     0.7762     0.0091     0.5066     0.1684     0.9843     1.2115   269.4400     0.7148     0.4577
  844   16.860   3301.81     0.8443     0.0096     0.5275     0.1686     1.0607     1.1890   269.7600     0.7909     0.4383
  845   16.880   3302.82     0.9111     0.0111     0.5353     0.1688     1.1343     1.2159   270.0800     0.8642     0.4196
  846   16.900   3303.89     0.9361     0.0121     0.5209     0.1690     1.1562     1.2913   270.4000     0.8858     0.4008
  847   16.920   3304.93     0.9700     0.0126     0.5161     0.1692     1.1888     1.3033   270.7200     0.9180     0.3831
  848   16.940   3305.86     0.9801     0.0123     0.5103     0.1694     1.1931     1.2485   271.0400     0.9221     0.3663
  849   16.960   3306.87     0.9507     0.0117     0.5037     0.1696     1.1656     1.2206   271.3600     0.8942     0.3824
  850   16.980   3307.88     0.9098     0.0144     0.5011     0.1698     1.1191     1.5638   271.6800     0.8474     0.3877
  851   17.000   3308.88     0.8870     0.0159     0.5360     0.1700     1.1071     1.7774   272.0000     0.8351     0.4239
  852   17.020   3309.95     0.8724     0.0195     0.5442     0.1702     1.0993     2.2234   272.3200     0.8270     0.4473
  853   17.040   3310.88     0.8913     0.0221     0.5601     0.1704     1.1229     2.5148   272.6400     0.8503     0.4483
  854   17.060   3312.78     1.0388     0.0255     0.6113     0.1706     1.3008     2.7587   272.9600     1.0279     0.4410
  855   17.080   3325.31     1.0267     0.0273     0.6057     0.1708     1.2820     3.1744   273.2800     1.0087     0.4386
  856   17.100   3335.10     1.1683     0.0286     0.6041     0.1710     1.4203     2.7612   273.6000     1.1467     0.3745
  857   17.120   3336.10     1.1949     0.0308     0.6244     0.1712     1.4526     2.5737   273.9200     1.1787     0.3753
  858   17.140   3337.09     1.1969     0.0325     0.6868     0.1714     1.4716     2.7130   274.2400     1.1974     0.4031
  859   17.160   3338.16     1.1704     0.0336     0.7490     0.1716     1.4787     2.8761   274.5600     1.2041     0.4671
  860   17.180   3339.24     1.1765     0.0320     0.8093     0.1718     1.5109     2.7191   274.8800     1.2360     0.5052
  861   17.200   3340.17     1.1616     0.0311     0.8513     0.1720     1.5117     2.6811   275.2000     1.2365     0.5350
  862   17.220   3341.19     1.1596     0.0296     0.8798     0.1722     1.5286     2.5569   275.5200     1.2531     0.5637
  863   17.240   3342.19     1.1969     0.0308     0.8827     0.1724     1.5688     2.5848   275.8400     1.2929     0.5515
  864   17.260   3343.18     1.2387     0.0308     0.8799     0.1726     1.6067     2.5397   276.1600     1.3305     0.5287
  865   17.280   3344.20     1.2642     0.0308     0.9067     0.1728     1.6435     2.4341   276.4800     1.3670     0.5342
  866   17.300   3345.23     1.2692     0.0313     0.8898     0.1730     1.6443     2.4692   276.8000     1.3675     0.5267
  867   17.320   3346.18     1.2671     0.0303     0.8436     0.1732     1.6328     2.3946   277.1200     1.3557     0.5145
  868   17.340   3347.30     1.2676     0.0308     0.8379     0.1734     1.6209     2.4390   277.4400     1.3435     0.4971
  869   17.360   3348.29     1.2972     0.0322     0.8067     0.1736     1.6390     2.4814   277.7600     1.3612     0.4702
  870   17.380   3349.27     1.2615     0.0321     0.8377     0.1738     1.6030     2.5380   278.0800     1.3250     0.4825
  871   17.400   3350.26     1.1744     0.0304     0.7999     0.1740     1.5216     2.5860   278.4000     1.2432     0.5251
  872   17.420   3351.29     1.1715     0.0291     0.7569     0.1742     1.4973     2.4770   278.7200     1.2186     0.4936
  873   17.440   3352.27     1.1376     0.0286     0.8421     0.1744     1.4764     2.4865   279.0400     1.1973     0.5279
  874   17.460   3353.34     1.1028     0.0289     0.9293     0.1746     1.4787     2.6292   279.3600     1.1993     0.6006
  875   17.480   3354.33     1.1345     0.0284     0.9750     0.1748     1.5400     2.5134   279.6800     1.2603     0.6274
  876   17.500   3355.34     1.2047     0.0286     0.9646     0.1750     1.6119     2.3823   280.0000     1.3319     0.5965
  877   17.520   3356.37     1.2385     0.0293     0.9273     0.1752     1.6334     2.3668   280.3200     1.3531     0.5654
  878   17.540   3357.36     1.2683     0.0301     0.9123     0.1754     1.6536     2.3751   280.6400     1.3730     0.5404
  879   17.560   3358.34     1.2782     0.0310     0.9169     0.1756     1.6625     2.4228   280.9600     1.3816     0.5352
  880   17.580   3359.37     1.2709     0.0313     0.9099     0.1758     1.6528     2.4485   281.2800     1.3715     0.5348
  881   17.600   3360.36     1.2851     0.0305     0.9143     0.1760     1.6663     2.3699   281.6000     1.3847     0.5283
  882   17.620   3361.39     1.2823     0.0302     0.9087     0.1762     1.6681     2.3501   281.9200     1.3862     0.5356
  883   17.640   3362.40     1.3055     0.0301     0.8947     0.1764     1.6836     2.3041   282.2400     1.4013     0.5165
  884   17.660   3363.44     1.3162     0.0311     0.8779     0.1766     1.6833     2.3619   282.5600     1.4008     0.4981
  885   17.680   3364.44     1.3204     0.0317     0.8782     0.1768     1.6901     2.4036   282.8800     1.4072     0.4999
  886   17.700   3365.45     1.3031     0.0320     0.8610     0.1770     1.6690     2.4534   283.2000     1.3858     0.5009
  887   17.720   3366.45     1.2893     0.0320     0.8621     0.1772     1.6501     2.4748   283.5200     1.3665     0.4989
  888   17.740   3367.49     1.2751     0.0320     0.8627     0.1774     1.6346     2.4998   283.8400     1.3508     0.5024
  889   17.760   3368.49     1.2537     0.0327     0.8658     0.1776     1.6169     2.5924   284.1600     1.3327     0.5156
  890   17.780   3369.49     1.2543     0.0332     0.8652     0.1778     1.6159     2.6494   284.4800     1.3314     0.5130
  891   17.800   3370.51     1.2304     0.0329     0.8789     0.1780     1.6002     2.6697   284.8000     1.3154     0.5341
  892   17.820   3371.55     1.1922     0.0325     0.8530     0.1782     1.5538     2.7212   285.1200     1.2687     0.5382
  893   17.840   3372.56     1.1714     0.0318     0.8476     0.1784     1.5259     2.7092   285.4400     1.2404     0.5366
  894   17.860   3373.57     1.1600     0.0313     0.8672     0.1786     1.5225     2.6949   285.7600     1.2367     0.5534
  895   17.880   3374.56     1.1357     0.0312     0.8789     0.1788     1.5028     2.7234   286.0800     1.2167     0.5714
  896   17.900   3375.58     1.0966     0.0320     0.8836     0.1790     1.4663     2.9016   286.4000     1.1799     0.5942
  897   17.920   3376.59     1.0856     0.0315     0.9049     0.1792     1.4650     2.8918   286.7200     1.1783     0.6145
  898   17.940   3377.57     1.0805     0.0279     0.9109     0.1794     1.4611     2.5896   287.0400     1.1741     0.6190
  899   17.960   3378.61     1.0825     0.0248     0.9149     0.1796     1.4678     2.2923   287.3600     1.1805     0.6249
  900   17.980   3379.61     1.1034     0.0232     0.9050     0.1798     1.4803     2.1041   287.6800     1.1926     0.6017
  901   18.000   3380.63     1.1111     0.0225     0.9374     0.1800     1.4960     2.0270   288.0000     1.2080     0.6097
  902   18.020   3381.66     1.0450     0.0220     0.9665     0.1802     1.4534     2.0855   288.3200     1.1650     0.6800
  903   18.040   3382.67     1.0648     0.0236     0.9349     0.1804     1.4681     2.2470   288.6400     1.1794     0.6612
  904   18.060   3383.67     1.0953     0.0239     0.8906     0.1806     1.4761     2.1864   288.9600     1.1871     0.6116
  905   18.080   3384.69     1.0825     0.0241     0.8554     0.1808     1.4528     2.2143   289.2800     1.1635     0.6024
  906   18.100   3385.69     1.0621     0.0250     0.8363     0.1810     1.4183     2.3499   289.6000     1.1287     0.5911
  907   18.120   3386.74     1.0658     0.0234     0.9015     0.1812     1.4276     2.2006   289.9200     1.1376     0.5978
  908   18.140   3387.73     1.0839     0.0216     0.9673     0.1814     1.4846     2.0150   290.2400     1.1944     0.6469
  909   18.160   3388.73     1.1099     0.0206     0.9787     0.1816     1.5224     1.8859   290.5600     1.2319     0.6500
  910   18.180   3389.73     1.1594     0.0203     0.9465     0.1818     1.5630     1.8054   290.8800     1.2722     0.6125
  911   18.200   3390.73     1.2663     0.0213     0.9077     0.1820     1.6536     1.7005   291.2000     1.3624     0.5432
  912   18.220   3391.79     1.3511     0.0203     0.8435     0.1822     1.7103     1.5030   291.5200     1.4188     0.4744
  913   18.240   3392.82     1.3560     0.0204     0.8080     0.1824     1.7008     1.4905   291.8400     1.4089     0.4531
  914   18.260   3393.82     1.4041     0.0194     0.7734     0.1826     1.7312     1.4045   292.1600     1.4390     0.4143
  915   18.280   3394.84     1.4592     0.0215     0.7153     0.1828     1.7658     1.5161   292.4800     1.4733     0.3713
  916   18.300   3395.82     1.4012     0.0258     0.7092     0.1830     1.6901     1.8422   292.8000     1.3973     0.3613
  917   18.320   3396.83     1.5634     0.0293     0.7188     0.1832     1.8620     1.8830   293.1200     1.5689     0.3366
  918   18.340   3397.91     1.7606     0.0279     0.6378     0.1834     2.0374     1.5961   293.4400     1.7439     0.2728
  919   18.360   3398.94     1.8854     0.0273     0.5456     0.1836     2.1279     1.4590   293.7600     1.8341     0.2151
  920   18.380   3399.94     2.0422     0.0277     0.4882     0.1838     2.2538     1.3861   294.0800     1.9598     0.1634
  921   18.400   3400.90     2.0751     0.0242     0.5047     0.1840     2.2871     1.1661   294.4000     1.9927     0.1609
  922   18.420   3401.90     2.1240     0.0244     0.5271     0.1842     2.3437     1.1673   294.7200     2.0490     0.1654
  923   18.440   3402.89     2.1472     0.0208     0.5227     0.1844     2.3701     0.9733   295.0400     2.0751     0.1669
  924   18.460   3403.96     2.1264     0.0218     0.5341     0.1846     2.3456     1.0143   295.3600     2.0502     0.1645
  925   18.480   3405.03     1.9372     0.0333     0.5513     0.1848     2.1634     1.6243   295.6800     1.8677     0.1897
  926   18.500   3406.06     1.9502     0.0404     0.5919     0.1850     2.1968     2.1724   296.0000     1.9008     0.2117
  927   18.520   3407.06     2.5496     0.0439     0.5132     0.1852     2.7842     1.9688   296.3200     2.4879     0.1517
  928   18.540   3408.08     3.7204     0.0487     0.3403     0.1854     3.8901     1.5575   296.6400     3.5935     0.0624
  929   18.560   3409.15     4.7354     0.0562     0.2138     0.1856     4.8404     1.2947   296.9600     4.5434     0.0143
  930   18.580   3410.17     5.0664     0.0487     0.0902     0.1858     5.1220     0.9790   297.2800     4.8247    -0.0111
  931   18.600   3411.20     5.0843     0.0462     0.0369     0.1860     5.0994     0.9105   297.6000     4.8018    -0.0313
  932   18.620   3412.20     5.0579     0.0452     0.0218     0.1862     5.0714     0.8913   297.9200     4.7735    -0.0323
  933   18.640   3413.28     5.1103     0.0472    -0.0130     0.1864     5.1163     0.9298   298.2400     4.8180    -0.0357
  934   18.660   3414.29     5.3405     0.0486    -0.0014     0.1866     5.3255     0.9276   298.5600     5.0270    -0.0442
  935   18.680   3415.24     5.4799     0.0574     0.0329     0.1868     5.4962     1.0551   298.8800     5.1973    -0.0285
  936   18.700   3416.38     5.3615     0.0604     0.0272     0.1870     5.3755     1.1248   299.2000     5.0763    -0.0303
  937   18.720   3417.36     5.2448     0.0497     0.0973     0.1872     5.2873     0.9398   299.5200     4.9878    -0.0172
  938   18.740   3418.41     5.1869     0.0376     0.1505     0.1874     5.2411     0.7231   299.8400     4.9412    -0.0119
  939   18.760   3419.46     5.4529     0.0312     0.2100     0.1876     5.5311     0.5831   300.1600     5.2309    -0.0004
  940   18.780   3420.42     5.9954     0.0434     0.1799     0.1878     6.0799     0.7556   300.4800     5.7795     0.0024
  941   18.800   3421.43     6.3145     0.0602     0.0893     0.1880     6.3578     0.9579   300.8000     6.0570    -0.0140
  942   18.820   3422.49     5.9077     0.0698     0.1035     0.1882     5.9397     1.1380   301.1200     5.6385    -0.0199
  943   18.840   3423.57     5.2441     0.0681     0.2313     0.1884     5.3185     1.2376   301.4400     5.0170    -0.0022
  944   18.860   3424.55     4.7677     0.0769     0.4195     0.1886     4.9189     1.5665   301.7600     4.6171     0.0373
  945   18.880   3425.58     4.9770     0.0724     0.5196     0.1888     5.1851     1.4376   302.0800     4.8830     0.0627
  946   18.900   3426.66     6.4205     0.0654     0.3803     0.1890     6.6089     1.1400   302.4000     6.3065     0.0416
  947   18.920   3427.69     8.1861     0.0545     0.0598     0.1892     8.2755     0.7251   302.7200     7.9728     0.0033
  948   18.940   3428.74     9.8747     0.0429    -0.1096     0.1894     9.8269     0.4646   303.0400     9.5238    -0.0319
  949   18.960   3429.89    10.5273     0.0296    -0.0472     0.1896    10.4937     0.2828   303.3600    10.1904    -0.0265
  950   18.980   3443.07     9.9025     0.0475    -0.0266     0.1898     9.8883     0.5001   303.6800     9.5847    -0.0235
  951   19.000   3457.33    10.3019     0.0788     0.0033     0.1900    10.2971     0.8244   304.0000     9.9931    -0.0201
  952   19.020   3458.36     8.9887     0.1016     0.0637     0.1902     9.0008     1.0766   304.3200     8.6965    -0.0185
  953   19.040   3459.39     7.2860     0.1077     0.0733     0.1904     7.3186     1.4270   304.6400     7.0139    -0.0162
  954   19.060   3460.33     5.8295     0.1094     0.1143     0.1906     5.8686     1.6841   304.9600     5.5637    -0.0175
  955   19.080   3461.32     4.4970     0.1033     0.1702     0.1908     4.5555     2.1053   305.2800     4.2502    -0.0121
  956   19.100   3462.37     3.6108     0.0893     0.2255     0.1910     3.6982     2.3003   305.6000     3.3926     0.0051
  957   19.120   3463.48     3.0742     0.0668     0.2768     0.1912     3.1854     1.9989   305.9200     2.8795     0.0257
  958   19.140   3464.48     2.5082     0.0532     0.3770     0.1914     2.6467     1.9199   306.2400     2.3404     0.0598
  959   19.160   3465.51     2.1551     0.0452     0.5095     0.1916     2.3527     2.0093   306.5600     2.0462     0.1366
  960   19.180   3466.53     2.1680     0.0350     0.5427     0.1918     2.3955     1.6265   306.8800     2.0886     0.1675
  961   19.200   3467.56     2.2927     0.0220     0.4819     0.1920     2.5054     0.9656   307.2000     2.1982     0.1430
  962   19.220   3468.59     2.3103     0.0166     0.4618     0.1922     2.5049     0.7199   307.5200     2.1974     0.1234
  963   19.240   3469.60     2.2736     0.0129     0.4602     0.1924     2.4667     0.5666   307.8400     2.1589     0.1239
  964   19.260   3470.61     2.2563     0.0138     0.4684     0.1926     2.4521     0.6048   308.1600     2.1440     0.1277
  965   19.280   3471.52     2.1702     0.0150     0.4639     0.1928     2.3650     0.6760   308.4800     2.0565     0.1318
  966   19.300   3472.58     1.9771     0.0127     0.4962     0.1930     2.1809     0.6152   308.8000     1.8721     0.1562
  967   19.320   3473.63     1.8629     0.0110     0.4884     0.1932     2.0708     0.5800   309.1200     1.7617     0.1713
  968   19.340   3474.71     1.7737     0.0101     0.5160     0.1934     1.9886     0.5684   309.4400     1.6791     0.1895
  969   19.360   3475.67     1.6586     0.0089     0.5380     0.1936     1.8807     0.5302   309.7600     1.5710     0.2135
  970   19.380   3476.70     1.5185     0.0071     0.5586     0.1938     1.7505     0.4659   310.0800     1.4405     0.2491
  971   19.400   3477.72     1.3229     0.0109     0.6110     0.1940     1.5664     0.8117   310.4000     1.2560     0.3074
  972   19.420   3478.72     1.1902     0.0149     0.6793     0.1942     1.4720     1.2269   310.7200     1.1612     0.4105
  973   19.440   3479.75     1.3027     0.0163     0.6827     0.1944     1.5870     1.3075   311.0400     1.2760     0.3782
  974   19.460   3480.76     1.7019     0.0188     0.6358     0.1946     1.9811     1.2760   311.3600     1.6697     0.2821
  975   19.480   3481.70     2.5882     0.0186     0.5408     0.1948     2.8263     0.8304   311.6800     2.5146     0.1484
  976   19.500   3482.71     3.4852     0.0183     0.4329     0.1950     3.6821     0.5732   312.0000     3.3701     0.0817
  977   19.520   3483.82     4.5725     0.0187     0.3419     0.1952     4.7271     0.4459   312.3200     4.4148     0.0393
  978   19.540   3484.92     5.4486     0.0219     0.3317     0.1954     5.5914     0.4047   312.6400     5.2788     0.0274
  979   19.560   3485.96     6.0048     0.0243     0.2809     0.1956     6.1279     0.4210   312.9600     5.8149     0.0168
  980   19.580   3486.98     6.2731     0.0272     0.2923     0.1958     6.3918     0.4376   313.2800     6.0786     0.0143
  981   19.600   3487.99     6.1968     0.0337     0.3262     0.1960     6.3282     0.5381   313.6000     6.0146     0.0194
  982   19.620   3489.02     5.8520     0.0462     0.3575     0.1962     5.9986     0.7871   313.9200     5.6847     0.0269
  983   19.640   3490.01     5.4052     0.0561     0.3724     0.1964     5.5588     1.0314   314.2400     5.2445     0.0323
  984   19.660   3491.07     4.7921     0.0640     0.4236     0.1966     4.9627     1.2871   314.5600     4.6482     0.0452
  985   19.680   3492.12     4.1078     0.0490     0.4863     0.1968     4.3019     1.1661   314.8800     3.9870     0.0667
  986   19.700   3493.15     3.6031     0.0408     0.5211     0.1970     3.8189     1.1060   315.2000     3.5037     0.0905
  987   19.720   3494.06     3.0429     0.0320     0.5320     0.1972     3.2636     0.9728   315.5200     2.9481     0.1116
  988   19.740   3495.03     2.4972     0.0263     0.5564     0.1974     2.7287     0.9904   315.8400     2.4128     0.1470
  989   19.760   3496.08     2.0521     0.0210     0.5509     0.1976     2.2921     0.9567   316.1600     1.9759     0.1896
  990   19.780   3497.23     1.5036     0.0206     0.6829     0.1978     1.7528     1.3135   316.4800     1.4363     0.2755
  991   19.800   3498.26     1.3114     0.0206     0.8369     0.1980     1.6554     1.5605   316.8000     1.3386     0.4640
  992   19.820   3499.27     1.2824     0.0214     0.9164     0.1982     1.6556     1.6515   317.1200     1.3384     0.5157
  993   19.840   3500.27     1.2909     0.0219     0.9554     0.1984     1.6886     1.6939   317.4400     1.3712     0.5460
  994   19.860   3501.27     1.2964     0.0236     0.9625     0.1986     1.6975     1.8216   317.7600     1.3797     0.5482
  995   19.880   3502.22     1.2920     0.0240     0.9855     0.1988     1.7012     1.8463   318.0800     1.3831     0.5606
  996   19.900   3503.24     1.3002     0.0238     1.0092     0.1990     1.7228     1.8359   318.4000     1.4044     0.5748
  997   19.920   3504.33     1.3379     0.0241     1.0092     0.1992     1.7632     1.8222   318.7200     1.4445     0.5632
  998   19.940   3505.33     1.3428     0.0260     1.0298     0.1994     1.7714     1.9369   319.0400     1.4524     0.5653
  999   19.960   3506.38     1.3545     0.0266     1.0332     0.1996     1.7887     1.9677   319.3600     1.4693     0.5676
 1000   19.980   3507.39     1.3910     0.0279     1.0266     0.1998     1.8238     2.0299   319.6800     1.5041     0.5523
 1001   20.000   3508.31     1.3877     0.0280     1.0261     0.2000     1.8182     2.0205   320.0000     1.4982     0.5507
 1002   20.020   3509.41     1.4109     0.0280     1.0082     0.2002     1.8323     2.0028   320.3200     1.5120     0.5312
 1003   20.040   3510.46     1.4071     0.0276     1.0247     0.2004     1.8378     1.9598   320.6400     1.5171     0.5438
 1004   20.060   3511.48     1.3918     0.0277     1.0066     0.2006     1.8165     1.9756   320.9600     1.4956     0.5421
 1005   20.080   3512.51     1.3740     0.0285     1.0266     0.2008     1.8010     2.0664   321.2800     1.4797     0.5514
 1006   20.100   3513.50     1.3843     0.0289     1.0361     0.2010     1.8187     2.1019   321.6000     1.4971     0.5566
 1007   20.120   3514.49     1.3950     0.0285     1.0615     0.2012     1.8367     2.0430   321.9200     1.5148     0.5615
 1008   20.140   3515.55     1.4067     0.0277     1.0413     0.2014     1.8476     1.9819   322.2400     1.5254     0.5562
 1009   20.160   3516.58     1.4136     0.0274     1.0283     0.2016     1.8460     1.9403   322.5600     1.5235     0.5435
 1010   20.180   3517.64     1.4187     0.0273     1.0373     0.2018     1.8555     1.9232   322.8800     1.5326     0.5469
 1011   20.200   3518.65     1.4203     0.0263     1.0233     0.2020     1.8509     1.8490   323.2000     1.5277     0.5388
 1012   20.220   3519.68     1.4128     0.0271     1.0109     0.2022     1.8393     1.9142   323.5200     1.5158     0.5366
 1013   20.240   3520.70     1.4043     0.0271     1.0023     0.2024     1.8269     1.9283   323.8400     1.5030     0.5348
 1014   20.260   3521.66     1.4057     0.0277     0.9918     0.2026     1.8252     1.9636   324.1600     1.5010     0.5305
 1015   20.280   3522.71     1.3913     0.0269     0.9982     0.2028     1.8078     1.9300   324.4800     1.4833     0.5318
 1016   20.300   3523.74     1.4006     0.0263     0.9973     0.2030     1.8201     1.8892   324.8000     1.4953     0.5322
 1017   20.320   3524.78     1.4113     0.0265     1.0153     0.2032     1.8353     1.8749   325.1200     1.5102     0.5339
 1018   20.340   3525.81     1.4173     0.0275     1.0172     0.2034     1.8438     1.9410   325.4400     1.5183     0.5348
 1019   20.360   3526.82     1.4125     0.0285     1.0074     0.2036     1.8345     2.0190   325.7600     1.5087     0.5310
 1020   20.380   3527.83     1.4385     0.0286     1.0057     0.2038     1.8620     2.0143   326.0800     1.5360     0.5239
 1021   20.400   3528.86     1.4855     0.0280     0.9854     0.2040     1.9058     1.9173   326.4000     1.5794     0.5044
 1022   20.420   3529.79     1.5104     0.0271     0.9395     0.2042     1.9112     1.8009   326.7200     1.5845     0.4733
 1023   20.440   3530.78     1.4878     0.0268     0.9285     0.2044     1.8771     1.7890   327.0400     1.5501     0.4662
 1024   20.460   3531.97     1.4601     0.0277     0.9430     0.2046     1.8539     1.8953   327.3600     1.5265     0.4801
 1025   20.480   3532.94     1.4275     0.0272     0.9624     0.2048     1.8288     1.8970   327.6800     1.5012     0.5001
 1026   20.500   3533.94     1.4128     0.0256     0.9820     0.2050     1.8236     1.8071   328.0000     1.4956     0.5168
 1027   20.520   3534.97     1.4173     0.0243     0.9849     0.2052     1.8308     1.7197   328.3200     1.5025     0.5187
 1028   20.540   3536.02     1.4305     0.0248     0.9918     0.2054     1.8472     1.7398   328.6400     1.5186     0.5182
 1029   20.560   3536.97     1.4397     0.0248     0.9905     0.2056     1.8549     1.7261   328.9600     1.5260     0.5131
 1030   20.580   3538.05     1.4374     0.0244     1.0093     0.2058     1.8587     1.6979   329.2800     1.5294     0.5213
 1031   20.600   3539.05     1.4562     0.0262     1.0090     0.2060     1.8804     1.8211   329.6000     1.5508     0.5186
 1032   20.620   3540.09     1.4945     0.0255     0.9863     0.2062     1.9134     1.7267   329.9200     1.5835     0.4996
 1033   20.640   3541.12     1.5541     0.0166     0.9943     0.2064     1.9663     1.0904   330.2400     1.6361     0.4738
 1034   20.660   3542.15     1.7936     0.0143     1.0660     0.2066     2.2297     0.8742   330.5600     1.8992     0.4386
 1035   20.680   3543.15     3.0577     0.0281     1.0838     0.2068     3.5255     1.1930   330.8800     3.1946     0.2877
 1036   20.700   3544.22     5.7912     0.0655     0.5972     0.2070     6.1600     1.3833   331.2000     5.8288     0.1167
 1037   20.720   3545.30     7.4486     0.0855     0.0979     0.2072     7.5167     1.2206   331.5200     7.1851    -0.0063
 1038   20.740   3546.30     7.2820     0.1020     0.0944     0.2074     7.3160     1.3666   331.8400     6.9842    -0.0181
 1039   20.760   3547.34     6.4257     0.1030     0.1529     0.2076     6.4759     1.5347   332.1600     6.1438    -0.0143
 1040   20.780   3548.38     5.5363     0.0990     0.3504     0.2078     5.6476     1.6854   332.4800     5.3152     0.0110
 1041   20.800   3549.41     4.9261     0.1121     0.4040     0.2080     5.1009     2.2046   332.8000     4.7681     0.0436
 1042   20.820   3550.42     4.3664     0.1212     0.4047     0.2082     4.5311     2.6932   333.1200     4.1980     0.0439
 1043   20.840   3551.40     4.1256     0.1152     0.3350     0.2084     4.2737     2.7992   333.4400     3.9402     0.0366
 1044   20.860   3552.45     3.7039     0.1077     0.0355     0.2086     3.7763     2.8521   333.7600     3.4426    -0.0117
 1045   20.880   3553.59     2.7941     0.0881     0.0432     0.2088     2.7962     3.0160   334.0800     2.4621    -0.0828
 1046   20.900   3554.55     1.9465     0.0754     0.2263     0.2090     2.0172     3.7524   334.4000     1.6828    -0.0224
 1047   20.920   3555.56     1.4110     0.0633     0.5549     0.2092     1.5792     4.4350   334.7200     1.2444     0.1545
 1048   20.940   3567.63     1.2479     0.0467     0.7437     0.2094     1.5375     3.6943   335.0400     1.2025     0.3968
 1049   20.960   3587.69     1.2178     0.0232     0.8983     0.2096     1.5732     1.8375   335.3600     1.2378     0.5126
 1050   20.980   3595.00     1.1798     0.0176     0.9316     0.2098     1.5682     1.4737   335.6800     1.2325     0.5801
 1051   21.000   3596.07     1.1446     0.0170     0.9458     0.2100     1.5393     1.4731   336.0000     1.2033     0.6064
 1052   21.020   3597.06     1.1269     0.0168     0.9551     0.2102     1.5275     1.4800   336.3200     1.1911     0.6242
 1053   21.040   3598.04     1.1390     0.0168     0.9522     0.2104     1.5397     1.4899   336.6400     1.2031     0.6183
 1054   21.060   3599.06     1.1467     0.0174     0.9513     0.2106     1.5459     1.5163   336.9600     1.2090     0.6121
 1055   21.080   3600.15     1.1474     0.0173     0.9509     0.2108     1.5463     1.5121   337.2800     1.2090     0.6111
 1056   21.100   3601.15     1.1406     0.0181     0.9644     0.2110     1.5443     1.5739   337.6000     1.2067     0.6217
 1057   21.120   3602.23     1.1343     0.0183     0.9771     0.2112     1.5437     1.6133   337.9200     1.2058     0.6333
 1058   21.140   3603.24     1.1831     0.0190     0.9625     0.2114     1.5915     1.6150   338.2400     1.2532     0.6071
 1059   21.160   3604.18     1.2137     0.0193     0.9401     0.2116     1.6075     1.6035   338.5600     1.2689     0.5720
 1060   21.180   3605.21     1.2517     0.0196     0.9354     0.2118     1.6466     1.5709   338.8800     1.3077     0.5570
 1061   21.200   3606.24     1.2384     0.0191     0.9131     0.2120     1.6258     1.5281   339.2000     1.2866     0.5521
 1062   21.220   3607.28     1.2201     0.0189     0.9106     0.2122     1.6024     1.5302   339.5200     1.2629     0.5526
 1063   21.240   3608.30     1.2043     0.0188     0.9217     0.2124     1.5904     1.5546   339.8400     1.2506     0.5654
 1064   21.260   3609.34     1.2274     0.0189     0.9066     0.2126     1.6121     1.5477   340.1600     1.2719     0.5530
 1065   21.280   3610.30     1.2568     0.0191     0.8869     0.2128     1.6330     1.5236   340.4800     1.2925     0.5285
 1066   21.300   3611.28     1.3219     0.0182     0.8248     0.2130     1.6768     1.4133   340.8000     1.3360     0.4730
 1067   21.320   3612.36     1.3514     0.0178     0.7835     0.2132     1.6867     1.3183   341.1200     1.3456     0.4349
 1068   21.340   3613.39     1.3552     0.0172     0.7682     0.2134     1.6763     1.2684   341.4400     1.3349     0.4129
 1069   21.360   3614.39     1.3205     0.0167     0.7754     0.2136     1.6489     1.2343   341.7600     1.3071     0.4348
 1070   21.380   3615.38     1.2326     0.0160     0.8014     0.2138     1.5631     1.2555   342.0800     1.2211     0.4696
 1071   21.400   3616.40     1.1721     0.0156     0.8497     0.2140     1.5225     1.3060   342.4000     1.1801     0.5257
 1072   21.420   3617.45     1.1295     0.0156     0.8799     0.2142     1.4963     1.3630   342.7200     1.1536     0.5714
 1073   21.440   3618.47     1.0926     0.0163     0.9074     0.2144     1.4712     1.4931   343.0400     1.1282     0.6091
 1074   21.460   3619.45     1.0939     0.0178     0.9109     0.2146     1.4764     1.6339   343.3600     1.1330     0.6142
 1075   21.480   3620.50     1.1134     0.0187     0.9371     0.2148     1.5036     1.6800   343.6800     1.1599     0.6158
 1076   21.500   3621.49     1.1509     0.0190     0.9497     0.2150     1.5485     1.6702   344.0000     1.2045     0.6074
 1077   21.520   3622.56     1.1652     0.0193     0.9557     0.2152     1.5661     1.6615   344.3200     1.2218     0.6051
 1078   21.540   3623.54     1.1637     0.0203     0.9592     0.2154     1.5661     1.7389   344.6400     1.2214     0.6080
 1079   21.560   3624.55     1.1367     0.0207     0.9768     0.2156     1.5440     1.8075   344.9600     1.1990     0.6290
 1080   21.580   3625.59     1.1494     0.0201     0.9827     0.2158     1.5630     1.7724   345.2800     1.2178     0.6316
 1081   21.600   3626.62     1.1545     0.0206     0.9750     0.2160     1.5631     1.7857   345.6000     1.2175     0.6216
 1082   21.620   3627.62     1.1641     0.0199     0.9734     0.2162     1.5738     1.7105   345.9200     1.2278     0.6183
 1083   21.640   3628.71     1.1746     0.0201     0.9658     0.2164     1.5796     1.7244   346.2400     1.2333     0.6064
 1084   21.660   3629.76     1.1877     0.0195     0.9577     0.2166     1.5939     1.6411   346.5600     1.2474     0.6018
 1085   21.680   3630.78     1.1997     0.0198     0.9364     0.2168     1.5930     1.6545   346.8800     1.2462     0.5775
 1086   21.700   3631.78     1.1978     0.0199     0.9288     0.2170     1.5893     1.6634   347.2000     1.2421     0.5758
 1087   21.720   3632.73     1.2067     0.0196     0.9044     0.2172     1.5905     1.6377   347.5200     1.2429     0.5604
 1088   21.740   3633.77     1.1981     0.0204     0.8841     0.2174     1.5750     1.6779   347.8400     1.2271     0.5540
 1089   21.760   3634.76     1.1791     0.0190     0.8934     0.2176     1.5508     1.6094   348.1600     1.2027     0.5550
 1090   21.780   3635.85     1.1907     0.0187     0.8880     0.2178     1.5672     1.5688   348.4800     1.2187     0.5568
 1091   21.800   3636.89     1.1821     0.0185     0.8776     0.2180     1.5512     1.5585   348.8000     1.2024     0.5496
 1092   21.820   3637.85     1.1531     0.0192     0.8895     0.2182     1.5240     1.6587   349.1200     1.1749     0.5659
 1093   21.840   3638.84     1.0999     0.0192     0.9112     0.2184     1.4748     1.7345   349.4400     1.1254     0.5992
 1094   21.860   3639.88     1.0818     0.0193     0.9296     0.2186     1.4716     1.7856   349.7600     1.1218     0.6325
 1095   21.880   3640.92     1.1017     0.0185     0.9229     0.2188     1.4919     1.6982   350.0800     1.1419     0.6222
 1096   21.900   3641.88     1.1113     0.0185     0.9134     0.2190     1.4959     1.6745   350.4000     1.1455     0.6082
 1097   21.920   3642.91     1.1149     0.0190     0.9056     0.2192     1.4956     1.7006   350.7200     1.1449     0.6004
 1098   21.940   3643.95     1.1118     0.0190     0.9056     0.2194     1.4934     1.7022   351.0400     1.1424     0.6033
 1099   21.960   3644.99     1.1051     0.0186     0.9291     0.2196     1.4923     1.6845   351.3600     1.1409     0.6154
 1100   21.980   3646.02     1.1143     0.0190     0.9226     0.2198     1.5046     1.7142   351.6800     1.1529     0.6154
 1101   22.000   3647.02     1.1063     0.0202     0.9222     0.2200     1.4921     1.8130   352.0000     1.1401     0.6126
 1102   22.020   3648.01     1.1030     0.0201     0.9160     0.2202     1.4888     1.8195   352.3200     1.1365     0.6144
 1103   22.040   3649.01     1.0986     0.0199     0.9182     0.2204     1.4845     1.8101   352.6400     1.1319     0.6171
 1104   22.060   3650.05     1.1367     0.0192     0.8866     0.2206     1.5138     1.6968   352.9600     1.1608     0.5834
 1105   22.080   3651.08     1.1336     0.0189     0.8830     0.2208     1.5050     1.6666   353.2800     1.1517     0.5760
 1106   22.100   3652.09     1.1072     0.0190     0.8856     0.2210     1.4780     1.6968   353.6000     1.1244     0.5886
 1107   22.120   3653.16     1.0758     0.0195     0.9093     0.2212     1.4542     1.8071   353.9200     1.1003     0.6179
 1108   22.140   3654.15     1.0873     0.0201     0.9051     0.2214     1.4692     1.8698   354.2400     1.1149     0.6171
 1109   22.160   3655.15     1.1028     0.0194     0.8960     0.2216     1.4806     1.7619   354.5600     1.1260     0.6020
 1110   22.180   3656.17     1.1344     0.0187     0.8813     0.2218     1.5056     1.6808   354.8800     1.1508     0.5755
 1111   22.200   3657.17     1.1817     0.0190     0.8641     0.2220     1.5498     1.6363   355.2000     1.1946     0.5479
 1112   22.220   3658.18     1.1768     0.0203     0.8602     0.2222     1.5360     1.7096   355.5200     1.1805     0.5362
 1113   22.240   3659.25     1.1591     0.0203     0.8871     0.2224     1.5293     1.7351   355.8400     1.1735     0.5615
 1114   22.260   3660.25     1.1249     0.0208     0.9031     0.2226     1.5037     1.8459   356.1600     1.1476     0.5921
 1115   22.280   3661.33     1.1205     0.0219     0.9012     0.2228     1.4987     1.9516   356.4800     1.1422     0.5932
 1116   22.300   3662.32     1.1172     0.0212     0.8858     0.2230     1.4901     1.8935   356.8000     1.1333     0.5865
 1117   22.320   3663.28     1.1013     0.0208     0.8872     0.2232     1.4750     1.8628   357.1200     1.1179     0.5963
 1118   22.340   3664.31     1.1117     0.0204     0.8834     0.2234     1.4846     1.8504   357.4400     1.1271     0.5894
 1119   22.360   3665.32     1.1102     0.0196     0.8831     0.2236     1.4821     1.7618   357.7600     1.1243     0.5887
 1120   22.380   3666.36     1.1277     0.0211     0.8765     0.2238     1.4981     1.8804   358.0800     1.1401     0.5773
 1121   22.400   3667.37     1.1498     0.0211     0.8745     0.2240     1.5155     1.8581   358.4000     1.1571     0.5589
 1122   22.420   3668.41     1.1898     0.0218     0.8762     0.2242     1.5592     1.8621   358.7200     1.2005     0.5458
 1123   22.440   3669.42     1.2282     0.0223     0.8709     0.2244     1.5927     1.8349   359.0400     1.2336     0.5215
 1124   22.460   3670.41     1.2502     0.0224     0.8567     0.2246     1.6144     1.7922   359.3600     1.2551     0.5120
 1125   22.480   3671.43     1.2187     0.0235     0.8640     0.2248     1.5782     1.9141   359.6800     1.2185     0.5180
 1126   22.500   3672.46     1.1883     0.0256     0.9114     0.2250     1.5646     2.1415   360.0000     1.2046     0.5570
 1127   22.520   3673.48     1.2366     0.0275     0.9513     0.2252     1.6307     2.2571   360.3200     1.2704     0.5614
 1128   22.540   3674.42     1.3116     0.0282     0.9654     0.2254     1.7149     2.2181   360.6400     1.3543     0.5428
 1129   22.560   3675.46     1.4003     0.0297     0.9689     0.2256     1.8080     2.1789   360.9600     1.4471     0.5151
 1130   22.580   3676.54     1.4891     0.0316     0.9664     0.2258     1.8946     2.1484   361.2800     1.5334     0.4825
 1131   22.600   3677.54     1.5276     0.0320     0.9881     0.2260     1.9381     2.1185   361.6000     1.5765     0.4765
 1132   22.620   3678.59     1.5752     0.0332     0.9963     0.2262     1.9941     2.1365   361.9200     1.6322     0.4725
 1133   22.640   3679.59     1.6308     0.0338     1.0070     0.2264     2.0512     2.0888   362.2400     1.6890     0.4587
 1134   22.660   3680.61     1.7086     0.0336     1.0211     0.2266     2.1344     2.0115   362.5600     1.7718     0.4444
 1135   22.680   3681.68     1.7454     0.0342     1.0270     0.2268     2.1787     1.9782   362.8800     1.8158     0.4433
 1136   22.700   3682.63     1.7368     0.0356     1.0220     0.2270     2.1673     2.0326   363.2000     1.8041     0.4423
 1137   22.720   3683.71     1.7037     0.0359     1.0347     0.2272     2.1355     2.1065   363.5200     1.7719     0.4519
 1138   22.740   3684.66     1.7055     0.0359     1.0391     0.2274     2.1398     2.1162   363.8400     1.7759     0.4541
 1139   22.760   3685.74     1.6894     0.0364     1.0413     0.2276     2.1250     2.1504   364.1600     1.7609     0.4598
 1140   22.780   3686.73     1.6821     0.0374     1.0525     0.2278     2.1224     2.2208   364.4800     1.7579     0.4668
 1141   22.800   3687.75     1.6873     0.0371     1.0687     0.2280     2.1313     2.2182   364.8000     1.7665     0.4694
 1142   22.820   3688.75     1.6952     0.0362     1.1167     0.2282     2.1604     2.1503   365.1200     1.7952     0.4898
 1143   22.840   3689.80     1.7566     0.0366     1.1077     0.2284     2.2224     2.1303   365.4400     1.8570     0.4743
 1144   22.860   3690.82     1.7724     0.0372     1.1270     0.2286     2.2417     2.1216   365.7600     1.8760     0.4738
 1145   22.880   3691.82     1.7958     0.0385     1.1305     0.2288     2.2722     2.1438   366.0800     1.9061     0.4750
 1146   22.900   3692.83     1.7930     0.0403     1.0382     0.2290     2.2452     2.2413   366.4000     1.8788     0.4512
 1147   22.920   3693.87     1.7310     0.0387     1.0240     0.2292     2.1588     2.2323   366.7200     1.7920     0.4405
 1148   22.940   3697.06     1.7185     0.0370     1.0064     0.2294     2.1473     2.1613   367.0400     1.7803     0.4449
 1149   22.960   3715.37     1.7703     0.0356     0.9637     0.2296     2.1813     2.0777   367.3600     1.8139     0.4134
 1150   22.980   3732.36     1.8074     0.0341     0.9627     0.2298     2.2036     1.9653   367.6800     1.8359     0.3887
 1151   23.000   3733.36     1.6828     0.0334     1.0251     0.2300     2.1015     1.9202   368.0000     1.7335     0.4426
 1152   23.020   3734.42     1.5963     0.0323     1.1156     0.2302     2.0519     1.9775   368.3200     1.6835     0.5077
 1153   23.040   3735.44     1.5588     0.0319     1.1886     0.2304     2.0509     2.0403   368.6400     1.6823     0.5596
 1154   23.060   3736.47     1.5966     0.0319     1.2325     0.2306     2.1066     2.0195   368.9600     1.7376     0.5661
 1155   23.080   3737.50     1.6337     0.0328     1.2586     0.2308     2.1618     2.0118   369.2800     1.7925     0.5727
 1156   23.100   3738.52     1.6660     0.0340     1.2720     0.2310     2.1953     2.0522   369.6000     1.8257     0.5637
 1157   23.120   3739.52     1.6891     0.0343     1.2932     0.2312     2.2299     2.0503   369.9200     1.8600     0.5680
 1158   23.140   3740.54     1.7368     0.0337     1.3169     0.2314     2.2865     1.9710   370.2400     1.9162     0.5622
 1159   23.160   3741.58     1.7950     0.0334     1.3336     0.2316     2.3519     1.8646   370.5600     1.9814     0.5523
 1160   23.180   3742.53     1.8371     0.0334     1.3457     0.2318     2.4014     1.8378   370.8800     2.0305     0.5476
 1161   23.200   3743.61     1.8730     0.0340     1.3803     0.2320     2.4470     1.8181   371.2000     2.0758     0.5466
 1162   23.220   3744.66     1.8876     0.0339     1.4226     0.2322     2.4783     1.8008   371.5200     2.1068     0.5574
 1163   23.240   3745.69     1.8878     0.0356     1.4385     0.2324     2.4947     1.8824   371.8400     2.1228     0.5711
 1164   23.260   3746.61     1.9001     0.0366     1.4306     0.2326     2.5019     1.9297   372.1600     2.1298     0.5637
 1165   23.280   3747.67     1.9382     0.0375     1.4363     0.2328     2.5391     1.9392   372.4800     2.1667     0.5529
 1166   23.300   3748.72     2.0662     0.0372     1.4176     0.2330     2.6691     1.8375   372.8000     2.2963     0.5237
 1167   23.320   3749.75     2.1869     0.0397     1.3352     0.2332     2.7656     1.8614   373.1200     2.3925     0.4785
 1168   23.340   3750.75     2.2903     0.0390     1.3256     0.2334     2.8247     1.7436   373.4400     2.4512     0.4238
 1169   23.360   3751.74     2.2021     0.0413     1.3495     0.2336     2.7659     1.8509   373.7600     2.3921     0.4635
 1170   23.380   3752.73     2.1036     0.0381     1.3752     0.2338     2.6729     1.7685   374.0800     2.2988     0.4879
 1171   23.400   3753.79     2.0285     0.0387     1.4396     0.2340     2.6230     1.9067   374.4000     2.2486     0.5255
 1172   23.420   3755.92     1.9914     0.0378     1.5121     0.2342     2.6063     1.9558   374.7200     2.2316     0.5509
 1173   23.440   3756.91     2.0626     0.0384     1.4971     0.2344     2.6938     1.8646   375.0400     2.3187     0.5470
 1174   23.460   3757.90     2.0704     0.0383     1.4882     0.2346     2.6978     1.8498   375.3600     2.3224     0.5421
 1175   23.480   3758.99     2.0617     0.0389     1.5067     0.2348     2.6878     1.9095   375.6800     2.3121     0.5431
 1176   23.500   3761.79     1.7850     0.0389     1.5030     0.2350     2.4017     2.1771   376.0000     2.0257     0.6092
 1177   23.520   3762.78     2.1264     0.0384     1.4877     0.2352     2.7555     1.8096   376.3200     2.3792     0.5307
 1178   23.540   3763.76     2.0681     0.0387     1.5088     0.2354     2.6857     1.8389   376.6400     2.3090     0.5349
 1179   23.560   3764.87     1.9964     0.0392     1.5428     0.2356     2.6375     1.9442   376.9600     2.2605     0.5710
 1180   23.580   3765.90     1.9965     0.0399     1.5612     0.2358     2.6528     2.0010   377.2800     2.2755     0.5831
 1181   23.600   3766.90     1.9953     0.0386     1.6112     0.2360     2.6659     1.9319   377.6000     2.2883     0.5946
 1182   23.620   3767.96     2.0737     0.0376     1.5879     0.2362     2.7448     1.8194   377.9200     2.3669     0.5753
 1183   23.640   3768.98     2.1109     0.0366     1.5676     0.2364     2.7702     1.7460   378.2400     2.3919     0.5575
 1184   23.660   3770.01     2.1296     0.0369     1.5568     0.2366     2.7857     1.7409   378.5600     2.4072     0.5507
 1185   23.680   3771.04     2.1074     0.0374     1.5686     0.2368     2.7616     1.7593   378.8800     2.3827     0.5543
 1186   23.700   3772.00     2.0902     0.0375     1.6078     0.2370     2.7627     1.7924   379.2000     2.3835     0.5723
 1187   23.720   3773.01     2.1066     0.0376     1.6233     0.2372     2.7849     1.7900   379.5200     2.4054     0.5728
 1188   23.740   3774.07     2.1355     0.0379     1.6069     0.2374     2.8111     1.7893   379.8400     2.4312     0.5640
 1189   23.760   3775.13     2.1604     0.0384     1.5937     0.2376     2.8351     1.7887   380.1600     2.4550     0.5576
 1190   23.780   3776.16     2.1852     0.0370     1.6034     0.2378     2.8536     1.6980   380.4800     2.4731     0.5473
 1191   23.800   3777.20     2.2216     0.0375     1.6055     0.2380     2.8972     1.7060   380.8000     2.5164     0.5447
 1192   23.820   3778.29     2.2276     0.0379     1.5762     0.2382     2.8923     1.7014   381.1200     2.5112     0.5354
 1193   23.840   3779.23     2.1745     0.0384     1.5689     0.2384     2.8339     1.7413   381.4400     2.4524     0.5429
 1194   23.860   3780.26     2.1165     0.0387     1.5837     0.2386     2.7769     1.8075   381.7600     2.3951     0.5568
 1195   23.880   3781.26     2.0809     0.0377     1.5759     0.2388     2.7424     1.7952   382.0800     2.3604     0.5661
 1196   23.900   3782.22     2.0766     0.0388     1.5841     0.2390     2.7392     1.8606   382.4000     2.3568     0.5680
 1197   23.920   3783.31     2.0549     0.0377     1.6322     0.2392     2.7428     1.8346   382.7200     2.3600     0.5926
 1198   23.940   3784.38     2.0385     0.0380     1.6098     0.2394     2.7204     1.8636   383.0400     2.3374     0.5922
 1199   23.960   3785.37     2.0098     0.0379     1.6399     0.2396     2.6989     1.8872   383.3600     2.3155     0.6050
 1200   23.980   3786.37     2.0376     0.0393     1.6204     0.2398     2.7190     1.9482   383.6800     2.3353     0.5921
 1201   24.000   3787.42     2.0503     0.0403     1.6068     0.2400     2.7221     1.9691   384.0000     2.3381     0.5814
 1202   24.020   3788.48     2.0202     0.0401     1.6361     0.2402     2.7035     1.9719   384.3200     2.3192     0.5980
 1203   24.040   3789.43     2.0309     0.0406     1.6431     0.2404     2.7193     2.0013   384.6400     2.3347     0.5991
 1204   24.060   3790.40     2.0370     0.0394     1.6460     0.2406     2.7311     1.9372   384.9600     2.3461     0.6018
 1205   24.080   3791.49     2.0651     0.0415     1.6354     0.2408     2.7549     2.0175   385.2800     2.3696     0.5915
 1206   24.100   3792.53     2.0861     0.0422     1.6049     0.2410     2.7626     2.0304   385.6000     2.3770     0.5762
 1207   24.120   3793.58     2.0664     0.0425     1.6052     0.2412     2.7425     2.0435   385.9200     2.3566     0.5808
 1208   24.140   3794.60     2.0246     0.0413     1.5889     0.2414     2.6889     2.0227   386.2400     2.3027     0.5821
 1209   24.160   3795.64     2.0236     0.0414     1.6214     0.2416     2.7015     2.0574   386.5600     2.3150     0.5929
 1210   24.180   3796.65     2.0293     0.0392     1.6535     0.2418     2.7177     1.9252   386.8800     2.3309     0.5995
 1211   24.200   3797.77     2.0418     0.0403     1.6752     0.2420     2.7473     1.9768   387.2000     2.3601     0.6092
 1212   24.220   3798.77     2.0513     0.0395     1.6821     0.2422     2.7522     1.9225   387.5200     2.3647     0.6033
 1213   24.240   3799.75     2.0315     0.0376     1.6832     0.2424     2.7421     1.8488   387.8400     2.3543     0.6158
 1214   24.260   3800.80     2.0453     0.0360     1.6760     0.2426     2.7495     1.7646   388.1600     2.3613     0.6073
 1215   24.280   3801.78     2.0764     0.0441     1.6598     0.2428     2.7749     2.1494   388.4800     2.3864     0.5951
 1216   24.300   3802.88     2.1496     0.0487     1.6116     0.2430     2.8352     2.3114   388.8000     2.4464     0.5682
 1217   24.320   3803.86     2.3205     0.0513     1.4424     0.2432     2.9397     2.2704   389.1200     2.5506     0.4827
 1218   24.340   3804.85     2.3362     0.0444     1.3548     0.2434     2.9104     1.8887   389.4400     2.5210     0.4457
 1219   24.360   3805.84     2.2127     0.0388     1.3413     0.2436     2.7713     1.7151   389.7600     2.3815     0.4563
 1220   24.380   3806.83     2.0807     0.0439     1.4413     0.2438     2.6625     2.0995   390.0800     2.2724     0.5023
 1221   24.400   3808.05     2.1702     0.0460     1.5829     0.2440     2.8168     2.2060   390.4000     2.4264     0.5340
 1222   24.420   3809.00     2.4554     0.0686     1.6550     0.2442     3.1391     2.8936   390.7200     2.7483     0.5038
 1223   24.440   3810.00     2.7909     0.0929     1.4671     0.2444     3.4747     3.3887   391.0400     3.0836     0.4491
 1224   24.460   3812.00     2.6975     0.1111     1.2016     0.2446     3.2296     4.0334   391.3600     2.8383     0.3625
 1225   24.480   3813.26     3.4082     0.1283     0.8238     0.2448     3.8404     3.9791   391.6800     3.4487     0.2274
 1226   24.500   3814.31     3.7527     0.1109     0.4784     0.2450     3.9842     3.0685   392.0000     3.5922     0.0853
 1227   24.520   3815.35     3.7693     0.1024     0.4355     0.2452     3.9897     2.6540   392.3200     3.5974     0.0774
 1228   24.540   3816.40     3.2993     0.0939     0.4206     0.2454     3.4779     2.7651   392.6400     3.0853     0.0583
 1229   24.560   3817.42     3.1098     0.0937     0.7580     0.2456     3.3300     2.9225   392.9600     2.9371     0.0963
 1230   24.580   3818.46     3.0127     0.0976     1.0910     0.2458     3.4567     3.3799   393.2800     3.0634     0.2649
 1231   24.600   3819.57     4.3355     0.1066     0.7092     0.2460     4.7017     2.6460   393.6000     4.3081     0.1465
 1232   24.620   3820.61     5.7076     0.1053     0.3296     0.2462     5.8874     1.9564   393.9200     5.4935     0.0336
 1233   24.640   3821.64     6.6621     0.1189     0.1429     0.2464     6.7351     1.8507   394.2400     6.3409    -0.0114
 1234   24.660   3822.72     7.8257     0.1215     0.1671     0.2466     7.9074     1.6322   394.5600     7.5128    -0.0070
 1235   24.680   3823.80     8.7637     0.1308     0.0150     0.2468     8.7903     1.5266   394.8800     8.3954    -0.0218
 1236   24.700   3824.86     9.3219     0.1297    -0.0190     0.2470     9.3198     1.4000   395.2000     8.9246    -0.0282
 1237   24.720   3825.91     9.9486     0.1074    -0.0699     0.2472     9.9376     1.0946   395.5200     9.5421    -0.0286
 1238   24.740   3826.92    11.0310     0.1010    -0.2338     0.2474    10.9558     0.9365   395.8400    10.5600    -0.0403
 1239   24.760   3827.99    12.1594     0.0940    -0.3006     0.2476    12.0325     0.7877   396.1600    11.6363    -0.0473
 1240   24.780   3829.11    12.4491     0.1019    -0.1038     0.2478    12.3348     0.8109   396.4800    11.9384    -0.0436
 1241   24.800   3832.83    11.0863     0.1191    -0.0791     0.2480    11.1404     1.0881   396.8000    10.7436    -0.0108
 1242   24.820   3833.97    11.6511     0.1178    -0.1772     0.2482    11.5879     1.0023   397.1200    11.1908    -0.0357
 1243   24.840   3852.07    11.5547     0.1249    -0.0198     0.2484    11.5236     1.1274   397.4400    11.1262    -0.0292
 1244   24.860   3875.78    11.6867     0.1467    -0.0579     0.2486    11.7149     1.3108   397.7600    11.3172    -0.0161
 1245   24.880   3876.86    10.9494     0.1665    -0.0889     0.2488    10.9263     1.4740   398.0800    10.5282    -0.0289
 1246   24.900   3877.89     9.8007     0.1655    -0.2100     0.2490     9.7220     1.5980   398.4000     9.3236    -0.0469
 1247   24.920   3878.89     8.1359     0.1747    -0.0045     0.2492     8.0904     1.9692   398.7200     7.6917    -0.0462
 1248   24.940   3879.92     6.7197     0.1682     0.1137     0.2494     6.7399     2.2974   399.0400     6.3409    -0.0315
 1249   24.960   3880.96     5.7112     0.1633     0.4712     0.2496     5.8542     2.7030   399.3600     5.4548     0.0170
 1250   24.980   3881.97     4.9563     0.1552     0.8174     0.2498     5.2526     2.9106   399.6800     4.8529     0.0948
 1251   25.000   3883.03     4.2685     0.1371     1.1162     0.2500     4.6865     3.0308   400.0000     4.2865     0.1748
 1252   25.020   3884.05     3.7826     0.1272     1.3209     0.2502     4.3123     3.2698   400.3200     3.9120     0.2587
 1253   25.040   3885.06     3.6518     0.1261     1.3805     0.2504     4.2368     3.4761   400.6400     3.8361     0.2978
 1254   25.060   3886.08     3.6914     0.1313     1.4631     0.2506     4.2781     3.5836   400.9600     3.8771     0.2956
 1255   25.080   3887.14     3.7387     0.1349     1.4603     0.2508     4.3643     3.6064   401.2800     3.9631     0.3126
 1256   25.100   3888.27     3.9375     0.1531     1.4323     0.2510     4.5364     4.0069   401.6000     4.1348     0.2842
 1257   25.120   3889.30     4.8529     0.1725     1.3904     0.2512     5.4407     3.8092   401.9200     5.0388     0.2282
 1258   25.140   3890.40     6.0972     0.1837     1.1176     0.2514     6.6297     3.2026   402.2400     6.2275     0.1637
 1259   25.160   3891.38     6.9767     0.1948     0.8714     0.2516     7.3656     2.8755   402.5600     6.9631     0.0970
 1260   25.180   3892.44     7.8229     0.2033     0.6608     0.2518     8.1377     2.6646   402.8800     7.7348     0.0645
 1261   25.200   3893.46     8.1657     0.2179     0.5918     0.2520     8.4321     2.6764   403.2000     8.0289     0.0476
 1262   25.220   3894.54     8.2852     0.2289     0.7506     0.2522     8.5541     2.6777   403.5200     8.1506     0.0476
 1263   25.240   3895.65     9.2484     0.2258     0.8075     0.2524     9.6253     2.3874   403.8400     9.2215     0.0700
 1264   25.260   3896.73    10.8138     0.2228     0.2983     0.2526    11.0492     2.0971   404.1600    10.6450     0.0290
 1265   25.280   3897.75    11.9389     0.2241    -0.1825     0.2528    11.9071     1.9626   404.4800    11.5026    -0.0286
 1266   25.300   3898.78    12.2207     0.2618    -0.2811     0.2530    12.1058     2.1615   404.8000    11.7010    -0.0450
 1267   25.320   3900.04    12.0829     0.2864    -0.2456     0.2532    11.9746     2.3637   405.1200    11.5694    -0.0442
 1268   25.340   3902.84    11.8388     0.3086    -0.2098     0.2534    11.7455     2.5483   405.4400    11.3400    -0.0418
 1269   25.360   3905.64    11.5946     0.2984    -0.1740     0.2536    11.5164     2.4645   405.7600    11.1106    -0.0395
 1270   25.380   3908.34    11.3240     0.2783    -0.0599     0.2538    11.2653     2.3520   406.0800    10.8592    -0.0362
 1271   25.400   3909.44    11.2395     0.2399     0.2831     0.2540    11.2477     2.1416   406.4000    10.8413    -0.0219
 1272   25.420   3910.56    12.8877     0.1984     0.0110     0.2542    12.9632     1.6059   406.7200    12.5565    -0.0054
 1273   25.440   3911.61    15.0387     0.1512    -0.2784     0.2544    14.9506     1.0547   407.0400    14.5436    -0.0318
 1274   25.460   3912.59    16.9638     0.1228    -0.3126     0.2546    16.8309     0.7487   407.3600    16.4236    -0.0348
 1275   25.480   3913.56    17.7083     0.1343    -0.2886     0.2548    17.5862     0.7611   407.6800    17.1785    -0.0318
 1276   25.500   3914.52    17.0668     0.1620    -0.2563     0.2550    16.9511     0.9289   408.0000    16.5431    -0.0321
 1277   25.520   3915.50    15.4684     0.2161    -0.2247     0.2552    15.3738     1.3522   408.3200    14.9655    -0.0321
 1278   25.540   3916.48    14.1745     0.2540    -0.1622     0.2554    14.0913     1.7539   408.6400    13.6827    -0.0331
 1279   25.560   3917.42    13.4662     0.3027     0.1426     0.2556    13.4737     2.2371   408.9600    13.0647    -0.0182
 1280   25.580   3918.34    13.2588     0.3365     0.2009     0.2558    13.3510     2.5342   409.2800    12.9417    -0.0028
 1281   25.600   3919.31    12.8220     0.2997     0.0002     0.2560    12.8761     2.2904   409.6000    12.4665    -0.0103
 1282   25.620   3920.31    11.4321     0.2664    -0.1710     0.2562    11.4137     2.1825   409.9200    11.0038    -0.0274
 1283   25.640   3921.30    10.2175     0.2269    -0.0936     0.2564    10.1513     2.1493   410.2400     9.7411    -0.0425
 1284   25.660   3922.33     9.0616     0.2040     0.0603     0.2566     9.0314     2.1728   410.5600     8.6209    -0.0380
 1285   25.680   3923.35     8.7030     0.2028     1.0993     0.2568     9.0191     2.3232   410.8800     8.6082     0.0575
 1286   25.700   3924.43     9.3940     0.2009     0.7058     0.2570     9.7414     2.2697   411.2000     9.3302     0.0613
 1287   25.720   3925.49    11.1171     0.1766     0.4953     0.2572    11.3168     1.6313   411.5200    10.9053     0.0197
 1288   25.740   3926.53    13.7255     0.1649    -0.1016     0.2574    13.7290     1.2413   411.8400    13.3172    -0.0185
 1289   25.760   3927.57    16.4145     0.1872    -0.2771     0.2576    16.3213     1.2091   412.1600    15.9091    -0.0300
 1290   25.780   3928.58    18.7316     0.2319    -0.3121     0.2578    18.6069     1.2917   412.4800    18.1944    -0.0305
 1291   25.800   3929.55    20.1934     0.2564    -0.2955     0.2580    20.0647     1.2672   412.8000    19.6519    -0.0287
 1292   25.820   3930.52    19.2313     0.2839    -0.2435     0.2582    19.1208     1.4639   413.1200    18.7077    -0.0279
 1293   25.840   3931.45    17.8303     0.3440    -0.2405     0.2584    17.7295     1.9170   413.4400    17.3161    -0.0288
 1294   25.860   3932.36    14.9869     0.3799    -0.1714     0.2586    14.9058     2.2781   413.7600    14.4920    -0.0312
 1295   25.880   3933.37    14.2862     0.4144     0.6034     0.2588    14.3872     2.9838   414.0800    13.9731    -0.0018
 1296   25.900   3934.42    16.8513     0.3925     0.9850     0.2590    17.2666     2.4291   414.4000    16.8522     0.0435
 1297   25.920   3935.44    20.4177     0.3399     0.5022     0.2592    20.6938     1.6861   414.7200    20.2791     0.0198
 1298   25.940   3936.45    22.8562     0.2791     0.1582     0.2594    22.9789     1.2407   415.0400    22.5639     0.0016
 1299   25.960   3937.47    24.4140     0.2264    -0.0935     0.2596    24.4092     0.9282   415.3600    23.9939    -0.0113
 1300   25.980   3938.47    24.6154     0.1703    -0.2324     0.2598    24.5302     0.6931   415.6800    24.1145    -0.0192
 1301   26.000   3939.48    25.0685     0.1468    -0.2725     0.2600    24.9705     0.5857   416.0000    24.5545    -0.0201
 1302   26.020   3940.48    24.8990     0.1438    -0.3224     0.2602    24.7684     0.5749   416.3200    24.3521    -0.0235
 1303   26.040   3941.48    24.1383     0.1501    -0.3263     0.2604    24.0007     0.6155   416.6400    23.5841    -0.0249
 1304   26.060   3942.41    23.0134     0.1570    -0.3218     0.2606    22.8770     0.6745   416.9600    22.4600    -0.0261
 1305   26.080   3943.38    21.6782     0.1724    -0.3132     0.2608    21.5459     0.7869   417.2800    21.1286    -0.0273
 1306   26.100   3944.36    20.4870     0.1724    -0.3026     0.2610    20.3599     0.8391   417.6000    19.9423    -0.0283
 1307   26.120   3945.34    19.6507     0.1724    -0.2727     0.2612    19.5311     0.8754   417.9200    19.1132    -0.0286
 1308   26.140   3946.29    20.1932     0.1708    -0.2162     0.2614    20.0921     0.8486   418.2400    19.6738    -0.0255
 1309   26.160   3947.32    22.0848     0.1637    -0.0729     0.2616    22.0265     0.7466   418.5600    21.6079    -0.0186
 1310   26.180   3948.35    25.2901     0.1725    -0.1204     0.2618    25.2557     0.6865   418.8800    24.8369    -0.0138
 1311   26.200   3949.35    27.9662     0.1656    -0.1988     0.2620    27.8817     0.6206   419.2000    27.4625    -0.0169
 1312   26.220   3950.34    28.6939     0.1629    -0.2247     0.2622    28.5999     0.5702   419.5200    28.1804    -0.0172
 1313   26.240   3951.34    28.2804     0.1784    -0.1328     0.2624    28.2261     0.6278   419.8400    27.8063    -0.0141
 1314   26.260   3952.37    28.1109     0.1948     0.0859     0.2626    28.0996     0.6947   420.1600    27.6795    -0.0105
 1315   26.280   3953.38    30.0474                0.1355     0.2628    30.0852              420.4800    29.6647    -0.0058
 1316   26.300   3954.39    34.5445                0.1242     0.2630    34.6208              420.8000    34.2000    -0.0024
 1317   26.320   3955.49    38.2590               -0.0565     0.2632    38.2370              421.1200    37.8159    -0.0083
 1318   26.340   3956.60    40.9369               -0.0529     0.2634    40.9359              421.4400    40.5144    -0.0066
 1319   26.360   3957.75    45.0934               -0.1194     0.2636    45.0382              421.7600    44.6164    -0.0089
 1320   26.380   3959.25    54.3045                           0.2638    54.2717              422.0800    53.8496    -0.0063
 
 
