

 Program UNIPLOT                         version 05.36.02
 _______________
 (c) Fugro Netherlands Marine, Nootdorp, The Netherlands


 ASCII representation of data plotted on a graph.

 This ASCII file presents data interpolated to values per fixed depth interval.
 The data are corrected for the depth-offset differences between the various 
 transducers in the penetrometer.

 The records at the start of penetration may include no values or anomalous
 values where a depth offset implies incomplete penetration of a particular
 sensor into the ground.

 The records at the end of penetration may include no values for data channels
 where the transducer did not reach this depth.

 The reference level for test values is (1) the ground surface for onshore tests and (2) the seafloor for nearshore and offshore tests.

 UNICAS data file          : CPT-1012.000                            
 Output using command file : PlotASCII.cmd

 ASCII file created at : date          :05-Jul-2022
                         time          :21:33:45
 Project number                        :20024805                                                                                            
 Date of testing                       :24-Jun-2022                                                                                         
 Location                              :Hong Kong Offshore Wind Farm Project                                                                
 Test name                             :CPT-1012
 Penetrometer                          :F7.5CKE2HAW2/B/3285
 Serial no                             :1701-3285

 Table description:
 Column ID                             :Parameter name
 ___________________________________________________________________________________
 Rec                                   :Record ID, Record ID [-]
 Depth                                 :Depth, Depth [m]
 Time                                  :Time, Time [s]
 Cone                                  :Cone Resistance, Cone Resistance [MPa]
 Friction                              :Sleeve Friction, Sleeve Friction [MPa]
 Pore 2                                :Porewater Pressure, Porewater Pressure at Shoulder [MPa]
 HydroPress                            :Hydrostatic Pressure, Hydrostatic Pressure [MPa]
 qt                                    :Total Cone Resistance, Total Cone Resistance [MPa]
 Fric_ratio                            :Friction Ratio, Friction Ratio [%]
 SigmaVert                             :Vertical stress, Vertical stress [kPa] as specified in ground model
 Qnet                                  :Net Cone Resistance, Net Cone Resistance [MPa], unit weight as specified in ground model
 Bq                                    :Porewater Pressure Ratio, Porewater Pressure Ratio [-], unit weight as specified in ground model


 Data table:
  Rec    Depth      Time       Cone   Friction     Pore 2 HydroPress         qt Fric_ratio  SigmaVert       Qnet         Bq
   No        m         s        MPa        MPa        MPa        MPa        MPa          %        kPa        MPa          -
    1    0.000   1548.41     0.0000                           0.0000     0.0000                0.0000     0.0000           
    2    0.020   1549.39     0.0008                0.0002     0.0002     0.0008                0.3200     0.0005    -0.2853
    3    0.040   1550.32     0.0050                0.0005     0.0004     0.0051                0.6400     0.0045    -0.0018
    4    0.060   1551.26     0.0084                0.0008     0.0006     0.0086                0.9600     0.0077     0.0038
    5    0.080   1552.21     0.0077     0.0004     0.0011     0.0008     0.0082     6.1815     1.2800     0.0069     0.0463
    6    0.100   1553.16     0.0107     0.0009     0.0006     0.0010     0.0110     8.7248     1.6000     0.0094    -0.0322
    7    0.120   1554.11     0.0132     0.0006     0.0002     0.0012     0.0133     5.3412     1.9200     0.0113    -0.0851
    8    0.140   1555.06     0.0134     0.0007    -0.0007     0.0014     0.0132     5.7441     2.2400     0.0110    -0.1741
    9    0.160   1556.03     0.0115     0.0011    -0.0008     0.0016     0.0112     8.4531     2.5600     0.0087    -0.2604
   10    0.180   1556.99     0.0144     0.0010    -0.0014     0.0018     0.0138     7.2253     2.8800     0.0110    -0.2840
   11    0.200   1557.91     0.0109     0.0009    -0.0013     0.0020     0.0106     7.5814     3.2000     0.0074    -0.4013
   12    0.220   1558.85     0.0107     0.0007     0.0004     0.0022     0.0106     6.8481     3.5200     0.0071    -0.3646
   13    0.240   1559.82     0.0120     0.0011     0.0017     0.0024     0.0128     8.9424     3.8400     0.0089    -0.0773
   14    0.260   1560.78     0.0106     0.0011     0.0017     0.0026     0.0114     8.9678     4.1600     0.0072    -0.1150
   15    0.280   1561.74     0.0113     0.0011     0.0015     0.0028     0.0119     9.2958     4.4800     0.0074    -0.1854
   16    0.300   1562.70     0.0129     0.0010     0.0024     0.0030     0.0138     9.7426     4.8000     0.0090    -0.1117
   17    0.320   1563.65     0.0156     0.0009     0.0024     0.0032     0.0167     6.8257     5.1200     0.0115    -0.0666
   18    0.340   1564.59     0.0118     0.0009     0.0034     0.0034     0.0132     6.1081     5.4400     0.0078    -0.0057
   19    0.360   1565.57     0.0138     0.0011     0.0033     0.0036     0.0153     9.4409     5.7600     0.0095    -0.0212
   20    0.380   1566.49     0.0117     0.0011     0.0045     0.0038     0.0134     7.9530     6.0800     0.0074     0.0362
   21    0.400   1567.43     0.0150     0.0009     0.0039     0.0040     0.0168     7.6281     6.4000     0.0104     0.0227
   22    0.420   1568.40     0.0157     0.0010     0.0035     0.0042     0.0172     6.8816     6.7200     0.0105    -0.0664
   23    0.440   1569.33     0.0204     0.0013     0.0042     0.0044     0.0221     6.0429     7.0400     0.0151    -0.0126
   24    0.460   1570.29     0.0223     0.0015     0.0029     0.0046     0.0238     6.6992     7.3600     0.0164    -0.0630
   25    0.480   1571.25     0.0197     0.0017     0.0018     0.0048     0.0206     8.4491     7.6800     0.0129    -0.1985
   26    0.500   1572.17     0.0194     0.0014     0.0017     0.0050     0.0199     7.0934     8.0000     0.0119    -0.3202
   27    0.520   1573.13     0.0192     0.0012     0.0023     0.0052     0.0201     6.5265     8.3200     0.0118    -0.2657
   28    0.540   1574.08     0.0138     0.0015     0.0045     0.0054     0.0155     9.2800     8.6400     0.0068    -0.2311
   29    0.560   1575.02     0.0149     0.0011     0.0046     0.0056     0.0167     7.3743     8.9600     0.0077    -0.1787
   30    0.580   1575.96     0.0141     0.0010     0.0050     0.0058     0.0160     6.7752     9.2800     0.0067    -0.1945
   31    0.600   1576.94     0.0175     0.0011     0.0066     0.0060     0.0201     8.2253     9.6000     0.0105     0.0165
   32    0.620   1577.88     0.0149     0.0010     0.0069     0.0062     0.0178     6.1935     9.9200     0.0079     0.0931
   33    0.640   1578.83     0.0152     0.0014     0.0064     0.0064     0.0181     8.4889    10.2400     0.0079     0.0584
   34    0.660   1579.75     0.0174     0.0011     0.0067     0.0066     0.0200     5.9016    10.5600     0.0094    -0.0443
   35    0.680   1580.70     0.0162     0.0011     0.0082     0.0068     0.0195     6.9119    10.8800     0.0086     0.1054
   36    0.700   1581.66     0.0150     0.0007     0.0094     0.0070     0.0187     4.2558    11.2000     0.0075     0.2734
   37    0.720   1582.61     0.0158     0.0011     0.0104     0.0072     0.0200     7.9636    11.5200     0.0085     0.3376
   38    0.740   1583.56     0.0249     0.0011     0.0107     0.0074     0.0293     5.1842    11.8400     0.0175     0.1753
   39    0.760   1584.51     0.0306     0.0012     0.0099     0.0076     0.0350     4.2062    12.1600     0.0228     0.1240
   40    0.780   1585.46     0.0407     0.0017    -0.0017     0.0078     0.0417     4.7428    12.4800     0.0292    -0.1892
   41    0.800   1586.41     0.0434     0.0017    -0.0024     0.0080     0.0401     3.9183    12.8000     0.0273    -0.5850
   42    0.820   1587.38     0.0372     0.0014     0.0059     0.0082     0.0398     3.4907    13.1200     0.0267    -0.0687
   43    0.840   1588.32     0.0443     0.0019     0.0076     0.0084     0.0473     4.2548    13.4400     0.0338    -0.0404
   44    0.860   1589.26     0.0446     0.0018     0.0073     0.0086     0.0479     3.9552    13.7600     0.0341    -0.0216
   45    0.880   1590.24     0.0421     0.0019     0.0044     0.0088     0.0443     4.2100    14.0800     0.0303    -0.1166
   46    0.900   1591.15     0.0379     0.0022     0.0019     0.0090     0.0390     5.8081    14.4000     0.0246    -0.2594
   47    0.920   1592.12     0.0350     0.0023     0.0023     0.0092     0.0359     6.3974    14.7200     0.0212    -0.3380
   48    0.940   1593.07     0.0330     0.0022     0.0040     0.0094     0.0343     6.2468    15.0400     0.0193    -0.3306
   49    0.960   1594.03     0.0300     0.0020     0.0078     0.0096     0.0326     7.0908    15.3600     0.0172    -0.1988
   50    0.980   1594.96     0.0294     0.0016     0.0099     0.0098     0.0332     5.4357    15.6800     0.0175    -0.0481
   51    1.000   1595.93     0.0315     0.0017     0.0122     0.0100     0.0363     5.1697    16.0000     0.0203     0.0753
   52    1.020   1596.87     0.0263     0.0019     0.0136     0.0102     0.0318     6.8567    16.3200     0.0154     0.1753
   53    1.040   1597.80     0.0283     0.0019     0.0148     0.0104     0.0344     7.0265    16.6400     0.0177     0.2304
   54    1.060   1598.77     0.0290     0.0020     0.0153     0.0106     0.0354     7.1657    16.9600     0.0184     0.2456
   55    1.080   1599.70     0.0314     0.0015     0.0166     0.0108     0.0382     4.8515    17.2800     0.0210     0.2565
   56    1.100   1600.65     0.0305     0.0017     0.0178     0.0110     0.0378     5.6439    17.6000     0.0202     0.3113
   57    1.120   1601.60     0.0313     0.0017     0.0190     0.0112     0.0391     5.4124    17.9200     0.0212     0.3500
   58    1.140   1602.55     0.0327     0.0019     0.0216     0.0114     0.0414     5.9094    18.2400     0.0231     0.4013
   59    1.160   1603.51     0.0342     0.0016     0.0234     0.0116     0.0437     4.9845    18.5600     0.0251     0.4413
   60    1.180   1604.44     0.0427     0.0019     0.0241     0.0118     0.0528     4.6913    18.8800     0.0339     0.3631
   61    1.200   1605.39     0.0419     0.0018     0.0234     0.0120     0.0516     4.2331    19.2000     0.0324     0.3418
   62    1.220   1606.37     0.0441     0.0017     0.0234     0.0122     0.0542     3.9854    19.5200     0.0347     0.3411
   63    1.240   1607.27     0.0407     0.0018     0.0212     0.0124     0.0498     4.1468    19.8400     0.0300     0.3083
   64    1.260   1608.27     0.0438     0.0017     0.0206     0.0126     0.0524     3.9137    20.1600     0.0322     0.2455
   65    1.280   1609.21     0.0452     0.0017     0.0213     0.0128     0.0541     3.8508    20.4800     0.0336     0.2522
   66    1.300   1610.19     0.0503     0.0020     0.0210     0.0130     0.0591     4.1994    20.8000     0.0383     0.2120
   67    1.320   1611.14     0.0528     0.0022     0.0203     0.0132     0.0615     4.2327    21.1200     0.0404     0.1832
   68    1.340   1612.08     0.0542     0.0026     0.0184     0.0134     0.0623     4.7331    21.4400     0.0409     0.1467
   69    1.360   1613.00     0.0551     0.0027     0.0128     0.0136     0.0610     5.1332    21.7600     0.0393     0.0153
   70    1.380   1613.99     0.0517     0.0025     0.0126     0.0138     0.0570     5.0297    22.0800     0.0349    -0.0366
   71    1.400   1614.93     0.0463     0.0023     0.0152     0.0140     0.0523     4.9262    22.4000     0.0299     0.0093
   72    1.420   1615.90     0.0436     0.0024     0.0173     0.0142     0.0505     5.1956    22.7200     0.0278     0.0820
   73    1.440   1616.82     0.0402     0.0021     0.0201     0.0144     0.0482     4.9841    23.0400     0.0252     0.1864
   74    1.460   1617.80     0.0401     0.0021     0.0228     0.0146     0.0494     4.9658    23.3600     0.0260     0.2903
   75    1.480   1634.53     0.0423     0.0018     0.0244     0.0148     0.0523     4.5270    23.6800     0.0286     0.3145
   76    1.500   1653.16     0.0454     0.0020     0.0259     0.0150     0.0561     5.0057    24.0000     0.0321     0.3221
   77    1.520   1665.75     0.0475     0.0020     0.0249     0.0152     0.0581     4.2866    24.3200     0.0337     0.2973
   78    1.540   1666.67     0.0476     0.0020     0.0246     0.0154     0.0580     4.3252    24.6400     0.0334     0.2802
   79    1.560   1667.61     0.0504     0.0020     0.0270     0.0156     0.0615     4.0725    24.9600     0.0365     0.2913
   80    1.580   1668.56     0.0587     0.0020     0.0321     0.0158     0.0714     3.6247    25.2800     0.0461     0.3146
   81    1.600   1669.55     0.0670     0.0023     0.0343     0.0160     0.0809     3.6200    25.6000     0.0553     0.3113
   82    1.620   1670.49     0.0696     0.0023     0.0342     0.0162     0.0841     3.2226    25.9200     0.0582     0.3137
   83    1.640   1671.45     0.0747     0.0024     0.0328     0.0164     0.0884     3.2430    26.2400     0.0622     0.2595
   84    1.660   1672.34     0.0737     0.0027     0.0350     0.0166     0.0880     3.7394    26.5600     0.0614     0.2847
   85    1.680   1673.29     0.0725     0.0024     0.0370     0.0168     0.0878     3.2944    26.8800     0.0609     0.3211
   86    1.700   1674.29     0.0661     0.0027     0.0375     0.0170     0.0818     3.9019    27.2000     0.0546     0.3731
   87    1.720   1675.22     0.0674     0.0028     0.0401     0.0172     0.0839     4.1810    27.5200     0.0564     0.3919
   88    1.740   1676.19     0.0715     0.0028     0.0411     0.0174     0.0885     3.9649    27.8400     0.0606     0.3788
   89    1.760   1677.13     0.0722     0.0028     0.0449     0.0176     0.0905     3.8836    28.1600     0.0624     0.4180
   90    1.780   1678.07     0.0773     0.0028     0.0452     0.0178     0.0963     3.7082    28.4800     0.0679     0.4065
   91    1.800   1679.05     0.0790     0.0030     0.0464     0.0180     0.0981     3.7546    28.8000     0.0693     0.3980
   92    1.820   1680.02     0.0786     0.0028     0.0481     0.0182     0.0985     3.5511    29.1200     0.0694     0.4217
   93    1.840   1680.96     0.0761     0.0029     0.0432     0.0184     0.0944     3.7846    29.4400     0.0649     0.3869
   94    1.860   1681.95     0.0777     0.0031     0.0437     0.0186     0.0958     4.0319    29.7600     0.0660     0.3718
   95    1.880   1682.85     0.0802     0.0031     0.0474     0.0188     0.0993     3.9693    30.0800     0.0692     0.3851
   96    1.900   1683.81     0.0838     0.0039     0.0519     0.0190     0.1051     4.7058    30.4000     0.0747     0.4261
   97    1.920   1684.77     0.0863     0.0032     0.0535     0.0192     0.1085     3.8494    30.7200     0.0778     0.4334
   98    1.940   1685.71     0.0920     0.0034     0.0530     0.0194     0.1145     3.8446    31.0400     0.0834     0.4090
   99    1.960   1686.66     0.0867     0.0032     0.0540     0.0196     0.1091     3.6744    31.3600     0.0778     0.4358
  100    1.980   1687.61     0.0858     0.0032     0.0540     0.0198     0.1087     3.7976    31.6800     0.0770     0.4528
  101    2.000   1688.57     0.0858     0.0033     0.0578     0.0200     0.1095     3.8115    32.0000     0.0775     0.4717
  102    2.020   1689.52     0.0938     0.0033     0.0613     0.0202     0.1188     3.6591    32.3200     0.0864     0.4547
  103    2.040   1690.41     0.0983     0.0037     0.0651     0.0204     0.1251     3.9083    32.6400     0.0925     0.4696
  104    2.060   1691.38     0.1048     0.0038     0.0652     0.0206     0.1328     3.6773    32.9600     0.0998     0.4606
  105    2.080   1692.35     0.1072     0.0036     0.0617     0.0208     0.1334     3.2033    33.2800     0.1001     0.4160
  106    2.100   1693.28     0.1116     0.0038     0.0570     0.0210     0.1365     3.4396    33.6000     0.1029     0.3709
  107    2.120   1694.25     0.1100     0.0038     0.0521     0.0212     0.1322     3.4396    33.9200     0.0983     0.3237
  108    2.140   1695.16     0.1057     0.0041     0.0538     0.0214     0.1280     3.8081    34.2400     0.0938     0.3382
  109    2.160   1696.13     0.1012     0.0042     0.0548     0.0216     0.1242     4.0047    34.5600     0.0897     0.3712
  110    2.180   1697.07     0.1025     0.0039     0.0563     0.0218     0.1254     3.8502    34.8800     0.0905     0.3623
  111    2.200   1698.05     0.1022     0.0036     0.0576     0.0220     0.1261     3.5527    35.2000     0.0909     0.3844
  112    2.220   1698.96     0.1086     0.0035     0.0558     0.0222     0.1319     3.3291    35.5200     0.0964     0.3461
  113    2.240   1699.90     0.1020     0.0031     0.0588     0.0224     0.1263     3.0341    35.8400     0.0905     0.3924
  114    2.260   1700.90     0.0981     0.0029     0.0582     0.0226     0.1228     2.9612    36.1600     0.0866     0.4171
  115    2.280   1701.82     0.0975     0.0031     0.0522     0.0228     0.1208     3.1897    36.4800     0.0843     0.3874
  116    2.300   1702.80     0.0858     0.0031     0.0438     0.0230     0.1058     3.5259    36.8000     0.0690     0.3563
  117    2.320   1703.74     0.0794     0.0033     0.0318     0.0232     0.0941     4.1076    37.1200     0.0569     0.2059
  118    2.340   1704.72     0.0731     0.0030     0.0267     0.0234     0.0850     4.0386    37.4400     0.0475     0.1024
  119    2.360   1705.66     0.0697     0.0031     0.0245     0.0236     0.0800     4.1712    37.7600     0.0423     0.0207
  120    2.380   1706.62     0.0549     0.0031     0.0326     0.0238     0.0669     5.1673    38.0800     0.0288     0.1693
  121    2.400   1707.52     0.0465     0.0032     0.0385     0.0240     0.0616     6.4734    38.4000     0.0232     0.5171
  122    2.420   1708.50     0.0548     0.0031     0.0444     0.0242     0.0723     6.3039    38.7200     0.0336     0.5209
  123    2.440   1709.42     0.0667     0.0031     0.0502     0.0244     0.0873     5.0027    39.0400     0.0482     0.5106
  124    2.460   1710.42     0.0719     0.0029     0.0506     0.0246     0.0929     3.9787    39.3600     0.0536     0.4755
  125    2.480   1711.35     0.0757     0.0031     0.0486     0.0248     0.0968     4.1190    39.6800     0.0571     0.4439
  126    2.500   1712.28     0.0751     0.0033     0.0504     0.0250     0.0956     4.4341    40.0000     0.0556     0.4310
  127    2.520   1713.22     0.0725     0.0035     0.0500     0.0252     0.0937     4.6975    40.3200     0.0534     0.4725
  128    2.540   1714.14     0.0727     0.0035     0.0495     0.0254     0.0936     4.8411    40.6400     0.0529     0.4599
  129    2.560   1715.09     0.0763     0.0035     0.0518     0.0256     0.0979     4.6654    40.9600     0.0570     0.4536
  130    2.580   1716.07     0.0780     0.0033     0.0513     0.0258     0.0997     4.2621    41.2800     0.0584     0.4429
  131    2.600   1717.02     0.0761     0.0034     0.0504     0.0260     0.0975     4.4508    41.6000     0.0559     0.4440
  132    2.620   1717.99     0.0776     0.0033     0.0514     0.0262     0.0991     4.3455    41.9200     0.0572     0.4390
  133    2.640   1718.89     0.0834     0.0037     0.0494     0.0264     0.1052     4.6871    42.2400     0.0629     0.4028
  134    2.660   1719.86     0.0844     0.0039     0.0466     0.0266     0.1037     4.5816    42.5600     0.0611     0.3178
  135    2.680   1720.78     0.0810     0.0031     0.0512     0.0268     0.1019     3.7003    42.8800     0.0590     0.3880
  136    2.700   1721.78     0.0782     0.0030     0.0545     0.0270     0.1008     3.8156    43.2000     0.0576     0.4647
  137    2.720   1722.71     0.0822     0.0029     0.0577     0.0272     0.1059     3.5930    43.5200     0.0624     0.4676
  138    2.740   1723.66     0.0815     0.0033     0.0608     0.0274     0.1065     4.1744    43.8400     0.0627     0.5156
  139    2.760   1724.60     0.0841     0.0035     0.0646     0.0276     0.1108     4.1450    44.1600     0.0666     0.5389
  140    2.780   1725.60     0.0920     0.0037     0.0660     0.0278     0.1197     4.1592    44.4800     0.0752     0.5091
  141    2.800   1726.56     0.0956     0.0040     0.0567     0.0280     0.1206     4.2150    44.8000     0.0758     0.4188
  142    2.820   1727.50     0.0970     0.0039     0.0566     0.0282     0.1203     3.9959    45.1200     0.0752     0.3633
  143    2.840   1728.46     0.0987     0.0039     0.0602     0.0284     0.1235     4.0563    45.4400     0.0781     0.3938
  144    2.860   1729.41     0.0993     0.0040     0.0613     0.0286     0.1247     4.0954    45.7600     0.0790     0.4054
  145    2.880   1730.34     0.0994     0.0039     0.0658     0.0288     0.1262     3.8686    46.0800     0.0801     0.4386
  146    2.900   1731.31     0.0983     0.0039     0.0692     0.0290     0.1270     3.8630    46.4000     0.0806     0.4886
  147    2.920   1732.28     0.1011     0.0037     0.0672     0.0292     0.1300     3.7743    46.7200     0.0833     0.4759
  148    2.940   1733.21     0.1063     0.0043     0.0619     0.0294     0.1330     4.1494    47.0400     0.0860     0.3979
  149    2.960   1734.18     0.1096     0.0041     0.0571     0.0296     0.1342     3.7751    47.3600     0.0869     0.3337
  150    2.980   1735.09     0.1081     0.0043     0.0585     0.0298     0.1324     3.9853    47.6800     0.0847     0.3293
  151    3.000   1736.07     0.1116     0.0042     0.0577     0.0300     0.1364     3.8441    48.0000     0.0884     0.3286
  152    3.020   1737.02     0.1079     0.0041     0.0573     0.0302     0.1313     3.6615    48.3200     0.0830     0.3090
  153    3.040   1737.96     0.0983     0.0038     0.0602     0.0304     0.1228     3.7172    48.6400     0.0742     0.3764
  154    3.060   1738.90     0.0974     0.0041     0.0627     0.0306     0.1237     4.2259    48.9600     0.0747     0.4285
  155    3.080   1739.84     0.0978     0.0042     0.0634     0.0308     0.1244     4.3916    49.2800     0.0751     0.4310
  156    3.100   1740.81     0.0975     0.0042     0.0653     0.0310     0.1248     4.2894    49.6000     0.0752     0.4519
  157    3.120   1741.74     0.0917     0.0041     0.0659     0.0312     0.1192     4.5325    49.9200     0.0693     0.4967
  158    3.140   1742.65     0.0953     0.0040     0.0653     0.0314     0.1229     4.1118    50.2400     0.0727     0.4725
  159    3.160   1743.67     0.0920     0.0038     0.0693     0.0316     0.1205     4.0572    50.5600     0.0699     0.5188
  160    3.180   1744.61     0.0928     0.0036     0.0728     0.0318     0.1230     3.9306    50.8800     0.0722     0.5561
  161    3.200   1745.57     0.0923     0.0039     0.0744     0.0320     0.1237     4.1916    51.2000     0.0725     0.5897
  162    3.220   1746.52     0.0955     0.0039     0.0670     0.0322     0.1245     4.0858    51.5200     0.0730     0.5032
  163    3.240   1747.44     0.0967     0.0039     0.0616     0.0324     0.1237     4.1244    51.8400     0.0718     0.4443
  164    3.260   1748.44     0.1045     0.0043     0.0513     0.0326     0.1275     4.2334    52.1600     0.0753     0.2925
  165    3.280   1749.38     0.1084     0.0042     0.0473     0.0328     0.1286     3.9814    52.4800     0.0761     0.2019
  166    3.300   1750.37     0.1098     0.0042     0.0489     0.0330     0.1300     3.8362    52.8000     0.0772     0.1949
  167    3.320   1751.31     0.1066     0.0043     0.0530     0.0332     0.1281     4.0581    53.1200     0.0750     0.2410
  168    3.340   1752.25     0.1036     0.0045     0.0581     0.0334     0.1272     4.2800    53.4400     0.0738     0.3093
  169    3.360   1753.22     0.1005     0.0045     0.0631     0.0336     0.1263     4.4497    53.7600     0.0725     0.3849
  170    3.380   1754.16     0.0966     0.0041     0.0677     0.0338     0.1243     4.2900    54.0800     0.0703     0.4585
  171    3.400   1755.12     0.0987     0.0040     0.0728     0.0340     0.1286     4.1008    54.4000     0.0742     0.5011
  172    3.420   1767.24     0.1019     0.0044     0.0733     0.0342     0.1327     4.4320    54.7200     0.0779     0.5002
  173    3.440   1784.57     0.1043     0.0040     0.0739     0.0344     0.1353     3.9887    55.0400     0.0803     0.4902
  174    3.460   1801.89     0.1067     0.0040     0.0749     0.0346     0.1379     3.9537    55.3600     0.0826     0.4802
  175    3.480   1804.72     0.1085     0.0038     0.0774     0.0348     0.1407     3.4557    55.6800     0.0850     0.4929
  176    3.500   1805.67     0.1093     0.0039     0.0802     0.0350     0.1423     3.6314    56.0000     0.0863     0.5058
  177    3.520   1806.59     0.1139     0.0040     0.0842     0.0352     0.1488     3.5167    56.3200     0.0925     0.5179
  178    3.540   1807.56     0.1162     0.0042     0.0821     0.0354     0.1517     3.6718    56.6400     0.0950     0.5168
  179    3.560   1808.52     0.1177     0.0041     0.0791     0.0356     0.1509     3.4505    56.9600     0.0940     0.4629
  180    3.580   1809.44     0.1186     0.0042     0.0788     0.0358     0.1517     3.4967    57.2800     0.0944     0.4546
  181    3.600   1810.38     0.1175     0.0042     0.0782     0.0360     0.1501     3.4100    57.6000     0.0925     0.4501
  182    3.620   1811.35     0.1162     0.0042     0.0836     0.0362     0.1505     3.5976    57.9200     0.0925     0.4893
  183    3.640   1812.29     0.1146     0.0037     0.0874     0.0364     0.1510     3.2017    58.2400     0.0928     0.5412
  184    3.660   1813.22     0.1146     0.0036     0.0902     0.0366     0.1521     3.1750    58.5600     0.0936     0.5626
  185    3.680   1814.16     0.1193     0.0041     0.0903     0.0368     0.1573     3.4757    58.8800     0.0985     0.5452
  186    3.700   1815.14     0.1259     0.0040     0.0904     0.0370     0.1639     3.2462    59.2000     0.1047     0.5113
  187    3.720   1816.08     0.1292     0.0043     0.0876     0.0372     0.1666     3.3584    59.5200     0.1071     0.4847
  188    3.740   1817.03     0.1309     0.0042     0.0749     0.0374     0.1648     3.2382    59.8400     0.1049     0.4124
  189    3.760   1817.99     0.1328     0.0042     0.0692     0.0376     0.1624     3.1929    60.1600     0.1022     0.3209
  190    3.780   1818.95     0.1286     0.0043     0.0696     0.0378     0.1580     3.2819    60.4800     0.0975     0.3295
  191    3.800   1819.94     0.1229     0.0044     0.0724     0.0380     0.1526     3.5254    60.8000     0.0918     0.3576
  192    3.820   1820.88     0.1168     0.0040     0.0774     0.0382     0.1485     3.4007    61.1200     0.0874     0.4267
  193    3.840   1821.85     0.1177     0.0038     0.0847     0.0384     0.1521     3.2741    61.4400     0.0906     0.4801
  194    3.860   1822.83     0.1282     0.0040     0.0891     0.0386     0.1655     3.2424    61.7600     0.1037     0.4825
  195    3.880   1823.72     0.1291     0.0038     0.0908     0.0388     0.1668     2.9747    62.0800     0.1047     0.4861
  196    3.900   1824.67     0.1336     0.0041     0.0912     0.0390     0.1723     3.0986    62.4000     0.1099     0.4822
  197    3.920   1825.65     0.1389     0.0038     0.0833     0.0392     0.1756     2.7885    62.7200     0.1129     0.4274
  198    3.940   1826.59     0.1405     0.0039     0.0729     0.0394     0.1716     2.7901    63.0400     0.1086     0.3198
  199    3.960   1827.55     0.1350     0.0042     0.0704     0.0396     0.1648     3.0278    63.3600     0.1015     0.3104
  200    3.980   1828.47     0.1360     0.0044     0.0726     0.0398     0.1660     3.2562    63.6800     0.1023     0.3097
  201    4.000   1829.45     0.1359     0.0046     0.0743     0.0400     0.1674     3.4320    64.0000     0.1034     0.3394
  202    4.020   1830.40     0.1305     0.0043     0.0727     0.0402     0.1613     3.2462    64.3200     0.0970     0.3420
  203    4.040   1831.33     0.1270     0.0044     0.0708     0.0404     0.1570     3.4020    64.6400     0.0924     0.3369
  204    4.060   1832.29     0.1246     0.0044     0.0678     0.0406     0.1536     3.4691    64.9600     0.0887     0.3221
  205    4.080   1833.23     0.1198     0.0043     0.0678     0.0408     0.1478     3.5124    65.2800     0.0826     0.3157
  206    4.100   1834.17     0.1098     0.0045     0.0689     0.0410     0.1388     3.9696    65.6000     0.0732     0.3845
  207    4.120   1835.13     0.1041     0.0043     0.0694     0.0412     0.1329     4.1259    65.9200     0.0670     0.4091
  208    4.140   1836.07     0.1031     0.0040     0.0715     0.0414     0.1328     3.8438    66.2400     0.0666     0.4393
  209    4.160   1837.05     0.1017     0.0036     0.0758     0.0416     0.1328     3.5741    66.5600     0.0662     0.4919
  210    4.180   1837.98     0.1061     0.0034     0.0798     0.0418     0.1392     3.1686    66.8800     0.0723     0.5110
  211    4.200   1838.98     0.1050     0.0033     0.0816     0.0420     0.1391     3.1438    67.2000     0.0719     0.5464
  212    4.220   1839.89     0.1031     0.0035     0.0782     0.0422     0.1370     3.3128    67.5200     0.0694     0.5541
  213    4.240   1840.86     0.0985     0.0031     0.0737     0.0424     0.1293     3.1085    67.8400     0.0615     0.5061
  214    4.260   1841.81     0.0946     0.0030     0.0734     0.0426     0.1254     3.1067    68.1600     0.0572     0.5382
  215    4.280   1842.80     0.0878     0.0031     0.0686     0.0428     0.1172     3.4669    68.4800     0.0487     0.5603
  216    4.300   1843.75     0.0833     0.0032     0.0674     0.0430     0.1115     3.7540    68.8000     0.0427     0.5678
  217    4.320   1844.69     0.0822     0.0030     0.0718     0.0432     0.1116     3.7636    69.1200     0.0425     0.6326
  218    4.340   1845.68     0.0839     0.0030     0.0776     0.0434     0.1158     3.6435    69.4400     0.0463     0.7014
  219    4.360   1846.64     0.0899     0.0029     0.0803     0.0436     0.1234     3.3182    69.7600     0.0536     0.6777
  220    4.380   1847.61     0.0974     0.0028     0.0834     0.0438     0.1322     2.9618    70.0800     0.0621     0.6312
  221    4.400   1848.53     0.1037     0.0032     0.0856     0.0440     0.1392     3.1530    70.4000     0.0688     0.5900
  222    4.420   1849.46     0.1128     0.0036     0.0809     0.0442     0.1479     3.4236    70.7200     0.0772     0.5095
  223    4.440   1850.42     0.1106     0.0038     0.0741     0.0444     0.1430     3.3265    71.0400     0.0720     0.4555
  224    4.460   1851.38     0.1039     0.0035     0.0665     0.0446     0.1325     3.2795    71.3600     0.0611     0.3828
  225    4.480   1852.34     0.0988     0.0036     0.0659     0.0448     0.1263     3.6319    71.6800     0.0546     0.3759
  226    4.500   1853.27     0.0955     0.0031     0.0713     0.0450     0.1245     3.1790    72.0000     0.0525     0.4574
  227    4.520   1854.20     0.0958     0.0035     0.0776     0.0452     0.1276     3.6545    72.3200     0.0553     0.5507
  228    4.540   1855.17     0.0988     0.0032     0.0808     0.0454     0.1325     3.2879    72.6400     0.0599     0.5824
  229    4.560   1856.11     0.1043     0.0031     0.0859     0.0456     0.1394     3.0196    72.9600     0.0665     0.5702
  230    4.580   1857.07     0.1102     0.0032     0.0900     0.0458     0.1473     2.9246    73.2800     0.0741     0.5771
  231    4.600   1858.01     0.1158     0.0034     0.0940     0.0460     0.1547     3.0200    73.6000     0.0811     0.5745
  232    4.620   1858.94     0.1153     0.0033     0.0975     0.0462     0.1557     2.8193    73.9200     0.0817     0.6114
  233    4.640   1859.91     0.1173     0.0032     0.0987     0.0464     0.1583     2.7525    74.2400     0.0841     0.6079
  234    4.660   1860.83     0.1177     0.0032     0.1019     0.0466     0.1601     2.7012    74.5600     0.0856     0.6365
  235    4.680   1861.82     0.1190     0.0033     0.1039     0.0468     0.1623     2.7885    74.8800     0.0874     0.6443
  236    4.700   1862.76     0.1192     0.0033     0.1056     0.0470     0.1632     2.7515    75.2000     0.0880     0.6571
  237    4.720   1863.69     0.1201     0.0034     0.1076     0.0472     0.1653     2.8913    75.5200     0.0897     0.6731
  238    4.740   1864.68     0.1258     0.0036     0.1063     0.0474     0.1704     2.9549    75.8400     0.0946     0.6231
  239    4.760   1865.62     0.1278     0.0035     0.1096     0.0476     0.1731     2.7739    76.1600     0.0970     0.6228
  240    4.780   1866.58     0.1296     0.0039     0.1075     0.0478     0.1752     3.0022    76.4800     0.0987     0.6155
  241    4.800   1867.56     0.1297     0.0037     0.1045     0.0480     0.1740     2.8784    76.8000     0.0972     0.5906
  242    4.820   1868.51     0.1307     0.0037     0.1095     0.0482     0.1758     2.8252    77.1200     0.0987     0.5995
  243    4.840   1869.47     0.1323     0.0034     0.1144     0.0484     0.1796     2.5548    77.4400     0.1022     0.6280
  244    4.860   1870.44     0.1355     0.0032     0.1183     0.0486     0.1852     2.4545    77.7600     0.1074     0.6481
  245    4.880   1871.36     0.1391     0.0033     0.1195     0.0488     0.1886     2.4663    78.0800     0.1105     0.6256
  246    4.900   1872.32     0.1459     0.0035     0.1219     0.0490     0.1968     2.5305    78.4000     0.1184     0.6106
  247    4.920   1873.28     0.1566     0.0037     0.1185     0.0492     0.2076     2.4242    78.7200     0.1289     0.5618
  248    4.940   1874.21     0.1635     0.0037     0.1088     0.0494     0.2102     2.3381    79.0400     0.1311     0.4718
  249    4.960   1875.18     0.1678     0.0038     0.1089     0.0496     0.2132     2.3080    79.3600     0.1338     0.4365
  250    4.980   1876.14     0.1708     0.0043     0.1076     0.0498     0.2165     2.5234    79.6800     0.1368     0.4319
  251    5.000   1877.08     0.1735     0.0045     0.1076     0.0500     0.2180     2.5959    80.0000     0.1380     0.4050
  252    5.020   1878.01     0.1773     0.0050     0.1147     0.0502     0.2243     2.8380    80.3200     0.1440     0.4289
  253    5.040   1879.00     0.1824     0.0045     0.1101     0.0504     0.2303     2.5018    80.6400     0.1496     0.4245
  254    5.060   1879.91     0.1829     0.0045     0.1050     0.0506     0.2273     2.4880    80.9600     0.1463     0.3758
  255    5.080   1880.86     0.1813     0.0047     0.1056     0.0508     0.2252     2.6024    81.2800     0.1439     0.3729
  256    5.100   1881.82     0.1790     0.0046     0.1095     0.0510     0.2245     2.5234    81.6000     0.1429     0.4003
  257    5.120   1882.80     0.1748     0.0046     0.1123     0.0512     0.2217     2.5636    81.9200     0.1398     0.4326
  258    5.140   1883.73     0.1674     0.0041     0.1124     0.0514     0.2146     2.4010    82.2400     0.1324     0.4616
  259    5.160   1884.67     0.1691     0.0044     0.1109     0.0516     0.2161     2.6060    82.5600     0.1336     0.4514
  260    5.180   1885.63     0.1676     0.0042     0.1062     0.0518     0.2127     2.4608    82.8800     0.1299     0.4287
  261    5.200   1886.57     0.1626     0.0042     0.1044     0.0520     0.2066     2.5667    83.2000     0.1234     0.4273
  262    5.220   1887.50     0.1613     0.0046     0.1081     0.0522     0.2061     2.8262    83.5200     0.1226     0.4447
  263    5.240   1888.40     0.1582     0.0045     0.1118     0.0524     0.2047     2.8893    83.8400     0.1209     0.4819
  264    5.260   1889.35     0.1574     0.0044     0.1122     0.0526     0.2052     2.7603    84.1600     0.1210     0.5055
  265    5.280   1890.29     0.1541     0.0043     0.1085     0.0528     0.1996     2.7571    84.4800     0.1152     0.4839
  266    5.300   1891.28     0.1517     0.0043     0.1119     0.0530     0.1980     2.8422    84.8000     0.1132     0.5068
  267    5.320   1892.21     0.1515     0.0041     0.1168     0.0532     0.1998     2.7301    85.1200     0.1147     0.5383
  268    5.340   1893.20     0.1545     0.0039     0.1225     0.0534     0.2052     2.5402    85.4400     0.1198     0.5623
  269    5.360   1894.14     0.1573     0.0041     0.1247     0.0536     0.2094     2.6027    85.7600     0.1236     0.5701
  270    5.380   1895.12     0.1632     0.0039     0.1261     0.0538     0.2160     2.4438    86.0800     0.1299     0.5533
  271    5.400   1896.03     0.1728     0.0041     0.1269     0.0540     0.2257     2.3773    86.4000     0.1393     0.5172
  272    5.420   1897.00     0.1736     0.0044     0.1198     0.0542     0.2256     2.5489    86.7200     0.1389     0.5005
  273    5.440   1897.96     0.1761     0.0047     0.1093     0.0544     0.2227     2.7370    87.0400     0.1356     0.4169
  274    5.460   1898.90     0.1682     0.0047     0.1049     0.0546     0.2111     2.7840    87.3600     0.1238     0.3850
  275    5.480   1899.79     0.1640     0.0046     0.1117     0.0548     0.2102     2.8090    87.6800     0.1225     0.4512
  276    5.500   1900.57     0.1613     0.0047     0.1155     0.0550     0.2093     2.8825    88.0000     0.1213     0.4885
  277    5.520   1907.96     0.1596     0.0044     0.1169     0.0552     0.2086     2.7703    88.3200     0.1203     0.5102
  278    5.540   1921.66     0.1604     0.0042     0.1179     0.0554     0.2098     2.6068    88.6400     0.1211     0.5128
  279    5.560   1935.35     0.1612     0.0041     0.1197     0.0556     0.2110     2.5644    88.9600     0.1220     0.5153
  280    5.580   1938.72     0.1681     0.0041     0.1269     0.0558     0.2205     2.4700    89.2800     0.1312     0.5245
  281    5.600   1939.67     0.1712     0.0039     0.1311     0.0560     0.2257     2.3104    89.6000     0.1361     0.5424
  282    5.620   1940.59     0.1761     0.0038     0.1287     0.0562     0.2311     2.2001    89.9200     0.1412     0.5292
  283    5.640   1941.55     0.1765     0.0040     0.1274     0.0564     0.2302     2.2896    90.2400     0.1400     0.5108
  284    5.660   1942.47     0.1761     0.0041     0.1240     0.0566     0.2288     2.2965    90.5600     0.1382     0.4981
  285    5.680   1943.42     0.1713     0.0041     0.1199     0.0568     0.2219     2.3610    90.8800     0.1310     0.4856
  286    5.700   1944.36     0.1697     0.0043     0.1223     0.0570     0.2205     2.5877    91.2000     0.1293     0.4941
  287    5.720   1945.28     0.1705     0.0042     0.1267     0.0572     0.2230     2.5014    91.5200     0.1315     0.5167
  288    5.740   1946.26     0.1664     0.0041     0.1294     0.0574     0.2205     2.4697    91.8400     0.1287     0.5551
  289    5.760   1947.21     0.1663     0.0040     0.1278     0.0576     0.2204     2.3956    92.1600     0.1282     0.5553
  290    5.780   1948.17     0.1644     0.0041     0.1269     0.0578     0.2176     2.4794    92.4800     0.1251     0.5500
  291    5.800   1949.12     0.1648     0.0041     0.1302     0.0580     0.2189     2.5167    92.8000     0.1261     0.5619
  292    5.820   1950.05     0.1648     0.0041     0.1320     0.0582     0.2201     2.4851    93.1200     0.1270     0.5789
  293    5.840   1951.00     0.1640     0.0038     0.1297     0.0584     0.2194     2.3206    93.4400     0.1260     0.5826
  294    5.860   1951.97     0.1618     0.0040     0.1265     0.0586     0.2150     2.4550    93.7600     0.1212     0.5608
  295    5.880   1952.92     0.1642     0.0039     0.1290     0.0588     0.2178     2.4706    94.0800     0.1237     0.5563
  296    5.900   1953.86     0.1576     0.0038     0.1283     0.0590     0.2114     2.3808    94.4000     0.1170     0.5898
  297    5.920   1954.79     0.1577     0.0039     0.1328     0.0592     0.2129     2.4517    94.7200     0.1182     0.6117
  298    5.940   1955.77     0.1629     0.0037     0.1356     0.0594     0.2193     2.3152    95.0400     0.1242     0.6023
  299    5.960   1956.70     0.1621     0.0034     0.1411     0.0596     0.2206     2.0855    95.3600     0.1252     0.6364
  300    5.980   1957.66     0.1687     0.0037     0.1431     0.0598     0.2288     2.2834    95.6800     0.1331     0.6265
  301    6.000   1958.60     0.1727     0.0042     0.1403     0.0600     0.2322     2.4178    96.0000     0.1362     0.6000
  302    6.020   1959.55     0.1717     0.0042     0.1360     0.0602     0.2289     2.4127    96.3200     0.1326     0.5738
  303    6.040   1960.47     0.1699     0.0042     0.1310     0.0604     0.2263     2.4443    96.6400     0.1297     0.5700
  304    6.060   1961.44     0.1686     0.0043     0.1278     0.0606     0.2222     2.5389    96.9600     0.1252     0.5349
  305    6.080   1962.41     0.1690     0.0039     0.1270     0.0608     0.2224     2.3271    97.2800     0.1251     0.5304
  306    6.100   1963.33     0.1650     0.0036     0.1256     0.0610     0.2180     2.1447    97.6000     0.1204     0.5427
  307    6.120   1964.30     0.1651     0.0037     0.1311     0.0612     0.2190     2.2496    97.9200     0.1211     0.5545
  308    6.140   1965.24     0.1737     0.0039     0.1418     0.0614     0.2316     2.3287    98.2400     0.1334     0.5738
  309    6.160   1966.18     0.1873     0.0036     0.1499     0.0616     0.2494     1.9783    98.5600     0.1508     0.5717
  310    6.180   1967.07     0.1978     0.0035     0.1424     0.0618     0.2600     1.7951    98.8800     0.1611     0.5359
  311    6.200   1968.10     0.2147     0.0038     0.1276     0.0620     0.2706     1.8179    99.2000     0.1714     0.4168
  312    6.220   1969.02     0.2274     0.0044     0.1237     0.0622     0.2798     1.9707    99.5200     0.1803     0.3477
  313    6.240   1969.96     0.2378     0.0053     0.1282     0.0624     0.2911     2.2355    99.8400     0.1913     0.3378
  314    6.260   1970.91     0.2531     0.0060     0.1152     0.0626     0.3031     2.4099   100.1600     0.2030     0.2783
  315    6.280   1971.86     0.2629     0.0068     0.1085     0.0628     0.3089     2.6037   100.4800     0.2084     0.2244
  316    6.300   1972.86     0.2833     0.0081     0.1048     0.0630     0.3282     2.9361   100.8000     0.2274     0.1932
  317    6.320   1973.82     0.2887     0.0093     0.0995     0.0632     0.3311     3.2685   101.1200     0.2300     0.1642
  318    6.340   1974.79     0.2961     0.0106     0.0969     0.0634     0.3371     3.6008   101.4400     0.2356     0.1448
  319    6.360   1975.72     0.3029     0.0111     0.0875     0.0636     0.3416     3.6872   101.7600     0.2398     0.1191
  320    6.380   1976.65     0.3043     0.0103     0.0749     0.0638     0.3372     3.3790   102.0800     0.2351     0.0611
  321    6.400   1991.47     0.2989     0.0090     0.0835     0.0640     0.3327     2.9712   102.4000     0.2303     0.0719
  322    6.420   2011.63     0.2949     0.0087     0.0920     0.0642     0.3323     2.8754   102.7200     0.2296     0.1085
  323    6.440   2031.79     0.2910     0.0083     0.1005     0.0644     0.3319     2.7366   103.0400     0.2289     0.1451
  324    6.460   2044.67     0.2820     0.0079     0.1015     0.0646     0.3249     2.7684   103.3600     0.2215     0.1697
  325    6.480   2045.27     0.2707     0.0075     0.1018     0.0648     0.3134     2.7716   103.6800     0.2097     0.1764
  326    6.500   2045.89     0.2736     0.0070     0.1002     0.0650     0.3162     2.5755   104.0000     0.2122     0.1721
  327    6.520   2046.52     0.2722     0.0066     0.0969     0.0652     0.3133     2.4132   104.3200     0.2090     0.1556
  328    6.540   2047.14     0.2708     0.0061     0.1022     0.0654     0.3125     2.2658   104.6400     0.2078     0.1632
  329    6.560   2047.79     0.2733     0.0058     0.1066     0.0656     0.3175     2.1208   104.9600     0.2125     0.1866
  330    6.580   2048.48     0.2690     0.0054     0.1105     0.0658     0.3148     2.0003   105.2800     0.2095     0.2062
  331    6.600   2049.11     0.2635     0.0061     0.1155     0.0660     0.3112     2.3234   105.6000     0.2056     0.2316
  332    6.620   2049.72     0.2677     0.0071     0.1212     0.0662     0.3177     2.6345   105.9200     0.2118     0.2500
  333    6.640   2050.35     0.2764     0.0081     0.1219     0.0664     0.3276     2.9457   106.2400     0.2214     0.2515
  334    6.660   2050.95     0.2814     0.0084     0.1204     0.0666     0.3322     2.9776   106.5600     0.2256     0.2404
  335    6.680   2051.58     0.2798     0.0088     0.1186     0.0668     0.3299     3.1665   106.8800     0.2230     0.2358
  336    6.700   2052.20     0.2770     0.0084     0.1197     0.0670     0.3269     2.9992   107.2000     0.2197     0.2365
  337    6.720   2071.07     0.2695     0.0086     0.1254     0.0672     0.3213     3.1281   107.5200     0.2138     0.2638
  338    6.740   2096.84     0.2634     0.0082     0.1310     0.0674     0.3177     2.9920   107.8400     0.2098     0.2949
  339    6.760   2119.50     0.2569     0.0078     0.1333     0.0676     0.3131     2.9821   108.1600     0.2049     0.3233
  340    6.780   2120.48     0.2441     0.0076     0.1389     0.0678     0.3014     3.0500   108.4800     0.1930     0.3567
  341    6.800   2121.45     0.2356     0.0074     0.1449     0.0680     0.2957     3.1021   108.8000     0.1869     0.4021
  342    6.820   2122.43     0.2300     0.0070     0.1505     0.0682     0.2924     3.0313   109.1200     0.1833     0.4386
  343    6.840   2123.43     0.2264     0.0065     0.1543     0.0684     0.2908     2.8760   109.4400     0.1813     0.4679
  344    6.860   2124.42     0.2259     0.0064     0.1566     0.0686     0.2914     2.8743   109.7600     0.1816     0.4801
  345    6.880   2125.37     0.2265     0.0061     0.1604     0.0688     0.2933     2.6943   110.0800     0.1832     0.4927
  346    6.900   2126.33     0.2256     0.0062     0.1653     0.0690     0.2945     2.7391   110.4000     0.1841     0.5173
  347    6.920   2127.29     0.2304     0.0066     0.1696     0.0692     0.3010     2.8802   110.7200     0.1902     0.5191
  348    6.940   2128.25     0.2347     0.0066     0.1602     0.0694     0.3037     2.8500   111.0400     0.1927     0.4924
  349    6.960   2129.23     0.2423     0.0065     0.1501     0.0696     0.3065     2.6770   111.3600     0.1951     0.4256
  350    6.980   2130.20     0.2403     0.0069     0.1532     0.0698     0.3040     2.8731   111.6800     0.1923     0.4262
  351    7.000   2131.16     0.2373     0.0071     0.1568     0.0700     0.3028     2.9603   112.0000     0.1908     0.4510
  352    7.020   2132.08     0.2309     0.0070     0.1563     0.0702     0.2965     2.9896   112.3200     0.1842     0.4674
  353    7.040   2133.03     0.2288     0.0067     0.1563     0.0704     0.2945     2.9096   112.6400     0.1818     0.4726
  354    7.060   2133.97     0.2195     0.0064     0.1569     0.0706     0.2853     2.8785   112.9600     0.1724     0.4999
  355    7.080   2134.94     0.2151     0.0064     0.1597     0.0708     0.2817     2.9229   113.2800     0.1684     0.5211
  356    7.100   2135.92     0.2099     0.0061     0.1646     0.0710     0.2781     2.9020   113.6000     0.1645     0.5563
  357    7.120   2136.87     0.2104     0.0060     0.1709     0.0712     0.2813     2.8948   113.9200     0.1673     0.5826
  358    7.140   2137.84     0.2121     0.0058     0.1772     0.0714     0.2857     2.7488   114.2400     0.1715     0.6051
  359    7.160   2138.79     0.2206     0.0057     0.1816     0.0716     0.2964     2.6234   114.5600     0.1819     0.5991
  360    7.180   2139.75     0.2285     0.0058     0.1806     0.0718     0.3048     2.5846   114.8800     0.1899     0.5781
  361    7.200   2140.69     0.2263     0.0060     0.1757     0.0720     0.3007     2.6603   115.2000     0.1855     0.5668
  362    7.220   2141.64     0.2298     0.0061     0.1765     0.0722     0.3043     2.6790   115.5200     0.1888     0.5572
  363    7.240   2142.59     0.2369     0.0064     0.1538     0.0724     0.3045     2.7224   115.8400     0.1886     0.4683
  364    7.260   2143.59     0.2361     0.0063     0.1528     0.0726     0.2994     2.6491   116.1600     0.1833     0.4268
  365    7.280   2144.57     0.2350     0.0064     0.1631     0.0728     0.3022     2.7374   116.4800     0.1857     0.4700
  366    7.300   2145.53     0.2376     0.0060     0.1701     0.0730     0.3083     2.5114   116.8000     0.1915     0.4978
  367    7.320   2146.49     0.2420     0.0062     0.1737     0.0732     0.3144     2.5810   117.1200     0.1973     0.5026
  368    7.340   2147.47     0.2484     0.0066     0.1727     0.0734     0.3211     2.6939   117.4400     0.2036     0.4892
  369    7.360   2148.44     0.2540     0.0068     0.1667     0.0736     0.3251     2.7029   117.7600     0.2074     0.4617
  370    7.380   2149.39     0.2603     0.0068     0.1579     0.0738     0.3281     2.6175   118.0800     0.2100     0.4177
  371    7.400   2150.38     0.2631     0.0068     0.1475     0.0740     0.3267     2.5720   118.4000     0.2083     0.3717
  372    7.420   2151.35     0.2605     0.0068     0.1491     0.0742     0.3220     2.5939   118.7200     0.2033     0.3552
  373    7.440   2152.30     0.2586     0.0068     0.1600     0.0744     0.3242     2.6157   119.0400     0.2051     0.3984
  374    7.460   2153.27     0.2611     0.0071     0.1694     0.0746     0.3310     2.7551   119.3600     0.2116     0.4336
  375    7.480   2154.21     0.2662     0.0069     0.1727     0.0748     0.3390     2.6475   119.6800     0.2193     0.4488
  376    7.500   2155.20     0.2745     0.0075     0.1659     0.0750     0.3449     2.7444   120.0000     0.2249     0.4122
  377    7.520   2167.67     0.2753     0.0072     0.1618     0.0752     0.3439     2.6032   120.3200     0.2235     0.3934
  378    7.540   2183.32     0.2735     0.0073     0.1576     0.0754     0.3403     2.6227   120.6400     0.2197     0.3806
  379    7.560   2197.04     0.2704     0.0075     0.1570     0.0756     0.3359     2.7593   120.9600     0.2150     0.3736
  380    7.580   2198.05     0.2659     0.0074     0.1612     0.0758     0.3327     2.7882   121.2800     0.2114     0.3935
  381    7.600   2198.99     0.2586     0.0072     0.1710     0.0760     0.3291     2.7691   121.6000     0.2075     0.4432
  382    7.620   2199.97     0.2504     0.0069     0.1778     0.0762     0.3241     2.7268   121.9200     0.2022     0.4919
  383    7.640   2200.92     0.2509     0.0066     0.1831     0.0764     0.3269     2.6294   122.2400     0.2046     0.5111
  384    7.660   2201.88     0.2484     0.0066     0.1883     0.0766     0.3264     2.6264   122.5600     0.2038     0.5356
  385    7.680   2202.82     0.2536     0.0064     0.1917     0.0768     0.3343     2.5362   122.8800     0.2114     0.5452
  386    7.700   2203.78     0.2488     0.0059     0.1913     0.0770     0.3288     2.3421   123.2000     0.2056     0.5518
  387    7.720   2204.75     0.2432     0.0054     0.1815     0.0772     0.3211     2.2006   123.5200     0.1976     0.5480
  388    7.740   2205.71     0.2371     0.0054     0.1850     0.0774     0.3133     2.2461   123.8400     0.1895     0.5494
  389    7.760   2206.69     0.2355     0.0053     0.1980     0.0776     0.3165     2.3101   124.1600     0.1923     0.5994
  390    7.780   2207.64     0.2520     0.0055     0.2084     0.0778     0.3384     2.2061   124.4800     0.2140     0.5984
  391    7.800   2208.57     0.2701     0.0056     0.1922     0.0780     0.3543     2.1497   124.8000     0.2295     0.5339
  392    7.820   2209.56     0.2825     0.0065     0.1796     0.0782     0.3598     2.3268   125.1200     0.2346     0.4507
  393    7.840   2210.52     0.2983     0.0067     0.1749     0.0784     0.3726     2.2840   125.4400     0.2472     0.3990
  394    7.860   2211.47     0.3046     0.0065     0.1682     0.0786     0.3763     2.1356   125.7600     0.2506     0.3683
  395    7.880   2212.47     0.3076     0.0056     0.1533     0.0788     0.3709     1.7874   126.0800     0.2448     0.2932
  396    7.900   2213.38     0.3013     0.0055     0.1533     0.0790     0.3644     1.8361   126.4000     0.2380     0.2994
  397    7.920   2214.34     0.3091     0.0061     0.1657     0.0792     0.3758     2.0234   126.7200     0.2491     0.3201
  398    7.940   2215.30     0.3208     0.0072     0.1827     0.0794     0.3955     2.3187   127.0400     0.2685     0.3674
  399    7.960   2216.27     0.3401     0.0081     0.1722     0.0796     0.4169     2.4096   127.3600     0.2895     0.3566
  400    7.980   2217.23     0.3450     0.0085     0.1487     0.0798     0.4088     2.4656   127.6800     0.2811     0.2563
  401    8.000   2218.20     0.3528     0.0093     0.1397     0.0800     0.4134     2.6407   128.0000     0.2854     0.2258
  402    8.020   2219.16     0.3540     0.0104     0.1231     0.0802     0.4081     2.9311   128.3200     0.2798     0.1736
  403    8.040   2220.11     0.3367     0.0104     0.1213     0.0804     0.3876     3.0241   128.6400     0.2590     0.1580
  404    8.060   2221.04     0.3155     0.0102     0.1208     0.0806     0.3668     3.1600   128.9600     0.2379     0.1743
  405    8.080   2222.03     0.3094     0.0100     0.1274     0.0808     0.3627     3.2392   129.2800     0.2334     0.1977
  406    8.100   2222.96     0.3104     0.0101     0.1347     0.0810     0.3663     3.2296   129.6000     0.2367     0.2198
  407    8.120   2223.94     0.3123     0.0095     0.1310     0.0812     0.3689     3.0387   129.9200     0.2390     0.2240
  408    8.140   2224.92     0.2975     0.0092     0.1244     0.0814     0.3503     2.9799   130.2400     0.2201     0.2015
  409    8.160   2225.84     0.2755     0.0092     0.1228     0.0816     0.3266     3.2744   130.5600     0.1960     0.2037
  410    8.180   2226.83     0.2617     0.0084     0.1317     0.0818     0.3156     3.2165   130.8800     0.1847     0.2516
  411    8.200   2227.76     0.2518     0.0085     0.1380     0.0820     0.3093     3.3128   131.2000     0.1781     0.3085
  412    8.220   2228.72     0.2387     0.0086     0.1490     0.0822     0.2987     3.6732   131.5200     0.1672     0.3622
  413    8.240   2229.72     0.2681     0.0080     0.1668     0.0824     0.3356     3.0583   131.8400     0.2038     0.3837
  414    8.260   2230.70     0.2852     0.0075     0.1776     0.0826     0.3588     2.6599   132.1600     0.2266     0.4085
  415    8.280   2231.66     0.3027     0.0086     0.1775     0.0828     0.3787     2.8829   132.4800     0.2462     0.3989
  416    8.300   2232.59     0.3291     0.0086     0.1832     0.0830     0.4028     2.6733   132.8000     0.2700     0.3428
  417    8.320   2233.56     0.3620     0.0088     0.2048     0.0832     0.4453     2.5407   133.1200     0.3122     0.3687
  418    8.340   2234.54     0.4187     0.0093     0.2224     0.0834     0.5110     2.3548   133.4400     0.3775     0.3616
  419    8.360   2235.52     0.4657     0.0091     0.2290     0.0836     0.5614     2.0217   133.7600     0.4277     0.3379
  420    8.380   2236.49     0.4893     0.0074     0.2358     0.0838     0.5879     1.5300   134.0800     0.4538     0.3326
  421    8.400   2237.44     0.4673     0.0057     0.2274     0.0840     0.5650     1.2096   134.4000     0.4306     0.3452
  422    8.420   2238.38     0.4601     0.0074     0.2138     0.0842     0.5530     1.5978   134.7200     0.4182     0.3275
  423    8.440   2239.33     0.4851     0.0105     0.2103     0.0844     0.5721     2.2176   135.0400     0.4371     0.2810
  424    8.460   2240.32     0.4863     0.0126     0.2097     0.0846     0.5777     2.5948   135.3600     0.4424     0.3008
  425    8.480   2241.27     0.4976     0.0140     0.1683     0.0848     0.5734     2.7881   135.6800     0.4377     0.2181
  426    8.500   2242.22     0.4863     0.0138     0.1392     0.0850     0.5478     2.9510   136.0000     0.4118     0.1503
  427    8.520   2243.17     0.5622     0.0139     0.1656     0.0852     0.6275     2.6052   136.3200     0.4912     0.1425
  428    8.540   2244.11     0.6510     0.0144     0.1913     0.0854     0.7286     2.3047   136.6400     0.5919     0.1677
  429    8.560   2245.07     0.6962     0.0121     0.2305     0.0856     0.7867     1.7793   136.9600     0.6498     0.1997
  430    8.580   2246.03     0.7308     0.0109     0.2473     0.0858     0.8317     1.5157   137.2800     0.6944     0.2226
  431    8.600   2246.98     0.8163     0.0101     0.2466     0.0860     0.9174     1.2733   137.6000     0.7798     0.1983
  432    8.620   2247.94     0.7926     0.0098     0.2540     0.0862     0.8966     1.2197   137.9200     0.7587     0.2130
  433    8.640   2248.90     0.6955     0.0119     0.2332     0.0864     0.8034     1.6351   138.2400     0.6652     0.2565
  434    8.660   2249.85     0.7094     0.0119     0.1959     0.0866     0.7949     1.7151   138.5600     0.6563     0.1784
  435    8.680   2250.84     0.7605     0.0114     0.1881     0.0868     0.8393     1.5349   138.8800     0.7004     0.1440
  436    8.700   2251.79     0.7442     0.0127     0.1547     0.0870     0.8152     1.6990   139.2000     0.6760     0.1212
  437    8.720   2252.75     0.6899     0.0142     0.1182     0.0872     0.7481     1.9886   139.5200     0.6086     0.0844
  438    8.740   2253.73     0.5953     0.0127     0.0871     0.0874     0.6321     2.0577   139.8400     0.4923     0.0008
  439    8.760   2254.72     0.6253     0.0131     0.0791     0.0876     0.6598     2.1320   140.1600     0.5196    -0.0108
  440    8.780   2255.69     0.6345     0.0125     0.0292     0.0878     0.6563     1.9293   140.4800     0.5158    -0.0713
  441    8.800   2256.64     0.5438     0.0122     0.0117     0.0880     0.5490     2.1367   140.8000     0.4082    -0.1857
  442    8.820   2257.58     0.5335     0.0118     0.0210     0.0882     0.5400     2.2427   141.1200     0.3988    -0.1826
  443    8.840   2258.55     0.6280     0.0117     0.0341     0.0884     0.6396     2.0081   141.4400     0.4982    -0.1227
  444    8.860   2259.56     0.7689     0.0115     0.0457     0.0886     0.7866     1.5825   141.7600     0.6448    -0.0721
  445    8.880   2260.53     0.7951     0.0110     0.0559     0.0888     0.8174     1.3805   142.0800     0.6753    -0.0528
  446    8.900   2261.47     0.7950     0.0103     0.0636     0.0890     0.8209     1.2904   142.4000     0.6785    -0.0404
  447    8.920   2262.43     0.8068     0.0124     0.0715     0.0892     0.8358     1.5577   142.7200     0.6931    -0.0291
  448    8.940   2263.35     0.7923     0.0130     0.0794     0.0894     0.8242     1.6372   143.0400     0.6811    -0.0197
  449    8.960   2264.35     0.8125     0.0124     0.0881     0.0896     0.8482     1.5395   143.3600     0.7048    -0.0068
  450    8.980   2265.29     0.8995     0.0151     0.0995     0.0898     0.9393     1.7617   143.6800     0.7956     0.0061
  451    9.000   2266.25     1.0410     0.0201     0.1195     0.0900     1.0883     2.0262   144.0000     0.9443     0.0238
  452    9.020   2267.21     1.3369     0.0247     0.1378     0.0902     1.3923     2.0490   144.3200     1.2480     0.0334
  453    9.040   2268.14     1.9880     0.0289     0.1262     0.0904     2.0450     1.6181   144.6400     1.9004     0.0245
  454    9.060   2269.11     2.7898     0.0313     0.0627     0.0906     2.8237     1.2165   144.9600     2.6787    -0.0034
  455    9.080   2270.09     3.5189     0.0363     0.0073     0.0908     3.5295     1.0906   145.2800     3.3842    -0.0193
  456    9.100   2271.08     3.9776     0.0364    -0.0100     0.0910     3.9742     0.9376   145.6000     3.8286    -0.0259
  457    9.120   2272.06     4.0912     0.0366    -0.0183     0.0912     4.0842     0.8959   145.9200     3.9382    -0.0274
  458    9.140   2273.03     3.9651     0.0375    -0.0261     0.0914     3.9547     0.9351   146.2400     3.8085    -0.0305
  459    9.160   2273.98     3.8714     0.0376    -0.0180     0.0916     3.8627     0.9668   146.5600     3.7161    -0.0302
  460    9.180   2274.93     3.9549     0.0357    -0.0088     0.0918     3.9514     0.9091   146.8800     3.8045    -0.0263
  461    9.200   2275.88     4.3532     0.0343    -0.0392     0.0920     4.3416     0.8031   147.2000     4.1944    -0.0285
  462    9.220   2276.88     4.8767     0.0340    -0.0496     0.0922     4.8575     0.7114   147.5200     4.7100    -0.0293
  463    9.240   2277.88     5.1761     0.0344    -0.0524     0.0924     5.1541     0.6748   147.8400     5.0063    -0.0289
  464    9.260   2278.85     5.3317     0.0363    -0.0565     0.0926     5.3085     0.6839   148.1600     5.1603    -0.0286
  465    9.280   2279.83     5.4546     0.0390    -0.0583     0.0928     5.4300     0.7175   148.4800     5.2815    -0.0286
  466    9.300   2280.81     5.3931     0.0418    -0.0534     0.0930     5.3699     0.7705   148.8000     5.2211    -0.0284
  467    9.320   2281.80     5.2543     0.0427    -0.0489     0.0932     5.2330     0.8020   149.1200     5.0839    -0.0283
  468    9.340   2282.78     5.0008     0.0422    -0.0421     0.0934     4.9820     0.8295   149.4400     4.8326    -0.0286
  469    9.360   2283.73     4.7939     0.0432    -0.0364     0.0936     4.7779     0.8933   149.7600     4.6281    -0.0285
  470    9.380   2284.73     4.5900     0.0446    -0.0306     0.0938     4.5762     0.9603   150.0800     4.4261    -0.0286
  471    9.400   2285.66     4.3919     0.0516    -0.0240     0.0940     4.3808     1.1552   150.4000     4.2304    -0.0285
  472    9.420   2286.64     4.0692     0.0513    -0.0147     0.0942     4.0619     1.2588   150.7200     3.9111    -0.0286
  473    9.440   2287.61     3.6859     0.0507    -0.0328     0.0944     3.6759     1.3584   151.0400     3.5249    -0.0336
  474    9.460   2288.60     3.2401     0.0492    -0.0427     0.0946     3.2221     1.4437   151.3600     3.0708    -0.0448
  475    9.480   2289.53     2.8582     0.0463    -0.0311     0.0948     2.8436     1.5283   151.6800     2.6919    -0.0482
  476    9.500   2290.48     2.4004     0.0470    -0.0350     0.0950     2.3881     1.8333   152.0000     2.2361    -0.0557
  477    9.520   2299.43     2.4533     0.0462    -0.0153     0.0952     2.4437     2.0941   152.3200     2.2913    -0.0551
  478    9.540   2313.88     2.8707     0.0431     0.0069     0.0954     2.8704     1.9513   152.6400     2.7177    -0.0397
  479    9.560   2328.32     3.2880     0.0355     0.0160     0.0956     3.2970     1.4987   152.9600     3.1441    -0.0242
  480    9.580   2330.75     3.9197     0.0297    -0.0005     0.0958     3.9211     0.7925   153.2800     3.7678    -0.0245
  481    9.600   2331.72     4.3627     0.0246    -0.0091     0.0960     4.3600     0.5802   153.6000     4.2064    -0.0244
  482    9.620   2332.68     4.6752     0.0275    -0.0202     0.0962     4.6684     0.5945   153.9200     4.5145    -0.0249
  483    9.640   2333.65     4.9875     0.0304    -0.0242     0.0964     4.9778     0.6213   154.2400     4.8235    -0.0248
  484    9.660   2334.63     5.4499     0.0353    -0.0217     0.0966     5.4404     0.6676   154.5600     5.2858    -0.0226
  485    9.680   2335.58     5.9804     0.0419    -0.0179     0.0968     5.9722     0.7146   154.8800     5.8174    -0.0200
  486    9.700   2336.58     6.5088     0.0480    -0.0108     0.0970     6.5031     0.7460   155.2000     6.3479    -0.0174
  487    9.720   2337.55     6.8625     0.0539    -0.0151     0.0972     6.8581     0.7916   155.5200     6.7026    -0.0161
  488    9.740   2338.55     7.0176     0.0606    -0.0219     0.0974     7.0080     0.8662   155.8400     6.8522    -0.0175
  489    9.760   2339.48     7.0387     0.0700    -0.0174     0.0976     7.0307     0.9937   156.1600     6.8745    -0.0170
  490    9.780   2340.52     6.8135     0.0799    -0.0158     0.0978     6.8069     1.1587   156.4800     6.6504    -0.0171
  491    9.800   2341.50     6.1986     0.0943    -0.0154     0.0980     6.1922     1.4649   156.8000     6.0354    -0.0188
  492    9.820   2342.49     5.1677     0.0980    -0.0120     0.0982     5.1620     1.7592   157.1200     5.0049    -0.0224
  493    9.840   2343.46     4.2089     0.0922    -0.0063     0.0984     4.2052     2.0504   157.4400     4.0478    -0.0265
  494    9.860   2344.38     3.4932     0.0916     0.0011     0.0986     3.4924     2.5131   157.7600     3.3346    -0.0302
  495    9.880   2345.34     3.0769     0.0848     0.0253     0.0988     3.0811     2.7013   158.0800     2.9230    -0.0304
  496    9.900   2346.29     2.7430     0.0689     0.0428     0.0990     2.7621     2.4241   158.4000     2.6037    -0.0205
  497    9.920   2347.26     2.5074     0.0625     0.0746     0.0992     2.5315     2.4634   158.7200     2.3728    -0.0175
  498    9.940   2348.24     2.4550     0.0637     0.0969     0.0994     2.4941     2.5874   159.0400     2.3351    -0.0027
  499    9.960   2349.26     2.5638     0.0722     0.0969     0.0996     2.6048     2.9104   159.3600     2.4455    -0.0008
  500    9.980   2350.20     2.9904     0.0669     0.1000     0.0998     3.0335     2.3546   159.6800     2.8738     0.0010
  501   10.000   2351.19     3.3998     0.0578     0.0555     0.1000     3.4296     1.7268   160.0000     3.2696    -0.0088
  502   10.020   2352.11     3.3194     0.0534     0.0350     0.1002     3.3360     1.5811   160.3200     3.1757    -0.0191
  503   10.040   2353.11     3.1259     0.0514     0.0415     0.1004     3.1426     1.6561   160.6400     2.9819    -0.0204
  504   10.060   2354.08     3.2921     0.0485     0.0463     0.1006     3.3096     1.5141   160.9600     3.1487    -0.0188
  505   10.080   2355.04     3.9791     0.0454     0.0387     0.1008     3.9992     1.1902   161.2800     3.8379    -0.0138
  506   10.100   2356.01     4.6206     0.0395     0.0233     0.1010     4.6315     0.8831   161.6000     4.4699    -0.0168
  507   10.120   2356.98     5.1147     0.0315     0.0212     0.1012     5.1244     0.6267   161.9200     4.9625    -0.0157
  508   10.140   2358.00     5.6856     0.0308     0.0148     0.1014     5.6964     0.5604   162.2400     5.5342    -0.0137
  509   10.160   2358.98     6.0679     0.0349    -0.0130     0.1016     6.0627     0.5795   162.5600     5.9002    -0.0193
  510   10.180   2359.98     6.0261     0.0402    -0.0176     0.1018     6.0194     0.6660   162.8800     5.8565    -0.0201
  511   10.200   2360.93     5.9854     0.0448    -0.0152     0.1020     5.9784     0.7489   163.2000     5.8152    -0.0204
  512   10.220   2361.93     6.0181     0.0464    -0.0110     0.1022     6.0132     0.7715   163.5200     5.8496    -0.0195
  513   10.240   2362.90     5.9972     0.0505    -0.0094     0.1024     5.9931     0.8395   163.8400     5.8293    -0.0192
  514   10.260   2363.87     5.8779     0.0576    -0.0078     0.1026     5.8742     0.9722   164.1600     5.7101    -0.0195
  515   10.280   2364.79     5.7827     0.0635    -0.0004     0.1028     5.7810     1.0976   164.4800     5.6166    -0.0190
  516   10.300   2365.80     5.9228     0.0638     0.0118     0.1030     5.9261     1.0878   164.8000     5.7613    -0.0165
  517   10.320   2366.82     6.2517     0.0726     0.0165     0.1032     6.2590     1.1794   165.1200     6.0939    -0.0141
  518   10.340   2367.79     6.3572     0.0933     0.0088     0.1034     6.3618     1.4529   165.4400     6.1963    -0.0149
  519   10.360   2368.74     6.0130     0.0954     0.0061     0.1036     6.0157     1.5699   165.7600     5.8500    -0.0166
  520   10.380   2369.74     5.7758     0.0840     0.0028     0.1038     5.7773     1.4387   166.0800     5.6112    -0.0179
  521   10.400   2370.70     5.3104     0.0781     0.0007     0.1040     5.3118     1.4438   166.4000     5.1454    -0.0196
  522   10.420   2371.66     4.8334     0.0742     0.0011     0.1042     4.8324     1.5303   166.7200     4.6657    -0.0228
  523   10.440   2372.66     5.0854     0.0691     0.0258     0.1044     5.0954     1.3936   167.0400     4.9283    -0.0164
  524   10.460   2373.64     6.2851     0.0636     0.0112     0.1046     6.2922     1.0832   167.3600     6.1249    -0.0143
  525   10.480   2374.64     7.6641     0.0570    -0.0550     0.1048     7.6528     0.7777   167.6800     7.4851    -0.0175
  526   10.500   2375.67     8.5889     0.0506    -0.0493     0.1050     8.5645     0.6070   168.0000     8.3965    -0.0195
  527   10.520   2376.62     8.9493     0.0536    -0.0529     0.1052     8.9272     0.5978   168.3200     8.7589    -0.0180
  528   10.540   2377.55     8.5817     0.0686    -0.0531     0.1054     8.5596     0.7872   168.6400     8.3909    -0.0188
  529   10.560   2378.56     7.7970     0.0785    -0.0554     0.1056     7.7755     0.9782   168.9600     7.6065    -0.0206
  530   10.580   2379.52     6.7023     0.0899    -0.0568     0.1058     6.6786     1.2764   169.2800     6.5093    -0.0250
  531   10.600   2380.51     5.6603     0.1037    -0.0547     0.1060     5.6370     1.7441   169.6000     5.4674    -0.0296
  532   10.620   2381.48     4.4417     0.1039    -0.0500     0.1062     4.4200     2.1617   169.9200     4.2501    -0.0372
  533   10.640   2382.45     3.4684     0.0916    -0.0438     0.1064     3.4491     2.4270   170.2400     3.2789    -0.0465
  534   10.660   2383.36     2.7045     0.0739    -0.0325     0.1066     2.6895     2.5292   170.5600     2.5189    -0.0566
  535   10.680   2384.34     2.1170     0.0615    -0.0195     0.1068     2.1067     2.7479   170.8800     1.9358    -0.0679
  536   10.700   2385.30     1.7027     0.0540     0.0098     0.1070     1.7013     3.0575   171.2000     1.5301    -0.0719
  537   10.720   2386.29     1.5661     0.0464     0.0415     0.1072     1.5790     2.9482   171.5200     1.4075    -0.0544
  538   10.740   2387.23     1.7185     0.0402     0.0735     0.1074     1.7450     2.4118   171.8400     1.5732    -0.0285
  539   10.760   2388.23     2.0582     0.0332     0.0949     0.1076     2.0958     1.6766   172.1600     1.9236    -0.0095
  540   10.780   2389.20     2.2736     0.0324     0.0987     0.1078     2.3156     1.4295   172.4800     2.1431    -0.0036
  541   10.800   2390.19     2.1787     0.0367     0.0959     0.1080     2.2181     1.6550   172.8000     2.0453    -0.0069
  542   10.820   2391.20     2.4200     0.0354     0.1076     0.1082     2.4631     1.5488   173.1200     2.2900    -0.0025
  543   10.840   2392.16     3.5850     0.0367     0.1191     0.1084     3.6347     1.1509   173.4400     3.4613     0.0029
  544   10.860   2393.18     5.4656     0.0421     0.0520     0.1086     5.5016     0.8449   173.7600     5.3279    -0.0039
  545   10.880   2394.13     6.5233     0.0475    -0.0119     0.1088     6.5254     0.7388   174.0800     6.3513    -0.0163
  546   10.900   2395.10     6.4069     0.0504    -0.0403     0.1090     6.3925     0.7738   174.4000     6.2181    -0.0231
  547   10.920   2396.09     5.5067     0.0604    -0.0452     0.1092     5.4876     1.0520   174.7200     5.3128    -0.0292
  548   10.940   2397.07     4.6777     0.0727    -0.0440     0.1094     4.6589     1.4894   175.0400     4.4839    -0.0344
  549   10.960   2398.03     4.2102     0.0747    -0.0360     0.1096     4.1940     1.7144   175.3600     4.0186    -0.0369
  550   10.980   2399.00     3.9190     0.0763    -0.0309     0.1098     3.9054     1.9052   175.6800     3.7298    -0.0381
  551   11.000   2399.98     3.7596     0.0774    -0.0135     0.1100     3.7502     2.0441   176.0000     3.5742    -0.0371
  552   11.020   2400.95     3.5620     0.0716    -0.0115     0.1102     3.5568     1.9536   176.3200     3.3805    -0.0362
  553   11.040   2401.88     3.1165     0.0643    -0.0304     0.1104     3.1080     1.9583   176.6400     2.9314    -0.0446
  554   11.060   2402.82     2.5870     0.0622    -0.0313     0.1106     2.5722     2.2619   176.9600     2.3953    -0.0610
  555   11.080   2403.78     2.1961     0.0565    -0.0187     0.1108     2.1871     2.4664   177.2800     2.0098    -0.0659
  556   11.100   2404.79     1.9021     0.0520    -0.0030     0.1110     1.8973     2.6320   177.6000     1.7197    -0.0713
  557   11.120   2405.77     1.8694     0.0462     0.0233     0.1112     1.8760     2.5160   177.9200     1.6981    -0.0562
  558   11.140   2406.71     2.0309     0.0424     0.0331     0.1114     2.0440     2.1398   178.2400     1.8657    -0.0431
  559   11.160   2407.66     2.1025     0.0388     0.0411     0.1116     2.1181     1.8600   178.5600     1.9395    -0.0384
  560   11.180   2408.62     2.1793     0.0414     0.0505     0.1118     2.1987     1.9192   178.8800     2.0198    -0.0325
  561   11.200   2409.54     2.1797     0.0432     0.0623     0.1120     2.2037     1.9726   179.2000     2.0245    -0.0271
  562   11.220   2410.56     2.1582     0.0441     0.0682     0.1122     2.1860     2.0521   179.5200     2.0065    -0.0229
  563   11.240   2411.53     2.1751     0.0439     0.0817     0.1124     2.2075     2.0107   179.8400     2.0276    -0.0174
  564   11.260   2412.49     2.1147     0.0406     0.0902     0.1126     2.1514     1.8977   180.1600     1.9713    -0.0127
  565   11.280   2413.46     1.9267     0.0380     0.1151     0.1128     1.9716     1.9244   180.4800     1.7911    -0.0032
  566   11.300   2414.43     1.7031     0.0369     0.1349     0.1130     1.7553     2.0915   180.8000     1.5745     0.0072
  567   11.320   2415.39     1.6047     0.0393     0.1710     0.1132     1.6708     2.4312   181.1200     1.4896     0.0296
  568   11.340   2416.42     1.5998     0.0361     0.2090     0.1134     1.6821     2.2692   181.4400     1.5007     0.0551
  569   11.360   2417.38     1.7609     0.0342     0.2435     0.1136     1.8584     1.9990   181.7600     1.6767     0.0707
  570   11.380   2418.34     1.8589     0.0333     0.2645     0.1138     1.9672     1.8208   182.0800     1.7852     0.0808
  571   11.400   2419.30     1.9201     0.0407     0.2807     0.1140     2.0356     2.2803   182.4000     1.8532     0.0868
  572   11.420   2420.25     1.7602     0.0514     0.2953     0.1142     1.8826     3.0217   182.7200     1.6999     0.1045
  573   11.440   2421.20     1.6031     0.0619     0.3301     0.1144     1.7342     3.7545   183.0400     1.5512     0.1278
  574   11.460   2422.20     1.5333     0.0642     0.3803     0.1146     1.6870     4.1881   183.3600     1.5036     0.1671
  575   11.480   2423.14     1.5234     0.0599     0.4216     0.1148     1.6932     3.9464   183.6800     1.5095     0.1918
  576   11.500   2429.67     1.5723     0.0531     0.3876     0.1150     1.7493     3.4535   184.0000     1.5653     0.1983
  577   11.520   2453.15     1.7168     0.0518     0.2896     0.1152     1.8526     3.3678   184.3200     1.6683     0.1317
  578   11.540   2476.62     1.8612     0.0470     0.1916     0.1154     1.9559     3.0559   184.6400     1.7713     0.0652
  579   11.560   2485.54     1.8016     0.0426     0.2209     0.1156     1.8889     2.2908   184.9600     1.7040     0.0544
  580   11.580   2486.55     1.6317     0.0389     0.2525     0.1158     1.7332     2.3056   185.2800     1.5479     0.0814
  581   11.600   2487.51     1.5584     0.0342     0.2713     0.1160     1.6688     2.1814   185.6000     1.4832     0.0989
  582   11.620   2488.49     1.5494     0.0358     0.3171     0.1162     1.6767     2.2868   185.9200     1.4907     0.1253
  583   11.640   2489.45     1.5948     0.0368     0.3482     0.1164     1.7363     2.3717   186.2400     1.5501     0.1422
  584   11.660   2490.37     1.6901     0.0349     0.3515     0.1166     1.8381     2.0970   186.5600     1.6515     0.1427
  585   11.680   2491.29     1.7363     0.0398     0.3482     0.1168     1.8822     2.2960   186.8800     1.6953     0.1360
  586   11.700   2492.30     1.7775     0.0416     0.3592     0.1170     1.9256     2.3872   187.2000     1.7384     0.1356
  587   11.720   2493.25     1.8946     0.0477     0.3758     0.1172     2.0488     2.5475   187.5200     1.8613     0.1343
  588   11.740   2494.21     2.0467     0.0536     0.3829     0.1174     2.2103     2.7154   187.8400     2.0224     0.1349
  589   11.760   2495.21     2.3011     0.0523     0.3230     0.1176     2.4478     2.3361   188.1600     2.2596     0.1027
  590   11.780   2496.18     2.2908     0.0474     0.3028     0.1178     2.4156     2.0208   188.4800     2.2271     0.0806
  591   11.800   2497.17     2.0261     0.0452     0.3136     0.1180     2.1558     2.1257   188.8000     1.9670     0.0973
  592   11.820   2498.13     1.6840     0.0424     0.3433     0.1182     1.8242     2.3902   189.1200     1.6351     0.1324
  593   11.840   2499.09     1.4422     0.0382     0.3892     0.1184     1.5965     2.5538   189.4400     1.4070     0.1772
  594   11.860   2500.03     1.4011     0.0324     0.4168     0.1186     1.5739     2.3115   189.7600     1.3841     0.2115
  595   11.880   2501.03     1.3859     0.0267     0.4472     0.1188     1.5714     1.9178   190.0800     1.3813     0.2337
  596   11.900   2501.98     1.3537     0.0248     0.4783     0.1190     1.5526     1.8166   190.4000     1.3622     0.2603
  597   11.920   2502.97     1.3928     0.0245     0.5086     0.1192     1.6026     1.7766   190.7200     1.4119     0.2695
  598   11.940   2503.93     1.4461     0.0231     0.5223     0.1194     1.6627     1.6168   191.0400     1.4717     0.2694
  599   11.960   2504.88     1.4018     0.0240     0.5468     0.1196     1.6277     1.6820   191.3600     1.4364     0.2912
  600   11.980   2505.84     1.3568     0.0270     0.5701     0.1198     1.5920     1.9757   191.6800     1.4004     0.3145
  601   12.000   2506.77     1.3511     0.0274     0.5993     0.1200     1.5991     2.0354   192.0000     1.4071     0.3343
  602   12.020   2507.72     1.3602     0.0253     0.6140     0.1202     1.6166     1.8699   192.3200     1.4243     0.3442
  603   12.040   2508.71     1.3740     0.0256     0.6071     0.1204     1.6313     1.8695   192.6400     1.4387     0.3422
  604   12.060   2509.66     1.3556     0.0248     0.5942     0.1206     1.6062     1.8165   192.9600     1.4132     0.3369
  605   12.080   2510.62     1.3124     0.0248     0.6084     0.1208     1.5641     1.8646   193.2800     1.3708     0.3492
  606   12.100   2511.61     1.3165     0.0228     0.6117     0.1210     1.5750     1.7480   193.6000     1.3814     0.3579
  607   12.120   2512.57     1.3525     0.0205     0.5905     0.1212     1.6037     1.5255   193.9200     1.4098     0.3383
  608   12.140   2513.52     1.3410     0.0207     0.5618     0.1214     1.5799     1.5358   194.2400     1.3856     0.3229
  609   12.160   2514.45     1.3043     0.0207     0.5585     0.1216     1.5363     1.5646   194.5600     1.3418     0.3212
  610   12.180   2515.40     1.2287     0.0216     0.5833     0.1218     1.4700     1.7322   194.8800     1.2751     0.3550
  611   12.200   2516.36     1.2668     0.0246     0.5894     0.1220     1.5159     1.9622   195.2000     1.3207     0.3568
  612   12.220   2517.36     1.2661     0.0251     0.5752     0.1222     1.5096     1.9720   195.5200     1.3141     0.3481
  613   12.240   2518.30     1.3185     0.0211     0.5719     0.1224     1.5591     1.6201   195.8400     1.3633     0.3305
  614   12.260   2519.26     1.3620     0.0190     0.5689     0.1226     1.5993     1.3899   196.1600     1.4032     0.3154
  615   12.280   2520.23     1.4048     0.0261     0.5950     0.1228     1.6512     1.8970   196.4800     1.4547     0.3189
  616   12.300   2521.19     1.6654     0.0263     0.6225     0.1230     1.9224     1.6554   196.8000     1.7256     0.2844
  617   12.320   2522.19     2.7244     0.0282     0.5818     0.1232     2.9867     1.1298   197.1200     2.7896     0.1847
  618   12.340   2523.19     4.7828     0.0424     0.2661     0.1234     4.9430     0.9722   197.4400     4.7456     0.0573
  619   12.360   2524.13     6.1092     0.0627     0.0387     0.1236     6.1558     1.0391   197.7600     5.9580    -0.0020
  620   12.380   2527.64     4.3518     0.0888    -0.0083     0.1238     4.3493     2.1751   198.0800     4.1513    -0.0316
  621   12.400   2528.65     4.7657     0.1000    -0.0166     0.1240     4.7592     2.0290   198.4000     4.5608    -0.0306
  622   12.420   2529.64     3.8477     0.0975    -0.0113     0.1242     3.8421     2.3551   198.7200     3.6433    -0.0379
  623   12.440   2530.62     3.0772     0.0904     0.0002     0.1244     3.0751     2.7193   199.0400     2.8760    -0.0451
  624   12.460   2531.55     2.5041     0.0840     0.0263     0.1246     2.5111     3.0915   199.3600     2.3117    -0.0467
  625   12.480   2532.53     1.8982     0.0733     0.0730     0.1248     1.9229     3.5259   199.6800     1.7233    -0.0381
  626   12.500   2533.51     1.6582     0.0628     0.1330     0.1250     1.7044     3.6820   200.0000     1.5044    -0.0098
  627   12.520   2534.40     1.6268     0.0545     0.1785     0.1252     1.6966     3.3955   200.3200     1.4963     0.0274
  628   12.540   2535.39     1.8589     0.0456     0.2063     0.1254     1.9416     2.5712   200.6400     1.7410     0.0410
  629   12.560   2536.34     1.9476     0.0460     0.2223     0.1256     2.0404     2.4234   200.9600     1.8394     0.0517
  630   12.580   2537.34     2.1252     0.0512     0.2536     0.1258     2.2260     2.4382   201.2800     2.0248     0.0564
  631   12.600   2538.29     2.2031     0.0525     0.2544     0.1260     2.3106     2.4078   201.6000     2.1090     0.0616
  632   12.620   2539.22     2.0912     0.0527     0.2551     0.1262     2.1998     2.4512   201.9200     1.9979     0.0663
  633   12.640   2540.19     1.8939     0.0501     0.2622     0.1264     1.9997     2.5200   202.2400     1.7974     0.0701
  634   12.660   2541.16     1.6481     0.0471     0.3005     0.1266     1.7701     2.7832   202.5600     1.5675     0.1045
  635   12.680   2542.12     1.5535     0.0485     0.3498     0.1268     1.6910     3.0897   202.8800     1.4882     0.1350
  636   12.700   2543.07     1.5498     0.0442     0.3874     0.1270     1.7083     2.8628   203.2000     1.5051     0.1663
  637   12.720   2544.03     1.6106     0.0375     0.4120     0.1272     1.7842     2.3637   203.5200     1.5807     0.1812
  638   12.740   2545.00     1.7370     0.0359     0.3721     0.1274     1.9037     2.2045   203.8400     1.6999     0.1586
  639   12.760   2545.95     1.6473     0.0440     0.3561     0.1276     1.7953     2.8600   204.1600     1.5911     0.1413
  640   12.780   2546.95     1.4710     0.0521     0.4025     0.1278     1.6300     3.5155   204.4800     1.4255     0.1758
  641   12.800   2547.98     1.5274     0.0565     0.4680     0.1280     1.7149     3.7449   204.8000     1.5101     0.2107
  642   12.820   2548.89     1.6770     0.0493     0.4847     0.1282     1.8809     3.0423   205.1200     1.6758     0.2132
  643   12.840   2549.89     1.7735     0.0428     0.4010     0.1284     1.9496     2.4060   205.4400     1.7441     0.1667
  644   12.860   2554.14     1.6770     0.0412     0.3641     0.1286     1.8353     2.3224   205.7600     1.6295     0.1509
  645   12.880   2558.58     1.5762     0.0409     0.3272     0.1288     1.7190     2.3054   206.0800     1.5129     0.1383
  646   12.900   2561.85     1.4630     0.0379     0.3588     0.1290     1.6062     2.5220   206.4000     1.3998     0.1515
  647   12.920   2562.80     1.4106     0.0330     0.4050     0.1292     1.5753     2.3511   206.7200     1.3686     0.1920
  648   12.940   2563.74     1.4953     0.0359     0.4506     0.1294     1.6772     2.4383   207.0400     1.4701     0.2064
  649   12.960   2564.68     1.5945     0.0372     0.4856     0.1296     1.7950     2.3967   207.3600     1.5876     0.2189
  650   12.980   2565.66     1.7515     0.0330     0.4827     0.1298     1.9562     1.9170   207.6800     1.7485     0.2046
  651   13.000   2566.64     1.7651     0.0358     0.4176     0.1300     1.9491     2.0121   208.0000     1.7411     0.1769
  652   13.020   2567.58     1.7326     0.0451     0.4479     0.1302     1.9166     2.6107   208.3200     1.7083     0.1803
  653   13.040   2568.58     1.8988     0.0636     0.5015     0.1304     2.1015     3.4948   208.6400     1.8928     0.1861
  654   13.060   2569.55     2.2665     0.0719     0.5265     0.1306     2.4855     3.3714   208.9600     2.2766     0.1719
  655   13.080   2570.52     2.6653     0.0808     0.3413     0.1308     2.8360     3.1959   209.2800     2.6268     0.1052
  656   13.100   2571.48     2.9801     0.0892     0.2398     0.1310     3.0909     3.0718   209.6000     2.8813     0.0460
  657   13.120   2572.44     2.9805     0.0937     0.2040     0.1312     3.0695     3.1325   209.9200     2.8596     0.0283
  658   13.140   2573.41     2.9666     0.1012     0.1755     0.1314     3.0402     3.3976   210.2400     2.8300     0.0155
  659   13.160   2574.35     3.0174     0.0949     0.1404     0.1316     3.0779     3.1404   210.5600     2.8673     0.0043
  660   13.180   2575.30     2.7935     0.1011     0.1472     0.1318     2.8547     3.5947   210.8800     2.6438     0.0053
  661   13.200   2576.27     2.6847     0.0997     0.1521     0.1320     2.7480     3.7052   211.2000     2.5368     0.0074
  662   13.220   2577.25     2.8161     0.0933     0.1444     0.1322     2.8773     3.3246   211.5200     2.6657     0.0050
  663   13.240   2578.21     2.8649     0.0920     0.1506     0.1324     2.9278     3.2581   211.8400     2.7160     0.0064
  664   13.260   2579.19     3.1564     0.0987     0.1236     0.1326     3.2132     3.4201   212.1600     3.0011     0.0009
  665   13.280   2582.71     2.9781     0.0962     0.0910     0.1328     3.0254     3.7686   212.4800     2.8130    -0.0063
  666   13.300   2583.79     3.2897     0.1029     0.0598     0.1330     3.3165     3.0398   212.8000     3.1037    -0.0224
  667   13.320   2584.76     3.2720     0.1017     0.0586     0.1332     3.2964     3.1387   213.1200     3.0833    -0.0244
  668   13.340   2585.78     3.0417     0.1004     0.0628     0.1334     3.0686     3.2377   213.4400     2.8551    -0.0243
  669   13.360   2586.72     2.7743     0.0989     0.0596     0.1336     2.7987     3.3697   213.7600     2.5850    -0.0292
  670   13.380   2587.69     2.5099     0.0977     0.0747     0.1338     2.5387     3.7150   214.0800     2.3246    -0.0281
  671   13.400   2588.64     2.2687     0.0902     0.0999     0.1340     2.3065     3.8163   214.4000     2.0921    -0.0210
  672   13.420   2600.11     2.1606     0.0828     0.1252     0.1342     2.2095     3.7375   214.7200     1.9948    -0.0083
  673   13.440   2616.10     2.0837     0.0746     0.1505     0.1344     2.1432     3.3703   215.0400     1.9282     0.0046
  674   13.460   2632.09     2.0067     0.0629     0.1743     0.1346     2.0769     2.9159   215.3600     1.8615     0.0175
  675   13.480   2633.87     1.7435     0.0490     0.2162     0.1348     1.8272     2.7098   215.6800     1.6115     0.0401
  676   13.500   2634.86     1.5616     0.0351     0.2578     0.1350     1.6639     2.1852   216.0000     1.4479     0.0751
  677   13.520   2635.79     1.4706     0.0287     0.2985     0.1352     1.5903     1.9276   216.3200     1.3739     0.1091
  678   13.540   2636.76     1.4907     0.0324     0.3349     0.1354     1.6260     2.2201   216.6400     1.4094     0.1325
  679   13.560   2637.69     1.7140     0.0415     0.3709     0.1356     1.8649     2.5874   216.9600     1.6480     0.1359
  680   13.580   2638.67     2.2868     0.0561     0.3710     0.1358     2.4453     2.7913   217.2800     2.2280     0.1097
  681   13.600   2639.63     2.7785     0.0520     0.2937     0.1360     2.9184     1.9635   217.6000     2.7008     0.0732
  682   13.620   2640.56     2.7304     0.0523     0.2291     0.1362     2.8392     1.8608   217.9200     2.6213     0.0467
  683   13.640   2641.49     2.3834     0.0694     0.2349     0.1364     2.4748     2.7888   218.2400     2.2565     0.0360
  684   13.660   2642.47     2.2105     0.0854     0.2733     0.1366     2.3208     3.8489   218.5600     2.1023     0.0600
  685   13.680   2643.44     2.4077     0.0838     0.3396     0.1368     2.5412     3.5469   218.8800     2.3223     0.0780
  686   13.700   2644.41     2.9730     0.0737     0.2908     0.1370     3.1177     2.6568   219.2000     2.8985     0.0716
  687   13.720   2645.36     2.6215     0.0626     0.2029     0.1372     2.7088     2.2774   219.5200     2.4893     0.0282
  688   13.740   2646.29     2.2287     0.0581     0.1825     0.1374     2.3059     2.4807   219.8400     2.0860     0.0220
  689   13.760   2647.28     1.8099     0.0564     0.2363     0.1376     1.8993     2.9473   220.1600     1.6791     0.0452
  690   13.780   2648.31     1.5751     0.0496     0.3048     0.1378     1.6939     3.0489   220.4800     1.4734     0.0986
  691   13.800   2649.26     1.5235     0.0365     0.3608     0.1380     1.6674     2.4052   220.8000     1.4466     0.1414
  692   13.820   2650.22     1.6250     0.0332     0.4137     0.1382     1.7907     2.0976   221.1200     1.5696     0.1632
  693   13.840   2651.16     1.7305     0.0286     0.4450     0.1384     1.9161     1.6876   221.4400     1.6947     0.1792
  694   13.860   2652.13     1.7737     0.0287     0.4594     0.1386     1.9626     1.6141   221.7600     1.7408     0.1787
  695   13.880   2653.10     1.6857     0.0293     0.4783     0.1388     1.8826     1.7046   222.0800     1.6605     0.1988
  696   13.900   2654.06     1.5292     0.0307     0.5173     0.1390     1.7360     1.9316   222.4000     1.5136     0.2337
  697   13.920   2655.02     1.4843     0.0324     0.5648     0.1392     1.7148     2.1830   222.7200     1.4921     0.2746
  698   13.940   2656.02     1.4740     0.0258     0.6034     0.1394     1.7230     1.7522   223.0400     1.4999     0.3022
  699   13.960   2656.94     1.4442     0.0328     0.6423     0.1396     1.7067     2.2525   223.3600     1.4834     0.3273
  700   13.980   2657.89     1.4819     0.0381     0.6881     0.1398     1.7646     2.6376   223.6800     1.5410     0.3461
  701   14.000   2658.85     1.6407     0.0399     0.7079     0.1400     1.9389     2.5231   224.0000     1.7149     0.3325
  702   14.020   2659.80     1.8591     0.0404     0.6198     0.1402     2.1470     2.2345   224.3200     1.9226     0.2837
  703   14.040   2660.77     1.7726     0.0405     0.4478     0.1404     1.9741     2.2306   224.6400     1.7494     0.1935
  704   14.060   2661.71     1.5914     0.0446     0.4914     0.1406     1.7870     2.6312   224.9600     1.5620     0.2091
  705   14.080   2662.68     1.4920     0.0566     0.5431     0.1408     1.7100     3.6314   225.2800     1.4847     0.2549
  706   14.100   2663.65     1.4737     0.0695     0.6048     0.1410     1.7199     4.6897   225.6000     1.4943     0.2980
  707   14.120   2664.60     1.5256     0.0700     0.6404     0.1412     1.7914     4.6762   225.9200     1.5655     0.3140
  708   14.140   2665.55     1.6271     0.0735     0.6437     0.1414     1.8949     4.5859   226.2400     1.6687     0.2974
  709   14.160   2666.49     1.5974     0.0798     0.6393     0.1416     1.8655     4.9594   226.5600     1.6390     0.3032
  710   14.180   3154.62     1.6171     0.0759     0.5251     0.1418     1.8573     4.8979   226.8800     1.6304     0.2672
  711   14.200   4128.99     1.7514     0.0641     0.3895     0.1420     1.9347     4.1371   227.2000     1.7075     0.1761
  712   14.220   4713.40     1.7705     0.0532     0.3864     0.1422     1.9262     2.9766   227.5200     1.6987     0.1346
  713   14.240   4714.40     1.6141     0.0385     0.4308     0.1424     1.7896     2.3621   227.8400     1.5618     0.1764
  714   14.260   4715.45     1.5034     0.0396     0.4789     0.1426     1.6935     2.6141   228.1600     1.4653     0.2116
  715   14.280   4716.42     1.5321     0.0369     0.5426     0.1428     1.7504     2.4682   228.4800     1.5219     0.2477
  716   14.300   4717.45     2.8746     0.0448     0.6035     0.1430     3.1217     1.7099   228.8000     2.8929     0.1554
  717   14.320   4718.41     5.6421     0.0660     0.5910     0.1432     5.9064     1.2390   229.1200     5.6773     0.0870
  718   14.340   4719.43     8.5307     0.0925     0.1151     0.1434     8.6351     1.1198   229.4400     8.4057     0.0135
  719   14.360   4720.48     9.5168     0.1238     0.0162     0.1436     9.5311     1.3046   229.7600     9.3013    -0.0118
  720   14.380   4721.39     8.9640     0.1622     0.0053     0.1438     8.9651     2.0984   230.0800     8.7350    -0.0162
  721   14.400   4723.95     6.6228     0.1845     0.0152     0.1440     6.6294     2.9959   230.4000     6.3990    -0.0201
  722   14.420   4724.94     5.2147     0.1814     0.0149     0.1442     5.2204     3.2300   230.7200     4.9897    -0.0263
  723   14.440   4725.94     3.8412     0.1522     0.0245     0.1444     3.8497     3.7176   231.0400     3.6187    -0.0344
  724   14.460   4726.90     3.1098     0.1173     0.0591     0.1446     3.1285     3.5458   231.3600     2.8971    -0.0345
  725   14.480   4727.85     2.4669     0.0922     0.0979     0.1448     2.5001     3.5340   231.6800     2.2684    -0.0290
  726   14.500   4728.81     1.9783     0.0814     0.2116     0.1450     2.0479     3.9271   232.0000     1.8159     0.0122
  727   14.520   4729.78     1.9419     0.0763     0.4392     0.1452     2.0924     4.1650   232.3200     1.8601     0.1129
  728   14.540   4730.80     2.9918     0.0854     0.5365     0.1454     3.2131     3.4154   232.6400     2.9805     0.1296
  729   14.560   4731.75     4.4748     0.0837     0.3782     0.1456     4.6705     2.0238   232.9600     4.4375     0.0728
  730   14.580   4732.71     4.2972     0.0842     0.1693     0.1458     4.3827     1.8531   233.2800     4.1494     0.0135
  731   14.600   4733.68     3.4574     0.0840     0.1617     0.1460     3.5284     2.2707   233.6000     3.2948     0.0069
  732   14.620   4734.65     2.7103     0.0856     0.1590     0.1462     2.7830     2.8986   233.9200     2.5491     0.0104
  733   14.640   4735.65     2.0250     0.0791     0.1798     0.1464     2.0852     3.5390   234.2400     1.8510    -0.0009
  734   14.660   4736.58     1.7390     0.0621     0.3040     0.1466     1.8498     3.4517   234.5600     1.6152     0.0725
  735   14.680   4737.55     1.7191     0.0385     0.4178     0.1468     1.8789     2.2409   234.8800     1.6440     0.1421
  736   14.700   4738.46     1.6744     0.0297     0.5215     0.1470     1.8784     1.7572   235.2000     1.6432     0.2061
  737   14.720   4739.41     1.6838     0.0331     0.6103     0.1472     1.9260     1.9707   235.5200     1.6905     0.2541
  738   14.740   4740.43     1.6862     0.0359     0.6754     0.1474     1.9624     2.1426   235.8400     1.7266     0.2956
  739   14.760   4741.36     1.7328     0.0321     0.7390     0.1476     2.0336     1.8704   236.1600     1.7974     0.3163
  740   14.780   4742.37     1.8335     0.0305     0.7616     0.1478     2.1548     1.7003   236.4800     1.9184     0.3219
  741   14.800   4743.33     1.9364     0.0343     0.6392     0.1480     2.2371     1.7822   236.8000     2.0003     0.2839
  742   14.820   4744.30     1.7994     0.0418     0.5264     0.1482     2.0155     2.2864   237.1200     1.7783     0.2060
  743   14.840   4745.27     1.8149     0.0395     0.6028     0.1484     2.0547     2.2133   237.4400     1.8172     0.2323
  744   14.860   4746.23     2.1132     0.0354     0.6290     0.1486     2.3782     1.7843   237.7600     2.1404     0.2257
  745   14.880   4747.20     2.2769     0.0334     0.5656     0.1488     2.5267     1.4884   238.0800     2.2886     0.1950
  746   14.900   4748.18     2.2774     0.0339     0.5338     0.1490     2.5074     1.4670   238.4000     2.2690     0.1757
  747   14.920   4749.12     1.9941     0.0353     0.5224     0.1492     2.2208     1.6568   238.7200     1.9821     0.1971
  748   14.940   4750.05     1.7120     0.0342     0.6417     0.1494     1.9461     1.8773   239.0400     1.7070     0.2391
  749   14.960   4751.05     1.6243     0.0352     0.7795     0.1496     1.9399     2.1520   239.3600     1.7005     0.3539
  750   14.980   4751.96     1.5832     0.0334     0.8418     0.1498     1.9324     2.0886   239.6800     1.6927     0.4027
  751   15.000   4752.93     1.5970     0.0316     0.8532     0.1500     1.9549     1.9909   240.0000     1.7149     0.4094
  752   15.020   4753.88     1.5940     0.0307     0.8424     0.1502     1.9483     1.9179   240.3200     1.7080     0.4060
  753   15.040   4754.83     1.5748     0.0323     0.8483     0.1504     1.9316     2.0565   240.6400     1.6909     0.4134
  754   15.060   4755.79     1.6208     0.0357     0.8500     0.1506     1.9754     2.2228   240.9600     1.7345     0.4000
  755   15.080   4756.78     1.6589     0.0368     0.8377     0.1508     2.0163     2.2254   241.2800     1.7750     0.3944
  756   15.100   4757.73     1.6352     0.0369     0.8437     0.1510     1.9853     2.2462   241.6000     1.7437     0.3914
  757   15.120   4758.65     1.6072     0.0372     0.8428     0.1512     1.9564     2.3028   241.9200     1.7145     0.3969
  758   15.140   4759.64     1.5849     0.0380     0.8544     0.1514     1.9427     2.3906   242.2400     1.7005     0.4120
  759   15.160   4760.58     1.5746     0.0378     0.8562     0.1516     1.9327     2.3931   242.5600     1.6902     0.4148
  760   15.180   4761.55     1.5444     0.0376     0.8859     0.1518     1.9111     2.4220   242.8800     1.6682     0.4324
  761   15.200   4762.50     1.5245     0.0382     0.9299     0.1520     1.9104     2.4977   243.2000     1.6672     0.4599
  762   15.220   4763.49     1.5380     0.0364     0.9507     0.1522     1.9347     2.3711   243.5200     1.6912     0.4686
  763   15.240   4764.46     1.5483     0.0344     0.9686     0.1524     1.9532     2.2216   243.8400     1.7094     0.4749
  764   15.260   4765.41     1.5148     0.0341     0.9920     0.1526     1.9283     2.2348   244.1600     1.6841     0.4939
  765   15.280   4766.38     1.5079     0.0351     1.0078     0.1528     1.9295     2.3307   244.4800     1.6851     0.5051
  766   15.300   4767.37     1.4937     0.0355     1.0153     0.1530     1.9200     2.3746   244.8000     1.6752     0.5146
  767   15.320   4768.32     1.5503     0.0367     0.9785     0.1532     1.9693     2.4164   245.1200     1.7241     0.4899
  768   15.340   4769.30     1.5898     0.0367     0.9228     0.1534     1.9843     2.2930   245.4400     1.7389     0.4520
  769   15.360   4770.28     1.5792     0.0369     0.9191     0.1536     1.9619     2.3475   245.7600     1.7162     0.4415
  770   15.380   4771.23     1.5661     0.0384     0.9189     0.1538     1.9547     2.4415   246.0800     1.7086     0.4515
  771   15.400   4772.21     1.5434     0.0397     0.9347     0.1540     1.9328     2.5331   246.4000     1.6864     0.4585
  772   15.420   4773.12     1.5408     0.0435     0.9730     0.1542     1.9452     2.7666   246.7200     1.6984     0.4760
  773   15.440   4774.10     1.5850     0.0474     0.9833     0.1544     1.9980     3.0001   247.0400     1.7509     0.4734
  774   15.460   4775.08     1.6179     0.0475     0.9562     0.1546     2.0251     2.9661   247.3600     1.7777     0.4584
  775   15.480   4776.04     1.7090     0.0492     0.8434     0.1548     2.0962     2.9486   247.6800     1.8485     0.4150
  776   15.500   4777.10     1.6736     0.0460     0.7208     0.1550     1.9646     2.7031   248.0000     1.7166     0.3133
  777   15.520   4800.15     1.6858     0.0396     0.8016     0.1552     2.0108     2.3691   248.3200     1.7625     0.3493
  778   15.540   4823.20     1.6981     0.0366     0.8824     0.1554     2.0570     2.1857   248.6400     1.8083     0.3852
  779   15.560   4841.72     1.8408     0.0357     0.9720     0.1556     2.2353     2.0992   248.9600     1.9864     0.3963
  780   15.580   4842.73     2.7621     0.0463     1.0110     0.1558     3.1846     1.9340   249.2800     2.9353     0.2919
  781   15.600   4843.69     3.8697     0.0650     0.8029     0.1560     4.2584     1.8419   249.6000     4.0088     0.1929
  782   15.620   4844.67     4.0968     0.0676     0.5850     0.1562     4.3505     1.6279   249.9200     4.1006     0.1092
  783   15.640   4845.63     3.6023     0.0682     0.5778     0.1564     3.8456     1.7999   250.2400     3.5954     0.1178
  784   15.660   4846.58     3.0276     0.0673     0.5914     0.1566     3.2725     2.0990   250.5600     3.0220     0.1413
  785   15.680   4847.49     2.4775     0.0654     0.6508     0.1568     2.7327     2.4877   250.8800     2.4818     0.1818
  786   15.700   4848.50     1.9444     0.0756     0.8197     0.1570     2.2595     3.6225   251.2000     2.0083     0.2953
  787   15.720   4849.48     1.9955     0.0714     0.9623     0.1572     2.3903     3.7024   251.5200     2.1388     0.3659
  788   15.740   4850.44     2.3119     0.0593     0.9124     0.1574     2.7124     2.6858   251.8400     2.4606     0.3239
  789   15.760   4851.39     2.4523     0.0503     0.6956     0.1576     2.7742     2.0493   252.1600     2.5220     0.2411
  790   15.780   4852.35     2.3149     0.0486     0.6486     0.1578     2.5868     2.0414   252.4800     2.3344     0.2099
  791   15.800   4853.32     2.0290     0.0507     0.6682     0.1580     2.3067     2.3820   252.8000     2.0539     0.2456
  792   15.820   4854.28     1.7952     0.0505     0.7480     0.1582     2.0932     2.7355   253.1200     1.8401     0.3000
  793   15.840   4855.26     1.6848     0.0424     0.8314     0.1584     2.0238     2.4977   253.4400     1.7704     0.3664
  794   15.860   4856.22     1.6607     0.0371     0.8903     0.1586     2.0262     2.2206   253.7600     1.7724     0.4014
  795   15.880   4857.21     1.6330     0.0347     0.9324     0.1588     2.0195     2.1138   254.0800     1.7654     0.4313
  796   15.900   4858.16     1.6445     0.0358     0.9543     0.1590     2.0435     2.1957   254.4000     1.7891     0.4421
  797   15.920   4859.11     1.6377     0.0360     0.9340     0.1592     2.0247     2.1812   254.7200     1.7700     0.4306
  798   15.940   4860.04     1.5932     0.0352     0.9464     0.1594     1.9888     2.1953   255.0400     1.7338     0.4514
  799   15.960   4861.05     1.5796     0.0365     0.9737     0.1596     1.9870     2.3023   255.3600     1.7316     0.4680
  800   15.980   4861.98     1.5894     0.0360     0.9791     0.1598     1.9993     2.2799   255.6800     1.7436     0.4681
  801   16.000   4862.96     1.5952     0.0349     0.9804     0.1600     2.0070     2.1878   256.0000     1.7510     0.4686
  802   16.020   4863.93     1.6067     0.0356     0.9599     0.1602     2.0144     2.2182   256.3200     1.7581     0.4611
  803   16.040   4864.90     1.6124     0.0368     0.9256     0.1604     2.0052     2.2646   256.6400     1.7485     0.4431
  804   16.060   4865.84     1.5847     0.0328     0.9486     0.1606     1.9765     2.0562   256.9600     1.7195     0.4491
  805   16.080   4866.78     1.5604     0.0267     0.9714     0.1608     1.9665     1.7106   257.2800     1.7092     0.4716
  806   16.100   4867.76     1.5643     0.0225     0.9819     0.1610     1.9750     1.4444   257.6000     1.7174     0.4757
  807   16.120   4868.75     1.5763     0.0303     1.0266     0.1612     1.9994     1.9435   257.9200     1.7415     0.4858
  808   16.140   4869.73     1.9721     0.0619     1.0464     0.1614     2.4115     3.5156   258.2400     2.1533     0.4147
  809   16.160   4870.69     2.9918     0.0761     0.9203     0.1616     3.4085     2.8955   258.5600     3.1500     0.2656
  810   16.180   4871.68     3.5865     0.0772     0.4132     0.1618     3.8520     2.2159   258.8800     3.5931     0.1310
  811   16.200   4872.61     3.4164     0.0781     0.2266     0.1620     3.5279     2.1936   259.2000     3.2687     0.0314
  812   16.220   4873.56     2.7830     0.0802     0.2602     0.1622     2.8790     2.7111   259.5200     2.6194     0.0256
  813   16.240   4874.51     2.1559     0.0775     0.3000     0.1624     2.2807     3.2876   259.8400     2.0208     0.0667
  814   16.260   4875.49     1.7739     0.0683     0.4182     0.1626     1.9300     3.6658   260.1600     1.6698     0.1255
  815   16.280   4876.51     1.7043     0.0491     0.5404     0.1628     1.9156     2.8800   260.4800     1.6551     0.2057
  816   16.300   4877.46     1.6980     0.0343     0.6281     0.1630     1.9519     2.0180   260.8000     1.6911     0.2610
  817   16.320   4878.38     1.6795     0.0311     0.7039     0.1632     1.9633     1.8375   261.1200     1.7022     0.3012
  818   16.340   4879.33     1.6693     0.0303     0.7558     0.1634     1.9811     1.8243   261.4400     1.7196     0.3366
  819   16.360   4880.29     1.6497     0.0280     0.7961     0.1636     1.9785     1.6892   261.7600     1.7167     0.3607
  820   16.380   4881.27     1.6370     0.0285     0.8282     0.1638     1.9799     1.7360   262.0800     1.7178     0.3799
  821   16.400   4882.23     1.6194     0.0307     0.8508     0.1640     1.9735     1.8928   262.4000     1.7111     0.3968
  822   16.420   4883.19     1.6200     0.0320     0.8608     0.1642     1.9819     1.9836   262.7200     1.7192     0.4056
  823   16.440   4884.14     1.6545     0.0334     0.8871     0.1644     2.0203     2.0330   263.0400     1.7573     0.4021
  824   16.460   4885.11     1.7108     0.0337     0.8652     0.1646     2.0780     2.0007   263.3600     1.8146     0.3911
  825   16.480   4886.01     1.7064     0.0357     0.8210     0.1648     2.0550     2.0714   263.6800     1.7913     0.3714
  826   16.500   4887.04     1.5999     0.0367     0.8429     0.1650     1.9493     2.2367   264.0000     1.6853     0.3958
  827   16.520   4887.94     1.5824     0.0371     0.8826     0.1652     1.9476     2.3400   264.3200     1.6833     0.4184
  828   16.540   4888.91     1.5619     0.0376     0.9209     0.1654     1.9431     2.3818   264.6400     1.6785     0.4423
  829   16.560   4889.85     1.5596     0.0329     0.9397     0.1656     1.9524     2.1302   264.9600     1.6875     0.4561
  830   16.580   4890.82     1.5729     0.0326     0.9675     0.1658     1.9737     2.0958   265.2800     1.7085     0.4616
  831   16.600   4891.79     1.5942     0.0352     1.0001     0.1660     2.0124     2.2189   265.6000     1.7468     0.4749
  832   16.620   4892.78     1.6620     0.0394     0.9571     0.1662     2.0719     2.4396   265.9200     1.8060     0.4487
  833   16.640   4893.69     1.6981     0.0404     0.9261     0.1664     2.0909     2.3765   266.2400     1.8247     0.4213
  834   16.660   4894.69     1.7222     0.0417     0.9070     0.1666     2.1103     2.4428   266.5600     1.8437     0.4109
  835   16.680   4895.61     1.6721     0.0435     0.7185     0.1668     1.9694     2.5724   266.8800     1.7025     0.3179
  836   16.700   4896.53     1.6197     0.0408     0.6950     0.1670     1.8976     2.4982   267.2000     1.6304     0.3034
  837   16.720   4897.53     1.5510     0.0412     0.7639     0.1672     1.8652     2.6361   267.5200     1.5977     0.3636
  838   16.740   4898.51     1.5838     0.0385     0.8187     0.1674     1.9205     2.4489   267.8400     1.6526     0.3838
  839   16.760   4899.50     1.6759     0.0426     0.8699     0.1676     2.0345     2.5932   268.1600     1.7663     0.3884
  840   16.780   4900.50     1.8136     0.0452     0.8879     0.1678     2.1882     2.5772   268.4800     1.9197     0.3773
  841   16.800   4901.46     1.9406     0.0465     0.8654     0.1680     2.3108     2.4378   268.8000     2.0420     0.3493
  842   16.820   4902.41     2.0384     0.0467     0.7635     0.1682     2.3681     2.2909   269.1200     2.0989     0.2937
  843   16.840   4903.38     1.9200     0.0466     0.7437     0.1684     2.2375     2.3596   269.4400     1.9680     0.2985
  844   16.860   4904.32     1.7657     0.0482     0.7719     0.1686     2.0812     2.6214   269.7600     1.8115     0.3221
  845   16.880   4905.31     1.6774     0.0492     0.8357     0.1688     2.0193     2.9296   270.0800     1.7493     0.3689
  846   16.900   4906.28     1.7017     0.0428     0.8920     0.1690     2.0685     2.5309   270.4000     1.7981     0.3916
  847   16.920   4907.23     1.7844     0.0401     0.9292     0.1692     2.1695     2.2861   270.7200     1.8987     0.3937
  848   16.940   4908.21     1.8680     0.0440     0.8916     0.1694     2.2528     2.4117   271.0400     1.9817     0.3770
  849   16.960   4909.15     1.8831     0.0468     0.7565     0.1696     2.2287     2.4668   271.3600     1.9574     0.3335
  850   16.980   4910.15     1.8319     0.0481     0.7627     0.1698     2.1475     2.5819   271.6800     1.8759     0.3103
  851   17.000   4911.06     1.7515     0.0490     0.7939     0.1700     2.0846     2.7727   272.0000     1.8126     0.3437
  852   17.020   4912.00     1.6859     0.0462     0.8158     0.1702     2.0235     2.7048   272.3200     1.7512     0.3618
  853   17.040   4912.96     1.6307     0.0417     0.8416     0.1704     1.9804     2.5127   272.6400     1.7078     0.3878
  854   17.060   4913.92     1.5717     0.0419     0.8768     0.1706     1.9334     2.6369   272.9600     1.6605     0.4159
  855   17.080   4914.88     1.5698     0.0398     0.9210     0.1708     1.9505     2.5303   273.2800     1.6772     0.4386
  856   17.100   4915.85     1.5589     0.0386     0.9574     0.1710     1.9568     2.4544   273.6000     1.6832     0.4614
  857   17.120   4916.83     1.5992     0.0377     0.9822     0.1712     2.0078     2.3865   273.9200     1.7339     0.4624
  858   17.140   4917.77     1.6611     0.0397     0.9946     0.1714     2.0776     2.4182   274.2400     1.8034     0.4549
  859   17.160   4918.73     1.7032     0.0421     1.0092     0.1716     2.1243     2.4925   274.5600     1.8498     0.4493
  860   17.180   4919.68     1.7710     0.0444     0.9391     0.1718     2.1786     2.5252   274.8800     1.9037     0.4195
  861   17.200   4920.65     1.8141     0.0453     0.9028     0.1720     2.2022     2.5094   275.2000     1.9270     0.3902
  862   17.220   4921.59     1.7929     0.0455     0.8552     0.1722     2.1659     2.5278   275.5200     1.8904     0.3787
  863   17.240   4922.55     1.7835     0.0521     0.8372     0.1724     2.1399     2.9170   275.8400     1.8640     0.3627
  864   17.260   4923.52     1.7850     0.0547     0.7971     0.1726     2.1269     3.0938   276.1600     1.8508     0.3466
  865   17.280   4924.56     1.8142     0.0531     0.8121     0.1728     2.1536     2.9482   276.4800     1.8771     0.3384
  866   17.300   4925.55     1.9195     0.0523     0.8025     0.1730     2.2601     2.7846   276.8000     1.9833     0.3216
  867   17.320   4926.47     1.9557     0.0483     0.7383     0.1732     2.2759     2.4712   277.1200     1.9988     0.2947
  868   17.340   4927.47     1.7939     0.0473     0.7526     0.1734     2.0949     2.5234   277.4400     1.8175     0.2990
  869   17.360   4928.43     1.7017     0.0500     0.8130     0.1736     2.0369     2.9550   277.7600     1.7591     0.3549
  870   17.380   4929.36     1.6968     0.0469     0.8525     0.1738     2.0504     2.7490   278.0800     1.7724     0.3770
  871   17.400   4930.36     1.6849     0.0445     0.8883     0.1740     2.0515     2.6238   278.4000     1.7731     0.3941
  872   17.420   4931.32     1.7230     0.0515     0.9180     0.1742     2.1061     2.9417   278.7200     1.8274     0.4039
  873   17.440   4932.31     1.7985     0.0584     0.8956     0.1744     2.1820     3.2596   279.0400     1.9030     0.3883
  874   17.460   4933.24     1.7441     0.0656     0.8241     0.1746     2.0973     3.6565   279.3600     1.8179     0.3667
  875   17.480   4934.21     1.7059     0.0711     0.7478     0.1748     2.0359     4.1904   279.6800     1.7562     0.3477
  876   17.500   4935.16     1.7342     0.0697     0.8102     0.1750     2.0698     4.0367   280.0000     1.7898     0.3487
  877   17.520   4946.70     1.7819     0.0590     0.6339     0.1752     2.0748     3.3822   280.3200     1.7945     0.2898
  878   17.540   4964.75     1.8408     0.0529     0.4499     0.1754     2.0564     3.0296   280.6400     1.7758     0.1887
  879   17.560   4981.59     1.8851     0.0525     0.3578     0.1756     2.0299     2.8705   280.9600     1.7489     0.0968
  880   17.580   4982.56     1.7548     0.0525     0.4036     0.1758     1.9201     2.9256   281.2800     1.6388     0.1329
  881   17.600   4983.50     1.7172     0.0426     0.4513     0.1760     1.9008     2.4742   281.6000     1.6192     0.1613
  882   17.620   4984.50     1.6891     0.0401     0.5007     0.1762     1.8925     2.3793   281.9200     1.6105     0.1912
  883   17.640   4985.47     1.6800     0.0423     0.5343     0.1764     1.9014     2.5141   282.2400     1.6192     0.2166
  884   17.660   4986.41     1.7188     0.0431     0.5780     0.1766     1.9541     2.5167   282.5600     1.6715     0.2294
  885   17.680   4987.35     1.7547     0.0453     0.5913     0.1768     2.0033     2.6229   282.8800     1.7204     0.2413
  886   17.700   4988.34     1.8725     0.0466     0.5548     0.1770     2.1132     2.5155   283.2000     1.8300     0.2165
  887   17.720   4989.29     1.8350     0.0481     0.5216     0.1772     2.0555     2.5823   283.5200     1.7720     0.1963
  888   17.740   4990.30     1.6824     0.0473     0.5775     0.1774     1.9153     2.7743   283.8400     1.6314     0.2313
  889   17.760   4991.26     1.6500     0.0467     0.6051     0.1776     1.9015     2.8289   284.1600     1.6174     0.2605
  890   17.780   4992.26     1.6239     0.0412     0.6432     0.1778     1.8879     2.5213   284.4800     1.6035     0.2812
  891   17.800   4993.20     1.6239     0.0398     0.6815     0.1780     1.9060     2.4630   284.8000     1.6212     0.3046
  892   17.820   4994.19     1.6701     0.0381     0.7064     0.1782     1.9654     2.3019   285.1200     1.6803     0.3123
  893   17.840   4995.15     1.7413     0.0368     0.7236     0.1784     2.0395     2.1369   285.4400     1.7540     0.3030
  894   17.860   4996.13     1.7325     0.0418     0.6938     0.1786     2.0321     2.3881   285.7600     1.7464     0.3062
  895   17.880   4997.11     1.6615     0.0448     0.7056     0.1788     1.9583     2.6766   286.0800     1.6722     0.3156
  896   17.900   4998.07     1.7088     0.0471     0.7644     0.1790     2.0273     2.7859   286.4000     1.7409     0.3329
  897   17.920   4999.02     1.7741     0.0460     0.7348     0.1792     2.0899     2.6044   286.7200     1.8032     0.3176
  898   17.940   4999.98     1.7120     0.0416     0.6612     0.1794     2.0048     2.3886   287.0400     1.7178     0.3013
  899   17.960   5000.93     1.6516     0.0402     0.7144     0.1796     1.9436     2.3903   287.3600     1.6563     0.3115
  900   17.980   5001.92     1.6471     0.0416     0.7575     0.1798     1.9615     2.5294   287.6800     1.6739     0.3399
  901   18.000   5002.90     1.6647     0.0444     0.7860     0.1800     1.9931     2.6799   288.0000     1.7051     0.3531
  902   18.020   5003.85     1.8711     0.0469     0.8246     0.1802     2.2099     2.5763   288.3200     1.9215     0.3260
  903   18.040   5004.80     1.9931     0.0575     0.8241     0.1804     2.3432     2.9491   288.6400     2.0545     0.3180
  904   18.060   5005.77     2.1718     0.0636     0.7188     0.1806     2.4949     2.9613   288.9600     2.2060     0.2671
  905   18.080   5006.75     2.1422     0.0618     0.6218     0.1808     2.4118     2.8476   289.2800     2.1225     0.2171
  906   18.100   5007.74     2.0747     0.0633     0.6207     0.1810     2.3314     2.9850   289.6000     2.0418     0.2109
  907   18.120   5008.71     1.8799     0.0699     0.6491     0.1812     2.1489     3.6305   289.9200     1.8590     0.2471
  908   18.140   5009.69     1.7564     0.0587     0.7211     0.1814     2.0448     3.2758   290.2400     1.7546     0.2882
  909   18.160   5010.70     1.7602     0.0541     0.7935     0.1816     2.0829     3.1230   290.5600     1.7923     0.3273
  910   18.180   5011.66     1.9420     0.0460     0.8112     0.1818     2.2894     2.4739   290.8800     1.9986     0.3235
  911   18.200   5012.58     2.0176     0.0531     0.6381     0.1820     2.3248     2.5918   291.2000     2.0336     0.2696
  912   18.220   5013.54     1.8686     0.0590     0.6464     0.1822     2.1268     3.1348   291.5200     1.8353     0.2357
  913   18.240   5014.56     1.9941     0.0616     0.6851     0.1824     2.2887     3.1766   291.8400     1.9969     0.2601
  914   18.260   5015.51     2.1718     0.0582     0.6314     0.1826     2.4423     2.6923   292.1600     2.1501     0.2146
  915   18.280   5016.51     2.0733     0.0552     0.5989     0.1828     2.3307     2.6288   292.4800     2.0383     0.2110
  916   18.300   5017.46     1.9601     0.0583     0.6574     0.1830     2.2225     2.9193   292.8000     1.9297     0.2290
  917   18.320   5018.43     1.8978     0.0566     0.7093     0.1832     2.1944     3.0124   293.1200     1.9013     0.2751
  918   18.340   5019.42     1.9525     0.0483     0.7009     0.1834     2.2467     2.4903   293.4400     1.9532     0.2647
  919   18.360   5020.45     1.9084     0.0493     0.7250     0.1836     2.2045     2.5846   293.7600     1.9108     0.2729
  920   18.380   5021.39     2.0120     0.0652     0.7543     0.1838     2.3290     3.3563   294.0800     2.0349     0.2807
  921   18.400   5022.36     2.3164     0.0700     0.7476     0.1840     2.6356     3.1087   294.4000     2.3412     0.2461
  922   18.420   5023.32     2.3969     0.0660     0.6124     0.1842     2.6774     2.7472   294.7200     2.3827     0.2029
  923   18.440   5024.29     2.3746     0.0572     0.5153     0.1844     2.5946     2.3546   295.0400     2.2995     0.1477
  924   18.460   5025.26     2.1715     0.0550     0.5001     0.1846     2.3802     2.4568   295.3600     2.0848     0.1499
  925   18.480   5026.26     1.9357     0.0802     0.6164     0.1848     2.1762     4.0659   295.6800     1.8806     0.2061
  926   18.500   5027.21     2.3797     0.0875     0.6901     0.1850     2.6590     4.0210   296.0000     2.3630     0.2033
  927   18.520   5028.13     2.7890     0.0744     0.6907     0.1852     3.0821     2.8083   296.3200     2.7858     0.1843
  928   18.540   5029.11     3.0589     0.0670     0.5362     0.1854     3.3210     2.2066   296.6400     3.0243     0.1447
  929   18.560   5030.08     2.7511     0.0662     0.4362     0.1856     2.9330     2.3098   296.9600     2.6360     0.0940
  930   18.580   5030.99     2.2955     0.0688     0.4748     0.1858     2.4912     2.8701   297.2800     2.1939     0.1278
  931   18.600   5031.98     1.7812     0.0656     0.5126     0.1860     1.9971     3.4881   297.6000     1.6995     0.1931
  932   18.620   5032.97     1.6807     0.0514     0.6621     0.1862     1.9337     3.0334   297.9200     1.6358     0.2543
  933   18.640   5033.98     1.7006     0.0346     0.7879     0.1864     2.0222     2.0467   298.2400     1.7240     0.3361
  934   18.660   5034.92     1.7426     0.0311     0.8417     0.1866     2.0881     1.7973   298.5600     1.7895     0.3554
  935   18.680   5035.92     1.7367     0.0335     0.8805     0.1868     2.0992     1.9243   298.8800     1.8003     0.3757
  936   18.700   5036.88     1.7430     0.0356     0.9329     0.1870     2.1292     2.0538   299.2000     1.8300     0.4002
  937   18.720   5037.78     1.7975     0.0365     0.9635     0.1872     2.1988     2.0367   299.5200     1.8993     0.4046
  938   18.740   5038.77     1.8459     0.0421     0.9298     0.1874     2.2431     2.3026   299.8400     1.9432     0.3902
  939   18.760   5039.79     1.9489     0.0450     0.9003     0.1876     2.3240     2.3330   300.1600     2.0238     0.3485
  940   18.780   5040.77     1.9487     0.0479     0.9099     0.1878     2.3345     2.4617   300.4800     2.0340     0.3593
  941   18.800   5041.76     2.0188     0.0505     0.8280     0.1880     2.3829     2.4986   300.8000     2.0821     0.3261
  942   18.820   5042.72     1.9471     0.0515     0.5745     0.1882     2.2068     2.6071   301.1200     1.9057     0.2254
  943   18.840   5043.67     1.8342     0.0462     0.5747     0.1884     2.0716     2.4691   301.4400     1.7702     0.2130
  944   18.860   5044.63     1.6986     0.0420     0.6683     0.1886     1.9642     2.4443   301.7600     1.6625     0.2670
  945   18.880   5045.67     1.6981     0.0497     0.7408     0.1888     2.0008     2.9402   302.0800     1.6987     0.3131
  946   18.900   5046.63     1.7423     0.0526     0.7977     0.1890     2.0670     3.0489   302.4000     1.7646     0.3309
  947   18.920   5047.58     1.8468     0.0526     0.8422     0.1892     2.1973     2.9205   302.7200     1.8946     0.3407
  948   18.940   5048.57     2.0252     0.0536     0.7691     0.1894     2.3667     2.7238   303.0400     2.0637     0.3022
  949   18.960   5049.49     1.9355     0.0540     0.5995     0.1896     2.2032     2.7715   303.3600     1.8998     0.2357
  950   18.980   5050.44     1.7610     0.0542     0.6529     0.1898     2.0210     2.9472   303.6800     1.7173     0.2503
  951   19.000   5051.49     1.6559     0.0551     0.7276     0.1900     1.9568     3.2833   304.0000     1.6528     0.3186
  952   19.020   5052.40     1.6209     0.0440     0.7641     0.1902     1.9362     2.6907   304.3200     1.6319     0.3436
  953   19.040   5053.37     1.6017     0.0390     0.8068     0.1904     1.9339     2.4295   304.6400     1.6293     0.3687
  954   19.060   5054.32     1.5974     0.0381     0.8526     0.1906     1.9496     2.3978   304.9600     1.6446     0.3939
  955   19.080   5055.32     1.6408     0.0372     0.8808     0.1908     2.0064     2.2900   305.2800     1.7011     0.3995
  956   19.100   5056.27     1.6382     0.0350     0.9095     0.1910     2.0164     2.1296   305.6000     1.7108     0.4147
  957   19.120   5057.23     1.6218     0.0362     0.9392     0.1912     2.0127     2.2315   305.9200     1.7068     0.4333
  958   19.140   5058.21     1.6539     0.0377     0.9672     0.1914     2.0559     2.2926   306.2400     1.7496     0.4376
  959   19.160   5059.16     1.6924     0.0345     0.9938     0.1916     2.1068     2.0535   306.5600     1.8002     0.4416
  960   19.180   5060.11     1.7383     0.0348     0.9977     0.1918     2.1573     2.0102   306.8800     1.8504     0.4355
  961   19.200   5061.11     1.7636     0.0437     0.9657     0.1920     2.1744     2.4782   307.2000     1.8672     0.4210
  962   19.220   5062.08     1.8725     0.0498     0.9879     0.1922     2.2857     2.7220   307.5200     1.9781     0.4002
  963   19.240   5063.04     1.9482     0.0526     0.9924     0.1924     2.3671     2.7077   307.8400     2.0593     0.3910
  964   19.260   5064.02     2.0536     0.0523     0.9311     0.1926     2.4572     2.5899   308.1600     2.1491     0.3576
  965   19.280   5064.96     2.0029     0.0525     0.8954     0.1928     2.3784     2.5763   308.4800     2.0699     0.3387
  966   19.300   5066.02     1.9192     0.0535     0.8062     0.1930     2.2646     2.7683   308.8000     1.9558     0.3217
  967   19.320   5066.99     1.8176     0.0539     0.8994     0.1932     2.1891     2.9178   309.1200     1.8800     0.3677
  968   19.340   5067.97     1.7230     0.0428     0.9679     0.1934     2.1170     2.4476   309.4400     1.8075     0.4121
  969   19.360   5068.93     1.6868     0.0384     1.0249     0.1936     2.1106     2.2745   309.7600     1.8008     0.4527
  970   19.380   5069.89     1.6902     0.0349     1.0603     0.1938     2.1311     2.0721   310.0800     1.8210     0.4701
  971   19.400   5070.85     1.7195     0.0362     1.0871     0.1940     2.1731     2.1098   310.4000     1.8627     0.4756
  972   19.420   5071.80     1.8073     0.0510     1.1009     0.1942     2.2677     2.8002   310.7200     1.9570     0.4614
  973   19.440   5072.79     1.9932     0.0679     1.0947     0.1944     2.4560     3.4753   311.0400     2.1449     0.4231
  974   19.460   5073.78     2.0426     0.0701     1.0102     0.1946     2.4843     3.4452   311.3600     2.1730     0.3944
  975   19.480   5074.77     2.1209     0.0702     0.7504     0.1948     2.4766     3.3832   311.6800     2.1649     0.3010
  976   19.500   5075.72     2.0852     0.0704     0.7415     0.1950     2.3948     3.3031   312.0000     2.0828     0.2604
  977   19.520   5080.80     1.8768     0.0670     0.7190     0.1952     2.1786     3.4340   312.3200     1.8663     0.2806
  978   19.540   5109.88     1.7957     0.0600     0.7203     0.1954     2.0980     3.1779   312.6400     1.7854     0.2941
  979   19.560   5125.05     1.7110     0.0483     0.8001     0.1956     2.0346     2.7838   312.9600     1.7217     0.3340
  980   19.580   5126.03     1.6603     0.0433     0.8670     0.1958     2.0160     2.5944   313.2800     1.7027     0.3824
  981   19.600   5127.00     1.6068     0.0438     0.9241     0.1960     1.9877     2.7140   313.6000     1.6741     0.4246
  982   19.620   5127.96     1.5772     0.0422     0.9679     0.1962     1.9775     2.6668   313.9200     1.6635     0.4550
  983   19.640   5128.90     1.5885     0.0366     1.0121     0.1964     2.0068     2.3116   314.2400     1.6925     0.4724
  984   19.660   5129.86     1.5834     0.0208     1.0479     0.1966     2.0199     1.3097   314.5600     1.7053     0.4941
  985   19.680   5130.87     1.6011     0.0347     1.0741     0.1968     2.0474     2.1767   314.8800     1.7325     0.4997
  986   19.700   5131.84     1.6660     0.0637     1.1251     0.1970     2.1301     3.8613   315.2000     1.8149     0.5002
  987   19.720   5132.81     2.1459     0.0765     1.1911     0.1972     2.6363     3.9355   315.5200     2.3208     0.4218
  988   19.740   5133.80     3.0854     0.0803     1.1584     0.1974     3.5938     2.7983   315.8400     3.2780     0.3110
  989   19.760   5134.81     3.5298     0.0792     0.2813     0.1976     3.7970     2.2311   316.1600     3.4809     0.1209
  990   19.780   5135.77     3.1341     0.0807     0.2133     0.1978     3.2247     2.4060   316.4800     2.9082     0.0065
  991   19.800   5136.79     2.4250     0.0877     0.2049     0.1980     2.4993     3.4038   316.8000     2.1825    -0.0092
  992   19.820   5137.76     1.9635     0.0791     0.3244     0.1982     2.0830     3.9466   317.1200     1.7659     0.0492
  993   19.840   5138.75     1.8169     0.0558     0.4531     0.1984     1.9891     3.0526   317.4400     1.6717     0.1266
  994   19.860   5139.73     1.8330     0.0414     0.5614     0.1986     2.0544     2.2703   317.7600     1.7367     0.1890
  995   19.880   5140.68     1.8303     0.0335     0.6657     0.1988     2.0954     1.8198   318.0800     1.7773     0.2433
  996   19.900   5141.66     1.8040     0.0313     0.7567     0.1990     2.1095     1.7387   318.4000     1.7911     0.2950
  997   19.920   5142.65     1.8324     0.0357     0.8358     0.1992     2.1725     1.9537   318.7200     1.8538     0.3294
  998   19.940   5143.60     1.8547     0.0380     0.9032     0.1994     2.2227     2.0587   319.0400     1.9036     0.3554
  999   19.960   5144.59     1.9184     0.0396     0.9699     0.1996     2.3175     2.0883   319.3600     1.9981     0.3756
 1000   19.980   5145.54     1.9914     0.0418     0.9831     0.1998     2.4116     2.1295   319.6800     2.0919     0.3827
 1001   20.000   5146.55     2.0467     0.0432     0.8297     0.2000     2.4102     2.1039   320.0000     2.0902     0.3183
 1002   20.020   5147.54     1.8979     0.0445     0.8010     0.2002     2.2236     2.3003   320.3200     1.9033     0.3022
 1003   20.040   5148.49     1.7806     0.0467     0.8577     0.2004     2.1383     2.5922   320.6400     1.8176     0.3582
 1004   20.060   5149.46     1.7454     0.0481     0.9026     0.2006     2.1205     2.7200   320.9600     1.7995     0.3849
 1005   20.080   5150.40     1.7275     0.0421     0.9453     0.2008     2.1178     2.4196   321.2800     1.7965     0.4054
 1006   20.100   5151.35     1.7250     0.0397     1.0008     0.2010     2.1357     2.3117   321.6000     1.8141     0.4282
 1007   20.120   5152.31     1.7467     0.0422     1.0454     0.2012     2.1814     2.4204   321.9200     1.8595     0.4484
 1008   20.140   5153.32     1.8004     0.0414     1.0156     0.2014     2.2412     2.3279   322.2400     1.9189     0.4421
 1009   20.160   5154.31     1.8294     0.0429     0.9548     0.2016     2.2247     2.3524   322.5600     1.9022     0.3888
 1010   20.180   5155.25     1.8643     0.0423     0.9630     0.2018     2.2629     2.2774   322.8800     1.9401     0.3852
 1011   20.200   5156.20     1.9157     0.0419     0.9160     0.2020     2.3103     2.1771   323.2000     1.9871     0.3712
 1012   20.220   5157.16     1.8813     0.0396     0.9031     0.2022     2.2481     2.1060   323.5200     1.9245     0.3487
 1013   20.240   5158.15     1.9471     0.0489     0.9738     0.2024     2.3447     2.5494   323.8400     2.0209     0.3683
 1014   20.260   5159.17     2.2049     0.0576     0.9299     0.2026     2.6077     2.6665   324.1600     2.2835     0.3316
 1015   20.280   5160.18     2.5732     0.0688     0.8002     0.2028     2.9069     2.7552   324.4800     2.5825     0.2293
 1016   20.300   5161.14     2.8734     0.0765     0.6350     0.2030     3.1680     2.7155   324.8000     2.8432     0.1755
 1017   20.320   5162.11     2.9312     0.0806     0.4574     0.2032     3.1456     2.7314   325.1200     2.8205     0.1087
 1018   20.340   5163.09     2.6985     0.0874     0.4291     0.2034     2.8817     3.1844   325.4400     2.5562     0.0910
 1019   20.360   5164.06     2.6620     0.0836     0.4512     0.2036     2.8443     3.1315   325.7600     2.5185     0.0916
 1020   20.380   5165.04     2.4358     0.0804     0.4897     0.2038     2.6390     3.2630   326.0800     2.3129     0.1210
 1021   20.400   5166.04     2.3841     0.0786     0.5428     0.2040     2.6013     3.2871   326.4000     2.2749     0.1377
 1022   20.420   5167.01     2.4301     0.0772     0.5702     0.2042     2.6711     3.1917   326.7200     2.3444     0.1577
 1023   20.440   5168.01     2.4402     0.0716     0.5754     0.2044     2.6745     2.9141   327.0400     2.3475     0.1506
 1024   20.460   5169.01     2.3732     0.0676     0.5295     0.2046     2.6047     2.8662   327.3600     2.2773     0.1522
 1025   20.480   5169.97     2.2384     0.0628     0.5498     0.2048     2.4606     2.7369   327.6800     2.1329     0.1521
 1026   20.500   5170.95     1.9773     0.0607     0.6376     0.2050     2.2345     2.9779   328.0000     1.9065     0.2140
 1027   20.520   5171.91     1.8428     0.0575     0.7416     0.2052     2.1414     3.0820   328.3200     1.8131     0.2791
 1028   20.540   5172.85     1.9256     0.0494     0.8158     0.2054     2.2568     2.5924   328.6400     1.9281     0.3023
 1029   20.560   5173.83     1.9964     0.0446     0.8375     0.2056     2.3512     2.2504   328.9600     2.0223     0.3161
 1030   20.580   5174.82     1.9881     0.0420     0.7509     0.2058     2.3243     2.1021   329.2800     1.9950     0.2981
 1031   20.600   5175.81     2.1481     0.0530     0.7048     0.2060     2.4337     2.5232   329.6000     2.1041     0.2251
 1032   20.620   5176.83     2.3470     0.0587     0.6828     0.2062     2.6444     2.5232   329.9200     2.3144     0.2169
 1033   20.640   5177.82     2.2653     0.0618     0.5845     0.2064     2.5179     2.7330   330.2400     2.1877     0.1805
 1034   20.660   5178.74     2.1974     0.0582     0.6046     0.2066     2.4488     2.5904   330.5600     2.1183     0.1853
 1035   20.680   5179.72     2.0853     0.0506     0.5836     0.2068     2.3367     2.4120   330.8800     2.0059     0.1953
 1036   20.700   5180.69     1.8885     0.0612     0.6548     0.2070     2.1486     3.1341   331.2000     1.8174     0.2278
 1037   20.720   5181.69     1.7954     0.0690     0.7187     0.2072     2.0799     3.8412   331.5200     1.7484     0.2688
 1038   20.740   5182.71     2.1083     0.0696     0.8118     0.2074     2.4389     3.4952   331.8400     2.1070     0.2760
 1039   20.760   5183.65     2.7841     0.0604     0.7377     0.2076     3.1083     2.2899   332.1600     2.7762     0.2043
 1040   20.780   5184.67     3.0298     0.0598     0.4944     0.2078     3.2790     1.9543   332.4800     2.9465     0.1303
 1041   20.800   5185.67     2.4865     0.0597     0.4370     0.2080     2.6778     2.2726   332.8000     2.3450     0.1057
 1042   20.820   5186.64     2.0269     0.0665     0.6026     0.2082     2.2580     3.2245   333.1200     1.9249     0.1778
 1043   20.840   5187.60     1.9564     0.0625     0.7437     0.2084     2.2541     3.1748   333.4400     1.9206     0.2604
 1044   20.860   5188.63     1.9888     0.0493     0.8168     0.2086     2.3253     2.4923   333.7600     1.9915     0.2975
 1045   20.880   5189.52     2.0347     0.0466     0.8977     0.2088     2.3948     2.2949   334.0800     2.0607     0.3147
 1046   20.900   5190.57     2.0716     0.0477     0.8834     0.2090     2.4573     2.3453   334.4000     2.1229     0.3342
 1047   20.920   5191.55     1.9383     0.0483     0.7449     0.2092     2.2812     2.4263   334.7200     1.9465     0.3119
 1048   20.940   5192.50     1.8347     0.0477     0.7993     0.2094     2.1588     2.5717   335.0400     1.8238     0.3083
 1049   20.960   5193.47     1.7990     0.0458     0.8842     0.2096     2.1577     2.5365   335.3600     1.8223     0.3536
 1050   20.980   5194.43     1.8192     0.0495     0.9121     0.2098     2.2046     2.7455   335.6800     1.8690     0.3788
 1051   21.000   5195.43     1.9034     0.0479     0.9672     0.2100     2.3007     2.5778   336.0000     1.9647     0.3745
 1052   21.020   5196.40     2.0977     0.0527     0.8912     0.2102     2.5020     2.5770   336.3200     2.1657     0.3477
 1053   21.040   5197.37     2.2110     0.0554     0.7894     0.2104     2.5466     2.5506   336.6400     2.2100     0.2664
 1054   21.060   5198.34     2.2716     0.0584     0.7356     0.2106     2.5923     2.6154   336.9600     2.2554     0.2453
 1055   21.080   5199.34     2.3390     0.0590     0.7069     0.2108     2.6305     2.4668   337.2800     2.2932     0.2108
 1056   21.100   5200.30     2.2026     0.0558     0.7717     0.2110     2.5211     2.5221   337.6000     2.1835     0.2507
 1057   21.120   5201.26     2.1430     0.0543     0.8193     0.2112     2.4724     2.5105   337.9200     2.1345     0.2687
 1058   21.140   5202.27     2.0950     0.0495     0.8857     0.2114     2.4599     2.3665   338.2400     2.1216     0.3098
 1059   21.160   5203.26     2.0825     0.0437     0.9341     0.2116     2.4690     2.0991   338.5600     2.1304     0.3326
 1060   21.180   5204.19     2.1302     0.0492     0.9556     0.2118     2.5307     2.3170   338.8800     2.1918     0.3384
 1061   21.200   5205.17     2.2241     0.0589     0.9267     0.2120     2.6218     2.6717   339.2000     2.2826     0.3221
 1062   21.220   5206.16     2.3545     0.0539     0.8902     0.2122     2.7294     2.3101   339.5200     2.3898     0.2848
 1063   21.240   5207.15     2.5525     0.0566     0.8560     0.2124     2.9268     2.2638   339.8400     2.5869     0.2627
 1064   21.260   5208.14     2.6891     0.0738     0.6598     0.2126     3.0049     2.7570   340.1600     2.6648     0.2024
 1065   21.280   5209.12     2.6892     0.0818     0.5982     0.2128     2.9490     3.0482   340.4800     2.6085     0.1556
 1066   21.300   5210.13     2.8184     0.0746     0.5820     0.2130     3.0536     2.6561   340.8000     2.7128     0.1279
 1067   21.320   5211.12     3.0265     0.0681     0.4630     0.2132     3.2336     2.3309   341.1200     2.8925     0.0966
 1068   21.340   5212.12     2.6737     0.0533     0.4485     0.2134     2.8568     1.8850   341.4400     2.5153     0.0886
 1069   21.360   5213.10     2.5106     0.0443     0.5701     0.2136     2.7321     1.7908   341.7600     2.3904     0.1314
 1070   21.380   5214.18     5.7536     0.0453     0.5441     0.2138     6.0098     1.1435   342.0800     5.6677     0.0743
 1071   21.400   5215.19    10.3888     0.0465     0.6066     0.2140    10.6343     0.5762   342.4000    10.2919     0.0361
 1072   21.420   5216.23    13.9872     0.0506     0.1791     0.2142    14.1312     0.4780   342.7200    13.7885     0.0097
 1073   21.440   5217.33    16.3794     0.0547     0.0384     0.2144    16.4044     0.3798   343.0400    16.0613    -0.0096
 1074   21.460   5218.42    18.2516     0.0571     0.0276     0.2146    18.2623     0.3253   343.3600    17.9189    -0.0106
 1075   21.480   5219.46    19.6789     0.0637     0.0438     0.2148    19.6945     0.3326   343.6800    19.3509    -0.0092
 1076   21.500   5220.48    20.8519     0.0884     0.0667     0.2150    20.8755     0.4263   344.0000    20.5315    -0.0077
 1077   21.520   5235.40    21.1695     0.1073     0.0977     0.2152    21.2060     0.5138   344.3200    20.8617    -0.0062
 1078   21.540   5250.59    21.4677     0.1068     0.1287     0.2154    21.5173     0.5116   344.6400    21.1726    -0.0046
 1079   21.560   5263.19    21.7397     0.1036     0.1566     0.2156    21.8019     0.4887   344.9600    21.4569    -0.0032
 1080   21.580   5264.12    21.9504     0.1055     0.1820     0.2158    22.0228     0.4832   345.2800    21.6775    -0.0020
 1081   21.600   5265.08    22.6758     0.1095     0.1943     0.2160    22.7544     0.4923   345.6000    22.4088    -0.0013
 1082   21.620   5266.01    23.6830     0.1095     0.1918     0.2162    23.7708     0.4738   345.9200    23.4249    -0.0003
 1083   21.640   5266.96    24.9286     0.1119     0.1503     0.2164    24.9945     0.4601   346.2400    24.6482    -0.0024
 1084   21.660   5267.89    26.1779     0.1166     0.1520     0.2166    26.2409     0.4553   346.5600    25.8944    -0.0026
 1085   21.680   5268.82    26.6975     0.1182     0.1690     0.2168    26.7656     0.4445   346.8800    26.4187    -0.0021
 1086   21.700   5269.74    26.5495     0.1180     0.1667     0.2170    26.6209     0.4426   347.2000    26.2737    -0.0018
 1087   21.720   5270.67    26.1610     0.1189     0.1437     0.2172    26.2233     0.4523   347.5200    25.8758    -0.0027
 1088   21.740   5271.61    25.9521     0.1195     0.1552     0.2174    26.0149     0.4592   347.8400    25.6671    -0.0026
 1089   21.760   5272.60    26.2400     0.1220     0.1804     0.2176    26.3140     0.4687   348.1600    25.9658    -0.0016
 1090   21.780   5273.53    26.9852     0.1257     0.1953     0.2178    27.0667     0.4725   348.4800    26.7183    -0.0009
 1091   21.800   5274.52    27.4630     0.1303     0.1970     0.2180    27.5447     0.4752   348.8000    27.1959    -0.0009
 1092   21.820   5275.46    27.8580     0.1340     0.2003     0.2182    27.9412     0.4822   349.1200    27.5921    -0.0007
 1093   21.840   5276.37    27.9694     0.1359     0.2055     0.2184    28.0551     0.4863   349.4400    27.7056    -0.0005
 1094   21.860   5277.30    27.7152     0.1343     0.2093     0.2186    27.8024     0.4832   349.7600    27.4527    -0.0004
 1095   21.880   5278.21    27.2437     0.1306     0.2152     0.2188    27.3339     0.4769   350.0800    26.9839    -0.0001
 1096   21.900   5279.12    26.4927     0.1219     0.2136     0.2190    26.5828     0.4583   350.4000    26.2324    -0.0002
 1097   21.920   5280.04    25.8553     0.1159     0.2133     0.2192    25.9449     0.4465   350.7200    25.5942    -0.0002
 1098   21.940   5281.02    25.4760     0.1096     0.2129     0.2194    25.5659     0.4292   351.0400    25.2149    -0.0002
 1099   21.960   5281.93    25.1106     0.1057     0.2117     0.2196    25.1996     0.4201   351.3600    24.8482    -0.0003
 1100   21.980   5282.85    24.7163     0.1088     0.2101     0.2198    24.8046     0.4393   351.6800    24.4529    -0.0004
 1101   22.000   5283.74    23.8119     0.1177     0.2089     0.2200    23.9003     0.4821   352.0000    23.5483    -0.0004
 1102   22.020   5284.62    21.5270     0.1365     0.2048     0.2202    21.6136     0.6030   352.3200    21.2613    -0.0007
 1103   22.040   5285.48    18.1511     0.1609     0.2024     0.2204    18.2355     0.8572   352.6400    17.8828    -0.0011
 1104   22.060   5286.35    14.4252     0.1851     0.2044     0.2206    14.5103     1.1774   352.9600    14.1574    -0.0013
 1105   22.080   5287.35    10.7862     0.1826     0.2232     0.2208    10.8782     1.6702   353.2800    10.5249    -0.0001
 1106   22.100   5288.37     8.1278     0.1601     0.2187     0.2210     8.2196     1.8509   353.6000     7.8660    -0.0003
 1107   22.120   5289.38     6.1583     0.1411     0.2257     0.2212     6.2521     2.2695   353.9200     5.8982     0.0004
 1108   22.140   5290.39     5.1971     0.1374     0.2294     0.2214     5.2924     2.5424   354.2400     4.9382     0.0011
 1109   22.160   5291.39     5.5508     0.1582     0.2169     0.2216     5.6470     2.8977   354.5600     5.2925     0.0014
 1110   22.180   5292.42     6.5172     0.1694     0.2457     0.2218     6.6143     2.6515   354.8800     6.2594     0.0014
 1111   22.200   5293.44     6.5491     0.1585     0.2206     0.2220     6.6617     2.4034   355.2000     6.3065     0.0073
 1112   22.220   5294.44     5.2795     0.1325     0.1568     0.2222     5.3439     2.4592   355.5200     4.9884    -0.0139
 1113   22.240   5295.44     4.2855     0.1075     0.1990     0.2224     4.3608     2.4777   355.8400     4.0049    -0.0107
 1114   22.260   5296.43     3.6785     0.1018     0.2579     0.2226     3.7803     2.5956   356.1600     3.4241     0.0059
 1115   22.280   5297.43     3.1568     0.0971     0.3712     0.2228     3.2836     2.9003   356.4800     2.9271     0.0272
 1116   22.300   5298.44     2.9539     0.0895     0.7223     0.2230     3.1984     3.0187   356.8000     2.8416     0.1263
 1117   22.320   5299.46     4.0536     0.0798     0.7120     0.2232     4.4061     2.3210   357.1200     4.0490     0.1528
 1118   22.340   5300.48     5.8583     0.0799     0.4200     0.2234     6.0869     1.6073   357.4400     5.7294     0.0565
 1119   22.360   5301.48     8.1141     0.0873     0.1992     0.2236     8.2221     1.2227   357.7600     7.8643     0.0045
 1120   22.380   5302.58    10.0494     0.1147     0.1634     0.2238    10.1225     1.2327   358.0800     9.7644    -0.0051
 1121   22.400   5303.55    10.4036     0.1394     0.1321     0.2240    10.4648     1.3312   358.4000    10.1064    -0.0077
 1122   22.420   5304.62     9.7364     0.1471     0.1288     0.2242     9.7904     1.4605   358.7200     9.4317    -0.0102
 1123   22.440   5305.59     9.1590     0.1447     0.1282     0.2244     9.2130     1.5423   359.0400     8.8539    -0.0108
 1124   22.460   5306.63     8.6124     0.1380     0.1441     0.2246     8.6704     1.5658   359.3600     8.3111    -0.0104
 1125   22.480   5307.67     8.5702     0.1328     0.2056     0.2248     8.6469     1.5547   359.6800     8.2872    -0.0051
 1126   22.500   5308.70     9.1641     0.1297     0.2531     0.2250     9.2651     1.4417   360.0000     8.9051     0.0017
 1127   22.520   5309.74    11.3376     0.1259     0.2548     0.2252    11.4399     1.2026   360.3200    11.0796     0.0016
 1128   22.540   5310.83    14.9353     0.1229     0.1753     0.2254    15.0313     0.9056   360.6400    14.6707     0.0004
 1129   22.560   5311.84    17.3831     0.1169     0.0890     0.2256    17.4239     0.6945   360.9600    17.0629    -0.0075
 1130   22.580   5312.77    17.2313     0.1111     0.1054     0.2258    17.2738     0.6324   361.2800    16.9125    -0.0074
 1131   22.600   5313.68    15.3507     0.1329     0.0919     0.2260    15.3922     0.8329   361.6000    15.0306    -0.0085
 1132   22.620   5314.55    12.7677     0.1584     0.1250     0.2262    12.8098     1.2122   361.9200    12.4479    -0.0101
 1133   22.640   5315.55    10.0546     0.1831     0.1449     0.2264    10.1145     1.7593   362.2400     9.7523    -0.0086
 1134   22.660   5316.58     7.9532     0.1974     0.1738     0.2266     8.0224     2.2466   362.5600     7.6598    -0.0081
 1135   22.680   5317.59     6.7805     0.1861     0.2026     0.2268     6.8620     2.7124   362.8800     6.4991    -0.0050
 1136   22.700   5318.58     6.2225     0.1790     0.2314     0.2270     6.3182     2.8040   363.2000     5.9550     0.0002
 1137   22.720   5319.53     6.3677     0.1553     0.2498     0.2272     6.4656     2.4662   363.5200     6.1020     0.0010
 1138   22.740   5320.61     6.8507     0.1398     0.2608     0.2274     6.9594     2.1185   363.8400     6.5956     0.0048
 1139   22.760   5321.64     8.2070     0.1348     0.2438     0.2276     8.3152     1.8117   364.1600     7.9510     0.0038
 1140   22.780   5322.67    10.2056     0.1340     0.2420     0.2278    10.3070     1.4396   364.4800     9.9426     0.0014
 1141   22.800   5323.71    11.7474     0.1367     0.1937     0.2280    11.8302     1.2224   364.8000    11.4654    -0.0027
 1142   22.820   5324.76    11.2806     0.1484     0.1181     0.2282    11.3310     1.3055   365.1200    10.9659    -0.0099
 1143   22.840   5325.75     9.8518     0.1720     0.1270     0.2284     9.9027     1.6868   365.4400     9.5373    -0.0112
 1144   22.860   5326.80     8.0367     0.1819     0.1396     0.2286     8.0927     2.2323   365.7600     7.7270    -0.0123
 1145   22.880   5327.80     6.9030     0.1810     0.1701     0.2288     6.9684     2.5750   366.0800     6.6023    -0.0111
 1146   22.900   5328.81     5.4911     0.1772     0.1947     0.2290     5.5720     3.1212   366.4000     5.2056    -0.0071
 1147   22.920   5329.75     4.3432     0.1603     0.2754     0.2292     4.4417     3.6295   366.7200     4.0750     0.0016
 1148   22.940   5330.77     3.2948     0.1363     0.4129     0.2294     3.4503     4.0071   367.0400     3.0833     0.0467
 1149   22.960   5331.82     2.5290     0.1043     0.5907     0.2296     2.7500     4.0284   367.3600     2.3826     0.1252
 1150   22.980   5332.80     2.3429     0.0781     0.7284     0.2298     2.6298     3.2971   367.6800     2.2622     0.2004
 1151   23.000   5333.79     2.2732     0.0731     0.8665     0.2300     2.6172     3.1894   368.0000     2.2492     0.2618
 1152   23.020   5334.77     2.7586     0.0645     0.9907     0.2302     3.1602     2.4978   368.3200     2.7919     0.2629
 1153   23.040   5335.77     4.5309     0.0729     1.0100     0.2304     4.9646     1.8650   368.6400     4.5959     0.1777
 1154   23.060   5336.80     6.8305     0.0972     0.4539     0.2306     7.1239     1.7085   368.9600     6.7550     0.0716
 1155   23.080   5337.83     8.6086     0.1254     0.2281     0.2308     8.7306     1.5489   369.2800     8.3613     0.0074
 1156   23.100   5338.86     9.3799     0.1444     0.1680     0.2310     9.4542     1.5435   369.6000     9.0846    -0.0059
 1157   23.120   5339.86     9.0777     0.1509     0.1369     0.2312     9.1393     1.6549   369.9200     8.7694    -0.0096
 1158   23.140   5340.85     7.9273     0.1715     0.1297     0.2314     7.9812     1.9878   370.2400     7.6109    -0.0136
 1159   23.160   5341.86     5.9381     0.1773     0.1263     0.2316     5.9922     2.7111   370.5600     5.6217    -0.0184
 1160   23.180   5342.86     5.4168     0.1767     0.1559     0.2318     5.4751     3.1954   370.8800     5.1042    -0.0182
 1161   23.200   5343.86     5.2611     0.1546     0.3184     0.2320     5.3624     2.9090   371.2000     4.9912     0.0018
 1162   23.220   5344.90     5.1021     0.1396     0.5653     0.2322     5.2985     2.6746   371.5200     4.9270     0.0479
 1163   23.240   5345.91     5.1753     0.1371     0.7216     0.2324     5.4762     2.7615   371.8400     5.1043     0.0947
 1164   23.260   5346.94     6.9885     0.1293     0.6571     0.2326     7.2919     2.1080   372.1600     6.9198     0.0711
 1165   23.280   5348.02     9.0172     0.1207     0.3596     0.2328     9.1992     1.4347   372.4800     8.8268     0.0229
 1166   23.300   5349.04     9.9662     0.1253     0.1429     0.2330    10.0405     1.3072   372.8000     9.6677    -0.0058
 1167   23.320   5350.07    10.3499     0.1404     0.0917     0.2332    10.3970     1.3708   373.1200    10.0239    -0.0121
 1168   23.340   5351.14    10.4794     0.1567     0.0784     0.2334    10.5146     1.5020   373.4400    10.1411    -0.0148
 1169   23.360   5352.13    10.5448     0.1450     0.0798     0.2336    10.5770     1.3790   373.7600    10.2032    -0.0154
 1170   23.380   5353.20    11.0142     0.1430     0.1081     0.2338    11.0545     1.3222   374.0800    10.6805    -0.0129
 1171   23.400   5354.21    12.3944     0.1568     0.1504     0.2340    12.4495     1.3293   374.4000    12.0751    -0.0085
 1172   23.420   5355.25    13.3591     0.1862     0.1329     0.2342    13.4203     1.4751   374.7200    13.0456    -0.0068
 1173   23.440   5356.27    12.7143     0.1918     0.0529     0.2344    12.7501     1.5468   375.0400    12.3751    -0.0121
 1174   23.460   5357.25    10.3912     0.1879     0.0241     0.2346    10.4033     1.6566   375.3600    10.0280    -0.0206
 1175   23.480   5358.30     7.8467     0.1710     0.0262     0.2348     7.8573     1.9525   375.6800     7.4816    -0.0282
 1176   23.500   5359.30     6.3564     0.1625     0.0564     0.2350     6.3741     2.4034   376.0000     5.9981    -0.0322
 1177   23.520   5366.24     5.0356     0.1657     0.1954     0.2352     5.0965     3.5812   376.3200     4.7202    -0.0190
 1178   23.540   5392.92     4.9292     0.1728     0.3420     0.2354     5.0516     3.8223   376.6400     4.6749     0.0124
 1179   23.560   5419.59     4.8227     0.1677     0.4905     0.2356     5.0067     3.7108   376.9600     4.6297     0.0438
 1180   23.580   5421.47     5.8403     0.1567     0.5500     0.2358     6.0674     2.7645   377.2800     5.6901     0.0536
 1181   23.600   5422.57     6.6517     0.1546     0.3752     0.2360     6.8288     2.3335   377.6000     6.4512     0.0288
 1182   23.620   5423.55     6.8502     0.1588     0.2613     0.2362     6.9669     2.3325   377.9200     6.5890     0.0063
 1183   23.640   5424.57     6.6059     0.1547     0.2357     0.2364     6.7026     2.3220   378.2400     6.3244    -0.0009
 1184   23.660   5425.60     5.9851     0.1423     0.2180     0.2366     6.0843     2.3289   378.5600     5.7057    -0.0001
 1185   23.680   5426.59     5.2127     0.1272     0.2452     0.2368     5.3042     2.4045   378.8800     4.9254    -0.0037
 1186   23.700   5427.55     4.6722     0.1214     0.2951     0.2370     4.7757     2.5786   379.2000     4.3965     0.0022
 1187   23.720   5428.52     4.4137     0.1128     0.4636     0.2372     4.5809     2.5405   379.5200     4.2014     0.0383
 1188   23.740   5429.55     3.8358     0.1030     0.5948     0.2374     4.0589     2.6395   379.8400     3.6791     0.0800
 1189   23.760   5430.55     3.3445     0.0983     0.7976     0.2376     3.6593     2.9232   380.1600     3.2792     0.1561
 1190   23.780   5431.55     3.2907     0.0836     0.8930     0.2378     3.6461     2.5734   380.4800     3.2657     0.1863
 1191   23.800   5432.57     3.3589     0.0641     0.9183     0.2380     3.7310     1.9613   380.8000     3.3502     0.1934
 1192   23.820   5433.55     3.7515     0.0530     0.9509     0.2382     4.1311     1.4988   381.1200     3.7500     0.1775
 1193   23.840   5434.58     3.8067     0.0432     1.1126     0.2384     4.2588     1.1503   381.4400     3.8773     0.2162
 1194   23.860   5435.56     4.8858     0.0386     1.1896     0.2386     5.3942     0.9039   381.7600     5.0124     0.1944
 1195   23.880   5436.61     8.4609     0.0541     1.0084     0.2388     8.9675     0.7789   382.0800     8.5854     0.1143
 1196   23.900   5437.70    12.7630     0.0832     0.3136     0.2390    12.9571     0.6961   382.4000    12.5747     0.0184
 1197   23.920   5438.79    16.8542     0.1229     0.1969     0.2392    16.9543     0.7621   382.7200    16.5716     0.0000
 1198   23.940   5439.81    17.7392     0.1569     0.1275     0.2394    17.7979     0.8822   383.0400    17.4149    -0.0057
 1199   23.960   5440.82    16.1119     0.1593     0.1297     0.2396    16.1655     0.9386   383.3600    15.7822    -0.0071
 1200   23.980   5441.84    13.4823     0.1514     0.1567     0.2398    13.5419     1.0415   383.6800    13.1582    -0.0074
 1201   24.000   5442.86    11.5644     0.1526     0.2185     0.2400    11.6468     1.2577   384.0000    11.2628    -0.0039
 1202   24.020   5443.85    11.5029     0.1490     0.2902     0.2402    11.6136     1.3094   384.3200    11.2292     0.0021
 1203   24.040   5444.92    12.4702     0.1401     0.2666     0.2404    12.5941     1.1675   384.6400    12.2095     0.0045
 1204   24.060   5445.98    13.8420     0.1521     0.2011     0.2406    13.9388     1.1465   384.9600    13.5539    -0.0007
 1205   24.080   5446.98    14.3023     0.1748     0.1339     0.2408    14.3645     1.2285   385.2800    13.9792    -0.0066
 1206   24.100   5448.01    14.2010     0.1590     0.0898     0.2410    14.2467     1.1042   385.6000    13.8611    -0.0095
 1207   24.120   5449.03    13.2244     0.1491     0.0894     0.2412    13.2643     1.0904   385.9200    12.8784    -0.0114
 1208   24.140   5450.11    12.4818     0.1586     0.1032     0.2414    12.5208     1.2477   386.2400    12.1346    -0.0122
 1209   24.160   5451.11    12.2233     0.1876     0.1118     0.2416    12.2713     1.5302   386.5600    11.8847    -0.0107
 1210   24.180   5452.14    11.9126     0.2267     0.1791     0.2418    11.9785     1.8786   386.8800    11.5916    -0.0073
 1211   24.200   5453.16    11.2591     0.2087     0.1080     0.2420    11.3117     1.7842   387.2000    10.9245    -0.0107
 1212   24.220   5454.18    10.1895     0.2337     0.1037     0.2422    10.2336     2.1834   387.5200     9.8461    -0.0140
 1213   24.240   5455.21     9.1016     0.2585     0.1356     0.2424     9.1495     2.7418   387.8400     8.7616    -0.0147
 1214   24.260   5456.23     8.6863     0.2318     0.1590     0.2426     8.7549     2.6115   388.1600     8.3668    -0.0095
 1215   24.280   5457.22     7.5099     0.2081     0.2287     0.2428     7.6006     2.5767   388.4800     7.2121    -0.0036
 1216   24.300   5458.27     6.0784     0.2070     0.1421     0.2430     6.1406     3.2995   388.8000     5.7518    -0.0166
 1217   24.320   5459.29     6.5088     0.1866     0.2985     0.2432     6.6036     3.0361   389.1200     6.2145    -0.0034
 1218   24.340   5460.37     8.5572     0.1482     0.3544     0.2434     8.7057     1.8537   389.4400     8.3162     0.0133
 1219   24.360   5461.39    10.4949     0.1265     0.1946     0.2436    10.6014     1.2752   389.7600    10.2117     0.0012
 1220   24.380   5462.51    12.0975     0.1180     0.1532     0.2438    12.1630     1.0206   390.0800    11.7729    -0.0075
 1221   24.400   5463.57    13.3881     0.0963     0.1612     0.2440    13.4492     0.7260   390.4000    13.0588    -0.0076
 1222   24.420   5464.64    15.0491     0.0955     0.1674     0.2442    15.1215     0.6523   390.7200    14.7308    -0.0049
 1223   24.440   5465.72    17.1812     0.0990     0.1533     0.2444    17.2405     0.6129   391.0400    16.8495    -0.0062
 1224   24.460   5466.72    20.1455     0.0920     0.1622     0.2446    20.2154     0.4625   391.3600    19.8240    -0.0039
 1225   24.480   5467.66    22.8166     0.0877     0.1165     0.2448    22.8772     0.3890   391.6800    22.4855    -0.0045
 1226   24.500   5468.64    24.4874     0.0931     0.0733     0.2450    24.5235     0.3839   392.0000    24.1315    -0.0066
 1227   24.520   5469.52    24.6008     0.1070     0.0333     0.2452    24.6171     0.4343   392.3200    24.2248    -0.0085
 1228   24.540   5470.44    22.8882     0.1343     0.0325     0.2454    22.9044     0.5814   392.6400    22.5118    -0.0092
 1229   24.560   5471.29    20.3030     0.1745     0.0031     0.2456    20.3087     0.8108   392.9600    19.9157    -0.0117
 1230   24.580   5472.17    17.1314     0.2043    -0.0122     0.2458    17.1277     1.1376   393.2800    16.7344    -0.0153
 1231   24.600   5473.02    14.6396     0.2218     0.0054     0.2460    14.6374     1.3862   393.6000    14.2438    -0.0176
 1232   24.620   5473.99    12.6940     0.2268     0.0485     0.2462    12.7073     1.6873   393.9200    12.3134    -0.0174
 1233   24.640   5474.97    11.8214     0.2114     0.1217     0.2464    11.8615     1.7529   394.2400    11.4672    -0.0132
 1234   24.660   5476.02    11.2153     0.1926     0.1839     0.2466    11.2874     1.6780   394.5600    10.8928    -0.0069
 1235   24.680   5477.02    10.6368     0.1707     0.2272     0.2468    10.7272     1.5906   394.8800    10.3323    -0.0031
 1236   24.700   5478.07    10.8898     0.1647     0.1913     0.2470    10.9723     1.5499   395.2000    10.5771    -0.0048
 1237   24.720   5479.13    11.4375     0.1926     0.1821     0.2472    11.5239     1.7080   395.5200    11.1284    -0.0037
 1238   24.740   5480.11    11.0554     0.2043     0.1258     0.2474    11.1187     1.7960   395.8400    10.7229    -0.0090
 1239   24.760   5481.21     9.7851     0.1827     0.1128     0.2476     9.8345     1.7918   396.1600     9.4383    -0.0138
 1240   24.780   5482.23     8.5087     0.1567     0.1062     0.2478     8.5543     1.7548   396.4800     8.1578    -0.0171
 1241   24.800   5483.24     6.9601     0.1630     0.1249     0.2480     7.0064     2.2039   396.8000     6.6096    -0.0209
 1242   24.820   5484.32     6.6874     0.1554     0.2393     0.2482     6.7748     2.3766   397.1200     6.3777    -0.0064
 1243   24.840   5485.37     7.9235     0.1430     0.3621     0.2484     8.0524     1.9649   397.4400     7.6550     0.0074
 1244   24.860   5486.42    10.4474     0.1423     0.3446     0.2486    10.6332     1.5763   397.7600    10.2354     0.0189
 1245   24.880   5487.48    13.0018     0.1652     0.1385     0.2488    13.0742     1.3484   398.0800    12.6762    -0.0060
 1246   24.900   5488.51    13.3166     0.1971     0.1053     0.2490    13.3640     1.4683   398.4000    12.9656    -0.0105
 1247   24.920   5489.53    12.4024     0.2566     0.0861     0.2492    12.4404     2.0599   398.7200    12.0417    -0.0132
 1248   24.940   5490.50    10.8619     0.2798     0.0787     0.2494    10.8947     2.5228   399.0400    10.4957    -0.0163
 1249   24.960   5491.58     8.8055     0.2806     0.0845     0.2496     8.8399     3.0903   399.3600     8.4405    -0.0199
 1250   24.980   5492.56     7.0176     0.2685     0.1108     0.2498     7.0584     3.7642   399.6800     6.6587    -0.0229
 1251   25.000   5493.58     5.9216     0.2567     0.2075     0.2500     5.9868     4.2701   400.0000     5.5868    -0.0169
 1252   25.020   5494.58     5.1332     0.2276     0.3274     0.2502     5.2651     4.3310   400.3200     4.8648     0.0131
 1253   25.040   5495.53     4.5934     0.2238     0.5927     0.2504     4.7706     4.6204   400.6400     4.3699     0.0394
 1254   25.060   5496.56     4.2402     0.1989     0.8029     0.2506     4.5631     4.6528   400.9600     4.1622     0.1245
 1255   25.080   5497.56     3.9656     0.1508     0.7773     0.2508     4.3009     3.6352   401.2800     3.8997     0.1405
 1256   25.100   5498.53     3.5386     0.1300     0.7469     0.2510     3.8658     3.4460   401.6000     3.4642     0.1524
 1257   25.120   5499.58     3.2977     0.1156     0.6606     0.2512     3.5772     3.4977   401.9200     3.1752     0.1304
 1258   25.140   5500.58     2.9997     0.0933     0.7191     0.2514     3.2898     3.0497   402.2400     2.8875     0.1523
 1259   25.160   5501.60     2.6818     0.0829     0.7683     0.2516     2.9990     3.0707   402.5600     2.5964     0.1940
 1260   25.180   5502.59     2.5523     0.0630     0.7964     0.2518     2.8852     2.4647   402.8800     2.4823     0.2179
 1261   25.200   5503.62     2.4635     0.0499     0.8068     0.2520     2.8051     2.0166   403.2000     2.4019     0.2337
 1262   25.220   5504.60     2.3329     0.0461     0.7896     0.2522     2.6663     1.9721   403.5200     2.2628     0.2393
 1263   25.240   5505.58     2.2850     0.0445     0.7964     0.2524     2.6173     1.9404   403.8400     2.2135     0.2434
 1264   25.260   5506.60     2.1942     0.0450     0.8137     0.2526     2.5353     2.0385   404.1600     2.1312     0.2626
 1265   25.280   5507.61     2.1425     0.0415     0.8303     0.2528     2.4888     1.9332   404.4800     2.0843     0.2743
 1266   25.300   5508.63     2.1115     0.0371     0.8436     0.2530     2.4648     1.7528   404.8000     2.0600     0.2855
 1267   25.320   5509.59     2.0850     0.0366     0.8610     0.2532     2.4441     1.7545   405.1200     2.0390     0.2951
 1268   25.340   5510.59     2.0505     0.0366     0.8777     0.2534     2.4167     1.7823   405.4400     2.0113     0.3075
 1269   25.360   5511.56     2.0317     0.0359     0.8843     0.2536     2.4031     1.7666   405.7600     1.9973     0.3157
 1270   25.380   5512.59     1.9929     0.0340     0.8759     0.2538     2.3628     1.6971   406.0800     1.9567     0.3204
 1271   25.400   5513.58     1.9636     0.0341     0.8814     0.2540     2.3329     1.7319   406.4000     1.9265     0.3245
 1272   25.420   5514.57     1.9417     0.0355     0.8963     0.2542     2.3168     1.8237   406.7200     1.9101     0.3345
 1273   25.440   5515.59     1.9173     0.0368     0.9030     0.2544     2.2945     1.9154   407.0400     1.8875     0.3411
 1274   25.460   5516.56     1.8704     0.0364     0.9105     0.2546     2.2525     1.9281   407.3600     1.8452     0.3551
 1275   25.480   5517.58     1.8333     0.0340     0.8908     0.2548     2.2107     1.8426   407.6800     1.8030     0.3570
 1276   25.500   5519.64     1.7738     0.0327     0.8978     0.2550     2.1407     1.8239   408.0000     1.7327     0.3572
 1277   25.520   5539.66     1.6863     0.0326     0.9683     0.2552     2.0828     1.8339   408.3200     1.6745     0.4147
 1278   25.540   5559.68     1.5988     0.0328     1.0389     0.2554     2.0249     1.8422   408.6400     1.6163     0.4722
 1279   25.560   5571.88     1.5289     0.0322     1.0802     0.2556     1.9771     2.0956   408.9600     1.5682     0.5176
 1280   25.580   5572.91     1.4930     0.0314     1.0915     0.2558     1.9527     2.1020   409.2800     1.5435     0.5434
 1281   25.600   5573.90     1.5113     0.0313     1.1072     0.2560     1.9718     2.0747   409.6000     1.5622     0.5380
 1282   25.620   5574.91     1.5409     0.0172     1.1386     0.2562     2.0110     1.1211   409.9200     1.6011     0.5391
 1283   25.640   5575.91     1.6198     0.0024     1.1796     0.2564     2.1126     0.1526   410.2400     1.7024     0.5388
 1284   25.660   5576.84     1.7145     0.0132     1.1419     0.2566     2.2033     0.7726   410.5600     1.7927     0.5060
 1285   25.680   5577.79     1.7718     0.0184     1.1619     0.2568     2.2472     1.0503   410.8800     1.8363     0.4764
 1286   25.700   5578.81     2.4577     0.0431     1.2858     0.2570     2.9842     2.1699   411.2000     2.5730     0.3946
 1287   25.720   5579.88     6.3714     0.0821     0.8984     0.2572     6.8600     1.5378   411.5200     6.4485     0.1482
 1288   25.740   5580.92    10.2682     0.1228     0.4799     0.2574    10.4859     1.3281   411.8400    10.0741     0.0262
 1289   25.760   5582.02    12.8657     0.1618     0.3513     0.2576    13.0400     1.2715   412.1600    12.6279     0.0125
 1290   25.780   5583.96    13.1730     0.2385     0.3516     0.2578    13.3187     1.6052   412.4800    12.9063     0.0069
 1291   25.800   5585.10    14.6553     0.2423     0.3274     0.2580    14.8058     1.5403   412.8000    14.3930     0.0070
 1292   25.820   5586.20    16.2964     0.2462     0.3360     0.2582    16.4357     1.4754   413.1200    16.0225     0.0046
 1293   25.840   5588.07    22.8770     0.2466     0.2839     0.2584    23.0032     1.2451   413.4400    22.5898     0.0022
 1294   25.860   5592.03    31.8667     0.2538     0.2361     0.2586    31.9728     1.2377   413.7600    31.5590     0.0004
 1295   25.880   5597.44    37.4606     0.2783     0.1831     0.2588    37.5414     1.2533   414.0800    37.1273    -0.0018
 1296   25.900   5600.81    38.9393     0.3006     0.1711     0.2590    39.0129     1.1070   414.4000    38.5985    -0.0021
 1297   25.920   5603.69    41.2399     0.3229     0.1592     0.2592    41.3084     0.9607   414.7200    40.8937    -0.0023
 1298   25.940   5606.55    43.5285     0.3664     0.1547     0.2594    43.5922     0.9458   415.0400    43.1772    -0.0025
 1299   25.960   5607.55    45.0517     0.4289     0.1818     0.2596    45.1274     0.9646   415.3600    44.7121    -0.0018
 1300   25.980   5608.57    45.9725     0.4905     0.2003     0.2598    46.0558     1.0745   415.6800    45.6401    -0.0013
 1301   26.000   5610.89    45.8621     0.4958     0.2061     0.2600    45.9479     1.0784   416.0000    45.5319    -0.0012
 1302   26.020   5613.21    45.7518     0.4770     0.2119     0.2602    45.8399     1.0376   416.3200    45.4236    -0.0011
 1303   26.040   5615.27    45.6091     0.4893     0.2363     0.2604    45.7031     1.0680   416.6400    45.2865    -0.0008
 1304   26.060   5616.26    45.3505     0.5295     0.2583     0.2606    45.4558     1.1648   416.9600    45.0389    -0.0002
 1305   26.080   5617.27    45.4595     0.5380     0.2683     0.2608    45.5693     1.1868   417.2800    45.1520     0.0000
 1306   26.100   5618.66    45.3118     0.4730     0.2592     0.2610    45.4234     1.0409   417.6000    45.0058     0.0001
 1307   26.120   5621.56    44.7015     0.4706     0.2403     0.2612    44.8052     1.0356   417.9200    44.3873    -0.0003
 1308   26.140   5623.89    44.5898     0.4597     0.2513     0.2614    44.6915     1.0219   418.2400    44.2733    -0.0004
 1309   26.160   5624.92    45.1318     0.4816     0.2663     0.2616    45.2444     1.0701   418.5600    44.8259     0.0001
 1310   26.180   5625.95    45.4346     0.5205     0.2869     0.2618    45.5429     1.1500   418.8800    45.1240    -0.0001
 1311   26.200   5641.72    37.0567     0.5538     0.3729     0.2620    37.2085     1.2273   419.2000    36.7893     0.0029
 1312   26.220   5647.29    43.2363     0.5733     0.2667     0.2622    43.3336     1.3522   419.5200    42.9141    -0.0007
 1313   26.240   5649.91    43.5870     0.5829     0.2559     0.2624    43.6943     1.4190   419.8400    43.2745    -0.0002
 1314   26.260   5651.00    44.8867     0.5968     0.2849     0.2626    45.0051     1.3330   420.1600    44.5849     0.0004
 1315   26.280   5652.00    45.3116                0.2801     0.2628    45.4364              420.4800    45.0159     0.0008
 1316   26.300   5653.06    46.1129                0.2835     0.2630    46.2292              420.8000    45.8084     0.0003
 1317   26.320   5654.13    47.0015                0.2914     0.2632    47.1244              421.1200    46.7033     0.0006
 1318   26.340   5655.20    47.7651                0.2714     0.2634    47.8805              421.4400    47.4590     0.0002
 1319   26.360   5656.24    48.8332                0.2440     0.2636    48.9400              421.7600    48.5183    -0.0002
 1320   26.380   5657.36    50.5943                           0.2638    50.6871              422.0800    50.2650    -0.0009
 
 
