

 Program UNIPLOT                         version 05.36.02
 _______________
 (c) Fugro Netherlands Marine, Nootdorp, The Netherlands


 ASCII representation of data plotted on a graph.

 This ASCII file presents data interpolated to values per fixed depth interval.
 The data are corrected for the depth-offset differences between the various 
 transducers in the penetrometer.

 The records at the start of penetration may include no values or anomalous
 values where a depth offset implies incomplete penetration of a particular
 sensor into the ground.

 The records at the end of penetration may include no values for data channels
 where the transducer did not reach this depth.

 The reference level for test values is (1) the ground surface for onshore tests and (2) the seafloor for nearshore and offshore tests.

 UNICAS data file          : CPT-2028.000                            
 Output using command file : PlotASCII.cmd

 ASCII file created at : date          :13-Dec-2021
                         time          :11:23:51
 Project number                        :20024805
 Date of testing                       :11-Dec-2021
 Location                              :Hong Kong Offshore Wind Farm Project
 Test name                             :CPT-2028
 Penetrometer                          :F7.5CKE2HAW2/B/3284
 Serial no                             :1701-3284

 Table description:
 Column ID                             :Parameter name
 ___________________________________________________________________________________
 Rec                                   :Record ID, Record ID [-]
 Depth                                 :Depth, Depth [m]
 Time                                  :Time, Time [s]
 Cone                                  :Cone Resistance, Cone Resistance [MPa]
 Friction                              :Sleeve Friction, Sleeve Friction [MPa]
 Pore 2                                :Porewater Pressure, Porewater Pressure at Shoulder [MPa]
 HydroPress                            :Hydrostatic Pressure, Hydrostatic Pressure [MPa]
 qt                                    :Total Cone Resistance, Total Cone Resistance [MPa]
 Fric_ratio                            :Friction Ratio, Friction Ratio [%]
 SigmaVert                             :Vertical stress, Vertical stress [kPa] as specified in ground model
 Qnet                                  :Net Cone Resistance, Net Cone Resistance [MPa], unit weight as specified in ground model
 Bq                                    :Porewater Pressure Ratio, Porewater Pressure Ratio [-], unit weight as specified in ground model


 Data table:
  Rec    Depth      Time       Cone   Friction     Pore 2 HydroPress         qt Fric_ratio  SigmaVert       Qnet         Bq
   No        m         s        MPa        MPa        MPa        MPa        MPa          %        kPa        MPa          -
    1    0.000   2537.28     0.0000                           0.0000     0.0000                0.0000     0.0000           
    2    0.020   2573.80     0.0183                0.0019     0.0002     0.0190                0.3200     0.0187     0.0888
    3    0.040   2574.81     0.0223                0.0005     0.0004     0.0226                0.6400     0.0219     0.0055
    4    0.060   2575.80     0.0211     0.0000     0.0000     0.0006     0.0212     0.1540     0.9600     0.0203    -0.0125
    5    0.080   2576.80     0.0284     0.0006     0.0006     0.0008     0.0286     2.1965     1.2800     0.0273    -0.0150
    6    0.100   2577.76     0.0381     0.0009     0.0010     0.0010     0.0384     2.5776     1.6000     0.0368    -0.0097
    7    0.120   2578.72     0.0435     0.0010     0.0000     0.0012     0.0440     2.3392     1.9200     0.0421     0.0009
    8    0.140   2579.67     0.0516     0.0016    -0.0034     0.0014     0.0506     3.4635     2.2400     0.0484    -0.0774
    9    0.160   2580.66     0.0541     0.0018    -0.0074     0.0016     0.0516     3.3544     2.5600     0.0491    -0.1534
   10    0.180   2581.59     0.0491     0.0021    -0.0093     0.0018     0.0452     4.2007     2.8800     0.0423    -0.2642
   11    0.200   2582.60     0.0436     0.0018    -0.0070     0.0020     0.0402     3.8059     3.2000     0.0370    -0.2737
   12    0.220   2583.57     0.0430     0.0020    -0.0042     0.0022     0.0410     4.5984     3.5200     0.0375    -0.1868
   13    0.240   2584.54     0.0372     0.0015    -0.0020     0.0024     0.0360     4.2065     3.8400     0.0321    -0.1654
   14    0.260   2585.49     0.0375     0.0010    -0.0015     0.0026     0.0369     2.5347     4.1600     0.0328    -0.1252
   15    0.280   2586.41     0.0324     0.0013    -0.0021     0.0028     0.0318     3.9260     4.4800     0.0273    -0.1575
   16    0.300   2587.38     0.0322     0.0009    -0.0014     0.0030     0.0313     2.7287     4.8000     0.0265    -0.1998
   17    0.320   2588.34     0.0274     0.0007    -0.0006     0.0032     0.0266     2.4375     5.1200     0.0215    -0.2352
   18    0.340   2589.34     0.0256     0.0009     0.0004     0.0034     0.0256     3.3460     5.4400     0.0202    -0.1594
   19    0.360   2590.29     0.0303     0.0006     0.0009     0.0036     0.0306     1.9720     5.7600     0.0249    -0.1173
   20    0.380   2591.25     0.0267     0.0008     0.0016     0.0038     0.0274     2.5082     6.0800     0.0213    -0.1051
   21    0.400   2592.24     0.0324     0.0003     0.0021     0.0040     0.0332     0.8689     6.4000     0.0268    -0.0829
   22    0.420   2593.20     0.0282     0.0005     0.0028     0.0042     0.0293     1.7905     6.7200     0.0226    -0.0675
   23    0.440   2594.20     0.0323     0.0004     0.0037     0.0044     0.0337     1.2310     7.0400     0.0267    -0.0348
   24    0.460   2595.17     0.0311     0.0004     0.0046     0.0046     0.0330     1.4913     7.3600     0.0256    -0.0085
   25    0.480   2596.12     0.0337     0.0001     0.0057     0.0048     0.0359     0.2640     7.6800     0.0282     0.0171
   26    0.500   2597.07     0.0387     0.0003     0.0063     0.0050     0.0413     0.8759     8.0000     0.0333     0.0389
   27    0.520   2598.00     0.0374     0.0008     0.0065     0.0052     0.0400     2.0121     8.3200     0.0317     0.0331
   28    0.540   2598.98     0.0381     0.0003     0.0065     0.0054     0.0408     0.7475     8.6400     0.0322     0.0327
   29    0.560   2599.97     0.0397     0.0005     0.0060     0.0056     0.0423     1.2184     8.9600     0.0333     0.0198
   30    0.580   2600.92     0.0414     0.0003     0.0059     0.0058     0.0439     0.7945     9.2800     0.0346     0.0065
   31    0.600   2601.93     0.0440     0.0006     0.0061     0.0060     0.0464     1.4677     9.6000     0.0368    -0.0050
   32    0.620   2602.88     0.0455     0.0003     0.0066     0.0062     0.0482     0.5667     9.9200     0.0383     0.0030
   33    0.640   2603.85     0.0473     0.0003     0.0077     0.0064     0.0504     0.7178    10.2400     0.0402     0.0251
   34    0.660   2604.85     0.0483     0.0007     0.0091     0.0066     0.0519     1.4148    10.5600     0.0414     0.0496
   35    0.680   2605.76     0.0507     0.0001     0.0101     0.0068     0.0547     0.2513    10.8800     0.0439     0.0657
   36    0.700   2606.72     0.0500     0.0006     0.0113     0.0070     0.0546     1.0937    11.2000     0.0434     0.0923
   37    0.720   2607.69     0.0536     0.0007     0.0113     0.0072     0.0584     1.3051    11.5200     0.0468     0.0865
   38    0.740   2608.65     0.0560     0.0008     0.0116     0.0074     0.0609     1.4413    11.8400     0.0490     0.0849
   39    0.760   2609.60     0.0563     0.0008     0.0118     0.0076     0.0612     1.3746    12.1600     0.0490     0.0846
   40    0.780   2610.59     0.0585     0.0011     0.0118     0.0078     0.0635     2.0658    12.4800     0.0510     0.0789
   41    0.800   2611.54     0.0556     0.0007     0.0116     0.0080     0.0604     1.2217    12.8000     0.0476     0.0742
   42    0.820   2612.51     0.0561     0.0011     0.0115     0.0082     0.0610     1.9139    13.1200     0.0479     0.0712
   43    0.840   2613.51     0.0559     0.0012     0.0122     0.0084     0.0610     2.1424    13.4400     0.0475     0.0773
   44    0.860   2614.49     0.0568     0.0008     0.0130     0.0086     0.0621     1.4569    13.7600     0.0484     0.0846
   45    0.880   2615.45     0.0574     0.0010     0.0138     0.0088     0.0631     1.6990    14.0800     0.0490     0.0966
   46    0.900   2616.42     0.0600     0.0011     0.0148     0.0090     0.0661     1.8926    14.4000     0.0517     0.1057
   47    0.920   2617.42     0.0628     0.0013     0.0160     0.0092     0.0693     2.0700    14.7200     0.0546     0.1146
   48    0.940   2618.33     0.0631     0.0017     0.0166     0.0094     0.0698     2.6395    15.0400     0.0548     0.1211
   49    0.960   2619.28     0.0628     0.0014     0.0170     0.0096     0.0699     2.2948    15.3600     0.0545     0.1341
   50    0.980   2620.29     0.0661     0.0018     0.0170     0.0098     0.0734     2.7018    15.6800     0.0577     0.1279
   51    1.000   2621.25     0.0680     0.0015     0.0178     0.0100     0.0752     2.2450    16.0000     0.0592     0.1211
   52    1.020   2622.25     0.0643     0.0017     0.0187     0.0102     0.0720     2.6260    16.3200     0.0557     0.1476
   53    1.040   2623.21     0.0679     0.0019     0.0185     0.0104     0.0757     2.8072    16.6400     0.0591     0.1395
   54    1.060   2624.15     0.0649     0.0016     0.0185     0.0106     0.0725     2.5635    16.9600     0.0556     0.1376
   55    1.080   2625.17     0.0672     0.0022     0.0196     0.0108     0.0752     3.2437    17.2800     0.0580     0.1442
   56    1.100   2626.14     0.0688     0.0017     0.0213     0.0110     0.0775     2.4261    17.6000     0.0599     0.1607
   57    1.120   2627.13     0.0733     0.0019     0.0229     0.0112     0.0827     2.7532    17.9200     0.0648     0.1718
   58    1.140   2628.11     0.0739     0.0020     0.0248     0.0114     0.0841     2.7063    18.2400     0.0659     0.1964
   59    1.160   2629.07     0.0817     0.0020     0.0264     0.0116     0.0925     2.4210    18.5600     0.0740     0.1931
   60    1.180   2630.03     0.0777     0.0016     0.0260     0.0118     0.0888     2.0558    18.8800     0.0699     0.2105
   61    1.200   2630.98     0.0804     0.0016     0.0257     0.0120     0.0911     2.0997    19.2000     0.0719     0.1872
   62    1.220   2631.94     0.0849     0.0019     0.0252     0.0122     0.0956     2.2996    19.5200     0.0761     0.1757
   63    1.240   2632.91     0.0873     0.0017     0.0231     0.0124     0.0974     1.9034    19.8400     0.0775     0.1479
   64    1.260   2633.91     0.0871     0.0017     0.0234     0.0126     0.0970     1.9684    20.1600     0.0769     0.1431
   65    1.280   2634.86     0.0864     0.0019     0.0193     0.0128     0.0952     2.1667    20.4800     0.0747     0.1100
   66    1.300   2635.83     0.0873     0.0018     0.0177     0.0130     0.0948     2.0059    20.8000     0.0740     0.0655
   67    1.320   2636.83     0.0820     0.0017     0.0166     0.0132     0.0888     2.0647    21.1200     0.0677     0.0435
   68    1.340   2637.78     0.0873     0.0017     0.0206     0.0134     0.0956     1.9450    21.4400     0.0741     0.0834
   69    1.360   2638.76     0.0887     0.0019     0.0236     0.0136     0.0983     2.1130    21.7600     0.0766     0.1229
   70    1.380   2639.72     0.0852     0.0019     0.0247     0.0138     0.0953     2.1447    22.0800     0.0732     0.1407
   71    1.400   2640.67     0.0854     0.0020     0.0265     0.0140     0.0963     2.2826    22.4000     0.0739     0.1611
   72    1.420   2641.67     0.0816     0.0016     0.0250     0.0142     0.0921     2.0021    22.7200     0.0694     0.1542
   73    1.440   2642.64     0.0793     0.0019     0.0251     0.0144     0.0899     2.4378    23.0400     0.0668     0.1626
   74    1.460   2643.63     0.0777     0.0014     0.0263     0.0146     0.0886     1.7386    23.3600     0.0652     0.1733
   75    1.480   2644.60     0.0753     0.0020     0.0278     0.0148     0.0868     2.6007    23.6800     0.0632     0.1993
   76    1.500   2645.56     0.0739     0.0014     0.0284     0.0150     0.0857     1.9152    24.0000     0.0617     0.2102
   77    1.520   2646.56     0.0783     0.0024     0.0290     0.0152     0.0904     3.3126    24.3200     0.0661     0.2071
   78    1.540   2647.52     0.0946     0.0019     0.0303     0.0154     0.1071     2.0102    24.6400     0.0824     0.1749
   79    1.560   2648.50     0.1108     0.0024     0.0322     0.0156     0.1242     2.3516    24.9600     0.0993     0.1650
   80    1.580   2649.46     0.1193     0.0020     0.0359     0.0158     0.1335     1.7154    25.2800     0.1082     0.1663
   81    1.600   2650.42     0.1256     0.0019     0.0365     0.0160     0.1408     1.5603    25.6000     0.1152     0.1751
   82    1.620   2651.37     0.1248     0.0019     0.0372     0.0162     0.1403     1.4518    25.9200     0.1144     0.1813
   83    1.640   2652.38     0.1148     0.0020     0.0414     0.0164     0.1315     1.7657    26.2400     0.1052     0.2207
   84    1.660   2653.36     0.1201     0.0021     0.0412     0.0166     0.1370     1.7607    26.5600     0.1105     0.2148
   85    1.680   2654.32     0.1160     0.0027     0.0444     0.0168     0.1342     2.3720    26.8800     0.1074     0.2477
   86    1.700   2655.28     0.1212     0.0027     0.0440     0.0170     0.1397     2.2852    27.2000     0.1125     0.2403
   87    1.720   2656.24     0.1211     0.0026     0.0450     0.0172     0.1399     2.1693    27.5200     0.1124     0.2460
   88    1.740   2657.24     0.1195     0.0026     0.0473     0.0174     0.1391     2.1513    27.8400     0.1112     0.2618
   89    1.760   2658.23     0.1179     0.0025     0.0445     0.0176     0.1371     2.0751    28.1600     0.1089     0.2580
   90    1.780   2659.17     0.1156     0.0025     0.0474     0.0178     0.1349     2.1438    28.4800     0.1064     0.2650
   91    1.800   2660.13     0.1219     0.0026     0.0513     0.0180     0.1430     2.1895    28.8000     0.1142     0.2808
   92    1.820   2661.09     0.1288     0.0024     0.0531     0.0182     0.1510     1.9645    29.1200     0.1219     0.2846
   93    1.840   2662.05     0.1387     0.0023     0.0535     0.0184     0.1613     1.6726    29.4400     0.1318     0.2681
   94    1.860   2663.01     0.1448     0.0030     0.0510     0.0186     0.1664     2.0563    29.7600     0.1367     0.2411
   95    1.880   2663.99     0.1469     0.0026     0.0487     0.0188     0.1675     1.7310    30.0800     0.1374     0.2197
   96    1.900   2664.98     0.1472     0.0028     0.0515     0.0190     0.1680     1.9249    30.4000     0.1376     0.2208
   97    1.920   2665.95     0.1454     0.0024     0.0552     0.0192     0.1680     1.6067    30.7200     0.1373     0.2535
   98    1.940   2666.95     0.1447     0.0030     0.0562     0.0194     0.1674     2.0864    31.0400     0.1364     0.2538
   99    1.960   2667.91     0.1486     0.0031     0.0536     0.0196     0.1718     2.0886    31.3600     0.1405     0.2536
  100    1.980   2668.92     0.1524     0.0034     0.0579     0.0198     0.1765     2.2841    31.6800     0.1449     0.2608
  101    2.000   2669.87     0.1682     0.0037     0.0602     0.0200     0.1932     2.2661    32.0000     0.1612     0.2458
  102    2.020   2670.83     0.1864     0.0038     0.0556     0.0202     0.2102     2.0982    32.3200     0.1779     0.2050
  103    2.040   2671.79     0.1955     0.0043     0.0480     0.0204     0.2160     2.1868    32.6400     0.1834     0.1560
  104    2.060   2672.74     0.1953     0.0044     0.0429     0.0206     0.2135     2.3055    32.9600     0.1806     0.1260
  105    2.080   2673.75     0.1773     0.0043     0.0448     0.0208     0.1957     2.3912    33.2800     0.1624     0.1415
  106    2.100   2674.71     0.1777     0.0044     0.0509     0.0210     0.1986     2.5152    33.6000     0.1650     0.1744
  107    2.120   2675.71     0.1709     0.0045     0.0548     0.0212     0.1931     2.6084    33.9200     0.1592     0.1989
  108    2.140   2676.67     0.1668     0.0045     0.0607     0.0214     0.1918     2.7314    34.2400     0.1575     0.2408
  109    2.160   2682.81     0.1607     0.0042     0.0604     0.0216     0.1863     2.5930    34.5600     0.1517     0.2591
  110    2.180   2697.88     0.1596     0.0044     0.0588     0.0218     0.1846     2.7043    34.8800     0.1497     0.2508
  111    2.200   2712.94     0.1586     0.0043     0.0585     0.0220     0.1828     2.6456    35.2000     0.1476     0.2425
  112    2.220   2716.98     0.1536     0.0046     0.0627     0.0222     0.1797     2.9964    35.5200     0.1442     0.2774
  113    2.240   2717.91     0.1495     0.0041     0.0617     0.0224     0.1757     2.6869    35.8400     0.1399     0.2870
  114    2.260   2718.94     0.1384     0.0041     0.0609     0.0226     0.1632     2.8902    36.1600     0.1271     0.2869
  115    2.280   2719.90     0.1289     0.0038     0.0684     0.0228     0.1564     2.9076    36.4800     0.1199     0.3555
  116    2.300   2720.90     0.1351     0.0032     0.0702     0.0230     0.1635     2.3953    36.8000     0.1267     0.3519
  117    2.320   2721.86     0.1372     0.0034     0.0694     0.0232     0.1666     2.4944    37.1200     0.1295     0.3611
  118    2.340   2722.82     0.1383     0.0035     0.0709     0.0234     0.1677     2.5405    37.4400     0.1303     0.3581
  119    2.360   2723.77     0.1415     0.0035     0.0738     0.0236     0.1722     2.5143    37.7600     0.1344     0.3674
  120    2.380   2724.76     0.1427     0.0040     0.0737     0.0238     0.1738     2.8639    38.0800     0.1357     0.3695
  121    2.400   2725.72     0.1406     0.0040     0.0665     0.0240     0.1697     2.7931    38.4000     0.1313     0.3453
  122    2.420   2726.67     0.1387     0.0035     0.0601     0.0242     0.1653     2.4668    38.7200     0.1266     0.3087
  123    2.440   2727.64     0.1462     0.0040     0.0578     0.0244     0.1700     2.7652    39.0400     0.1309     0.2458
  124    2.460   2728.66     0.1419     0.0039     0.0641     0.0246     0.1679     2.7418    39.3600     0.1286     0.2903
  125    2.480   2729.62     0.1441     0.0038     0.0672     0.0248     0.1720     2.7423    39.6800     0.1323     0.3157
  126    2.500   2730.60     0.1532     0.0040     0.0659     0.0250     0.1814     2.6283    40.0000     0.1414     0.2989
  127    2.520   2731.56     0.1607     0.0043     0.0628     0.0252     0.1871     2.6792    40.3200     0.1468     0.2567
  128    2.540   2732.54     0.1541     0.0043     0.0644     0.0254     0.1811     2.6688    40.6400     0.1405     0.2779
  129    2.560   2733.52     0.1469     0.0049     0.0624     0.0256     0.1734     3.2734    40.9600     0.1324     0.2834
  130    2.580   2734.46     0.1348     0.0049     0.0631     0.0258     0.1611     3.5640    41.2800     0.1198     0.3073
  131    2.600   2735.40     0.1268     0.0045     0.0673     0.0260     0.1545     3.4846    41.6000     0.1129     0.3527
  132    2.620   2736.39     0.1245     0.0043     0.0724     0.0262     0.1543     3.3923    41.9200     0.1123     0.3978
  133    2.640   2737.39     0.1151     0.0040     0.0754     0.0264     0.1467     3.4553    42.2400     0.1044     0.4661
  134    2.660   2738.36     0.1199     0.0040     0.0770     0.0266     0.1519     3.3666    42.5600     0.1093     0.4540
  135    2.680   2739.34     0.1338     0.0040     0.0797     0.0268     0.1670     3.0732    42.8800     0.1241     0.4201
  136    2.700   2740.29     0.1410     0.0041     0.0798     0.0270     0.1748     2.9513    43.2000     0.1316     0.4065
  137    2.720   2741.25     0.1465     0.0043     0.0772     0.0272     0.1797     2.9612    43.5200     0.1362     0.3818
  138    2.740   2742.21     0.1507     0.0038     0.0734     0.0274     0.1815     2.5689    43.8400     0.1377     0.3342
  139    2.760   2743.17     0.1477     0.0041     0.0756     0.0276     0.1793     2.7780    44.1600     0.1352     0.3529
  140    2.780   2744.12     0.1484     0.0048     0.0761     0.0278     0.1805     3.1653    44.4800     0.1360     0.3563
  141    2.800   2745.13     0.1498     0.0046     0.0731     0.0280     0.1805     3.0419    44.8000     0.1357     0.3308
  142    2.820   2746.10     0.1411     0.0044     0.0745     0.0282     0.1730     3.1068    45.1200     0.1279     0.3743
  143    2.840   2747.06     0.1403     0.0047     0.0671     0.0284     0.1691     3.3256    45.4400     0.1236     0.3243
  144    2.860   2748.02     0.1359     0.0045     0.0697     0.0286     0.1645     3.2862    45.7600     0.1187     0.3319
  145    2.880   2748.99     0.1291     0.0045     0.0792     0.0288     0.1612     3.3663    46.0800     0.1151     0.4152
  146    2.900   2749.96     0.1267     0.0041     0.0846     0.0290     0.1614     3.2520    46.4000     0.1150     0.4646
  147    2.920   2750.94     0.1273     0.0048     0.0863     0.0292     0.1633     3.7640    46.7200     0.1166     0.4851
  148    2.940   2751.91     0.1280     0.0044     0.0818     0.0294     0.1629     3.3659    47.0400     0.1158     0.4627
  149    2.960   2752.93     0.1284     0.0037     0.0855     0.0296     0.1636     2.9398    47.3600     0.1162     0.4656
  150    2.980   2753.89     0.1317     0.0041     0.0879     0.0298     0.1683     3.1022    47.6800     0.1206     0.4765
  151    3.000   2754.84     0.1366     0.0041     0.0894     0.0300     0.1739     3.0582    48.0000     0.1259     0.4677
  152    3.020   2755.80     0.1370     0.0041     0.0886     0.0302     0.1744     2.9433    48.3200     0.1261     0.4664
  153    3.040   2756.79     0.1384     0.0044     0.0879     0.0304     0.1755     3.2008    48.6400     0.1268     0.4554
  154    3.060   2757.70     0.1449     0.0043     0.0841     0.0306     0.1816     2.9973    48.9600     0.1326     0.4270
  155    3.080   2758.71     0.1503     0.0044     0.0775     0.0308     0.1838     2.8790    49.2800     0.1345     0.3635
  156    3.100   2759.65     0.1418     0.0043     0.0785     0.0310     0.1741     3.0114    49.6000     0.1245     0.3676
  157    3.120   2760.62     0.1389     0.0043     0.0815     0.0312     0.1728     3.0994    49.9200     0.1229     0.4043
  158    3.140   2761.62     0.1411     0.0043     0.0859     0.0314     0.1764     3.0270    50.2400     0.1261     0.4175
  159    3.160   2762.60     0.1420     0.0038     0.0897     0.0316     0.1795     2.6899    50.5600     0.1290     0.4472
  160    3.180   2763.56     0.1463     0.0050     0.0893     0.0318     0.1840     3.4805    50.8800     0.1331     0.4355
  161    3.200   2764.54     0.1506     0.0055     0.0880     0.0320     0.1873     3.7290    51.2000     0.1361     0.4076
  162    3.220   2765.52     0.1516     0.0049     0.0902     0.0322     0.1892     3.2292    51.5200     0.1377     0.4163
  163    3.240   2766.48     0.1491     0.0054     0.0842     0.0324     0.1855     3.5994    51.8400     0.1337     0.4064
  164    3.260   2767.45     0.1652     0.0053     0.0777     0.0326     0.1948     3.1797    52.1600     0.1426     0.2662
  165    3.280   2768.42     0.1461     0.0055     0.0860     0.0328     0.1807     3.6747    52.4800     0.1282     0.3871
  166    3.300   2769.34     0.1509     0.0057     0.0926     0.0330     0.1895     3.8398    52.8000     0.1367     0.4302
  167    3.320   2770.36     0.1589     0.0055     0.0873     0.0332     0.1966     3.4685    53.1200     0.1434     0.3933
  168    3.340   2771.32     0.1613     0.0053     0.0861     0.0334     0.1974     3.2864    53.4400     0.1440     0.3659
  169    3.360   2772.31     0.1505     0.0054     0.0849     0.0336     0.1860     3.5826    53.7600     0.1323     0.3850
  170    3.380   2773.30     0.1501     0.0055     0.0887     0.0338     0.1867     3.6193    54.0800     0.1326     0.4032
  171    3.400   2774.25     0.1392     0.0055     0.0887     0.0340     0.1766     3.9592    54.4000     0.1222     0.4505
  172    3.420   2775.24     0.1381     0.0050     0.0929     0.0342     0.1767     3.6219    54.7200     0.1220     0.4742
  173    3.440   2776.23     0.1372     0.0053     0.0943     0.0344     0.1767     3.9020    55.0400     0.1217     0.4900
  174    3.460   2777.20     0.1433     0.0048     0.0958     0.0346     0.1825     3.3848    55.3600     0.1271     0.4622
  175    3.480   2778.16     0.1498     0.0050     0.0995     0.0348     0.1914     3.4109    55.6800     0.1357     0.4735
  176    3.500   2779.12     0.1510     0.0046     0.0994     0.0350     0.1930     2.9896    56.0000     0.1370     0.4734
  177    3.520   2780.08     0.1474     0.0056     0.0898     0.0352     0.1865     3.7645    56.3200     0.1302     0.4449
  178    3.540   2781.03     0.1487     0.0049     0.0912     0.0354     0.1866     3.2668    56.6400     0.1300     0.4226
  179    3.560   2782.06     0.1487     0.0052     0.0938     0.0356     0.1881     3.5152    56.9600     0.1311     0.4437
  180    3.580   2783.03     0.1562     0.0048     0.0932     0.0358     0.1952     3.0304    57.2800     0.1379     0.4139
  181    3.600   2784.02     0.1634     0.0044     0.0914     0.0360     0.2015     2.7799    57.6000     0.1439     0.3810
  182    3.620   2784.98     0.1588     0.0042     0.0922     0.0362     0.1968     2.5394    57.9200     0.1389     0.3911
  183    3.640   2785.94     0.1631     0.0047     0.0954     0.0364     0.2025     2.9496    58.2400     0.1442     0.3979
  184    3.660   2786.92     0.1575     0.0053     0.0963     0.0366     0.1983     3.3370    58.5600     0.1397     0.4324
  185    3.680   2787.86     0.1636     0.0046     0.0921     0.0368     0.2028     2.8349    58.8800     0.1440     0.3941
  186    3.700   2788.85     0.1641     0.0053     0.0868     0.0370     0.2016     3.2011    59.2000     0.1424     0.3679
  187    3.720   2789.79     0.1683     0.0052     0.0862     0.0372     0.2041     3.1172    59.5200     0.1446     0.3324
  188    3.740   2790.75     0.1686     0.0056     0.0831     0.0374     0.2044     3.3035    59.8400     0.1445     0.3308
  189    3.760   2791.75     0.1572     0.0057     0.0871     0.0376     0.1930     3.5801    60.1600     0.1328     0.3587
  190    3.780   2792.71     0.1586     0.0052     0.0889     0.0378     0.1962     3.3156    60.4800     0.1357     0.3817
  191    3.800   2793.73     0.1503     0.0055     0.0919     0.0380     0.1886     3.5558    60.8000     0.1278     0.4158
  192    3.820   2794.67     0.1514     0.0052     0.0937     0.0382     0.1901     3.4130    61.1200     0.1290     0.4183
  193    3.840   2795.63     0.1576     0.0049     0.0953     0.0384     0.1980     3.1280    61.4400     0.1365     0.4224
  194    3.860   2796.59     0.1561     0.0053     0.0922     0.0386     0.1949     3.3638    61.7600     0.1331     0.4043
  195    3.880   2797.55     0.1664     0.0054     0.0885     0.0388     0.2046     3.3862    62.0800     0.1425     0.3658
  196    3.900   2798.53     0.1680     0.0058     0.0847     0.0390     0.2043     3.4830    62.4000     0.1419     0.3341
  197    3.920   2799.50     0.1777     0.0061     0.0831     0.0392     0.2125     3.4298    62.7200     0.1498     0.2919
  198    3.940   2800.44     0.1688     0.0062     0.0850     0.0394     0.2047     3.6555    63.0400     0.1416     0.3252
  199    3.960   2801.45     0.1576     0.0058     0.0760     0.0396     0.1908     3.6284    63.3600     0.1275     0.3093
  200    3.980   2802.42     0.1466     0.0062     0.0711     0.0398     0.1765     4.0962    63.6800     0.1128     0.2795
  201    4.000   2803.40     0.1385     0.0061     0.0754     0.0400     0.1688     4.2575    64.0000     0.1048     0.3057
  202    4.020   2804.35     0.1264     0.0058     0.0808     0.0402     0.1592     4.3242    64.3200     0.0949     0.3997
  203    4.040   2805.36     0.1228     0.0054     0.0823     0.0404     0.1573     4.2803    64.6400     0.0927     0.4515
  204    4.060   2806.30     0.1156     0.0052     0.0858     0.0406     0.1512     4.5480    64.9600     0.0863     0.5137
  205    4.080   2807.66     0.1106     0.0053     0.0929     0.0408     0.1490     4.7893    65.2800     0.0837     0.6031
  206    4.100   2820.36     0.1114     0.0054     0.0958     0.0410     0.1513     5.5235    65.6000     0.0857     0.6277
  207    4.120   2833.08     0.1126     0.0051     0.0986     0.0412     0.1537     5.1917    65.9200     0.0878     0.6445
  208    4.140   2836.97     0.1244     0.0053     0.0999     0.0414     0.1662     4.3149    66.2400     0.1000     0.5813
  209    4.160   2837.93     0.1293     0.0052     0.0970     0.0416     0.1707     4.0640    66.5600     0.1041     0.5462
  210    4.180   2838.90     0.1344     0.0049     0.0958     0.0418     0.1748     3.6782    66.8800     0.1080     0.5060
  211    4.200   2839.87     0.1381     0.0052     0.0953     0.0420     0.1780     3.7980    67.2000     0.1108     0.4775
  212    4.220   2840.86     0.1379     0.0050     0.0945     0.0422     0.1779     3.6272    67.5200     0.1104     0.4804
  213    4.240   2841.83     0.1374     0.0048     0.0966     0.0424     0.1770     3.4814    67.8400     0.1092     0.4767
  214    4.260   2842.77     0.1340     0.0048     0.1001     0.0426     0.1762     3.5728    68.1600     0.1080     0.5345
  215    4.280   2843.77     0.1323     0.0049     0.0959     0.0428     0.1727     3.7265    68.4800     0.1042     0.5127
  216    4.300   2844.73     0.1289     0.0049     0.0990     0.0430     0.1697     3.6805    68.8000     0.1009     0.5379
  217    4.320   2845.69     0.1371     0.0053     0.1007     0.0432     0.1790     4.0239    69.1200     0.1099     0.5168
  218    4.340   2846.66     0.1401     0.0046     0.0992     0.0434     0.1828     3.2269    69.4400     0.1133     0.5145
  219    4.360   2847.62     0.1400     0.0047     0.0955     0.0436     0.1803     3.3654    69.7600     0.1106     0.4742
  220    4.380   2848.58     0.1372     0.0045     0.0987     0.0438     0.1779     3.3017    70.0800     0.1078     0.4918
  221    4.400   2849.61     0.1359     0.0048     0.0997     0.0440     0.1776     3.5842    70.4000     0.1072     0.5161
  222    4.420   2850.57     0.1345     0.0047     0.1056     0.0442     0.1780     3.4244    70.7200     0.1073     0.5539
  223    4.440   2851.53     0.1389     0.0049     0.1065     0.0444     0.1837     3.5831    71.0400     0.1127     0.5541
  224    4.460   2852.53     0.1510     0.0045     0.1009     0.0446     0.1949     2.9906    71.3600     0.1235     0.4836
  225    4.480   2853.50     0.1519     0.0056     0.0974     0.0448     0.1927     3.6543    71.6800     0.1210     0.4309
  226    4.500   2854.48     0.1460     0.0055     0.0960     0.0450     0.1867     3.7326    72.0000     0.1147     0.4537
  227    4.520   2855.43     0.1414     0.0056     0.0934     0.0452     0.1819     3.9725    72.3200     0.1096     0.4667
  228    4.540   2856.40     0.1390     0.0047     0.0883     0.0454     0.1779     3.3459    72.6400     0.1053     0.4489
  229    4.560   2857.41     0.1347     0.0053     0.0872     0.0456     0.1709     3.8946    72.9600     0.0979     0.4145
  230    4.580   2858.37     0.1207     0.0053     0.0993     0.0458     0.1613     4.2043    73.2800     0.0881     0.5807
  231    4.600   2859.36     0.1163     0.0048     0.1030     0.0460     0.1590     4.1706    73.6000     0.0854     0.6509
  232    4.620   2860.30     0.1118     0.0045     0.1019     0.0462     0.1551     3.8926    73.9200     0.0811     0.7014
  233    4.640   2861.29     0.1130     0.0047     0.1012     0.0464     0.1556     4.1312    74.2400     0.0814     0.6771
  234    4.660   2862.26     0.1133     0.0048     0.1032     0.0466     0.1559     4.1708    74.5600     0.0813     0.6744
  235    4.680   2863.20     0.1110     0.0048     0.1073     0.0468     0.1560     4.2964    74.8800     0.0811     0.7442
  236    4.700   2864.19     0.1176     0.0042     0.1104     0.0470     0.1636     3.5848    75.2000     0.0884     0.7075
  237    4.720   2865.19     0.1233     0.0046     0.1096     0.0472     0.1691     3.7421    75.5200     0.0936     0.6614
  238    4.740   2866.16     0.1295     0.0047     0.1126     0.0474     0.1758     3.5838    75.8400     0.0999     0.6286
  239    4.760   2867.11     0.1337     0.0049     0.1187     0.0476     0.1831     3.6388    76.1600     0.1069     0.6533
  240    4.780   2868.07     0.1401     0.0050     0.1157     0.0478     0.1899     3.6300    76.4800     0.1134     0.6243
  241    4.800   2869.05     0.1481     0.0045     0.1077     0.0480     0.1941     3.1043    76.8000     0.1173     0.5244
  242    4.820   2870.00     0.1505     0.0050     0.1116     0.0482     0.1966     3.2525    77.1200     0.1195     0.5146
  243    4.840   2870.98     0.1429     0.0055     0.1131     0.0484     0.1897     3.7930    77.4400     0.1122     0.5601
  244    4.860   2871.94     0.1390     0.0051     0.1148     0.0486     0.1864     3.6460    77.7600     0.1087     0.5933
  245    4.880   2872.91     0.1421     0.0048     0.1151     0.0488     0.1906     3.4568    78.0800     0.1125     0.5929
  246    4.900   2873.90     0.1488     0.0048     0.1105     0.0490     0.1966     3.3224    78.4000     0.1182     0.5483
  247    4.920   2874.86     0.1501     0.0047     0.1064     0.0492     0.1947     3.1037    78.7200     0.1160     0.4916
  248    4.940   2875.80     0.1452     0.0046     0.1134     0.0494     0.1922     3.1476    79.0400     0.1132     0.5535
  249    4.960   2876.76     0.1434     0.0044     0.1121     0.0496     0.1907     3.0205    79.3600     0.1113     0.5666
  250    4.980   2877.72     0.1428     0.0045     0.1059     0.0498     0.1883     3.1681    79.6800     0.1086     0.5375
  251    5.000   2878.67     0.1420     0.0047     0.0995     0.0500     0.1845     3.2906    80.0000     0.1045     0.4890
  252    5.020   2879.63     0.1406     0.0048     0.0981     0.0502     0.1816     3.3438    80.3200     0.1013     0.4693
  253    5.040   2880.58     0.1375     0.0043     0.0989     0.0504     0.1793     3.1257    80.6400     0.0986     0.4968
  254    5.060   2881.59     0.1360     0.0046     0.0962     0.0506     0.1767     3.4123    80.9600     0.0957     0.4834
  255    5.080   2882.57     0.1343     0.0044     0.0964     0.0508     0.1746     3.2838    81.2800     0.0933     0.4837
  256    5.100   2883.53     0.1317     0.0049     0.0983     0.0510     0.1728     3.6833    81.6000     0.0912     0.5122
  257    5.120   2884.48     0.1321     0.0046     0.1034     0.0512     0.1749     3.4371    81.9200     0.0929     0.5449
  258    5.140   2885.44     0.1287     0.0043     0.1042     0.0514     0.1721     3.2981    82.2400     0.0899     0.5776
  259    5.160   2886.40     0.1333     0.0049     0.1053     0.0516     0.1770     3.7561    82.5600     0.0944     0.5559
  260    5.180   2887.36     0.1356     0.0048     0.1073     0.0518     0.1806     3.5443    82.8800     0.0977     0.5660
  261    5.200   2888.33     0.1410     0.0047     0.1052     0.0520     0.1853     3.3971    83.2000     0.1021     0.5250
  262    5.220   2889.31     0.1449     0.0047     0.1005     0.0522     0.1881     3.2520    83.5200     0.1046     0.4844
  263    5.240   2890.25     0.1506     0.0044     0.0926     0.0524     0.1903     2.9736    83.8400     0.1065     0.3962
  264    5.260   2891.21     0.1413     0.0048     0.0978     0.0526     0.1811     3.2913    84.1600     0.0969     0.4343
  265    5.280   2892.16     0.1408     0.0040     0.1010     0.0528     0.1831     2.8791    84.4800     0.0986     0.4873
  266    5.300   2893.15     0.1378     0.0041     0.0986     0.0530     0.1796     3.0348    84.8000     0.0948     0.4909
  267    5.320   2894.11     0.1363     0.0045     0.0998     0.0532     0.1776     3.2694    85.1200     0.0925     0.4896
  268    5.340   2895.08     0.1333     0.0044     0.1034     0.0534     0.1763     3.3498    85.4400     0.0909     0.5395
  269    5.360   2896.04     0.1327     0.0046     0.1038     0.0536     0.1765     3.4445    85.7600     0.0908     0.5596
  270    5.380   2897.03     0.1242     0.0046     0.0998     0.0538     0.1668     3.5403    86.0800     0.0807     0.5901
  271    5.400   2898.00     0.1150     0.0045     0.0979     0.0540     0.1566     3.7975    86.4000     0.0702     0.6406
  272    5.420   2898.99     0.1176     0.0044     0.1054     0.0542     0.1602     3.8265    86.7200     0.0735     0.6442
  273    5.440   2899.91     0.1139     0.0048     0.1073     0.0544     0.1588     4.2069    87.0400     0.0718     0.7330
  274    5.460   2900.79     0.1165     0.0043     0.1100     0.0546     0.1624     3.6594    87.3600     0.0751     0.7292
  275    5.480   2901.70     0.1203     0.0047     0.1133     0.0548     0.1671     3.9054    87.6800     0.0794     0.7134
  276    5.500   2902.70     0.1248     0.0051     0.1151     0.0550     0.1731     4.1544    88.0000     0.0851     0.7062
  277    5.520   2903.66     0.1375     0.0049     0.1163     0.0552     0.1863     3.6817    88.3200     0.0980     0.6222
  278    5.540   2904.66     0.1550     0.0052     0.1152     0.0554     0.2034     3.3988    88.6400     0.1148     0.5226
  279    5.560   2905.63     0.1725     0.0053     0.1124     0.0556     0.2212     3.0997    88.9600     0.1322     0.4555
  280    5.580   2906.64     0.1726     0.0048     0.1095     0.0558     0.2180     2.7240    89.2800     0.1287     0.4058
  281    5.600   2907.61     0.1583     0.0053     0.1137     0.0560     0.2053     3.2109    89.6000     0.1157     0.4839
  282    5.620   2908.56     0.1581     0.0057     0.1208     0.0562     0.2080     3.6580    89.9200     0.1181     0.5307
  283    5.640   2909.57     0.1607     0.0055     0.1255     0.0564     0.2127     3.3721    90.2400     0.1225     0.5520
  284    5.660   2910.54     0.1549     0.0058     0.1269     0.0566     0.2082     3.7215    90.5600     0.1176     0.5968
  285    5.680   2911.56     0.1561     0.0058     0.1258     0.0568     0.2094     3.8382    90.8800     0.1185     0.5912
  286    5.700   2912.41     0.1571     0.0059     0.1268     0.0570     0.2103     3.7255    91.2000     0.1191     0.5853
  287    5.720   2913.19     0.1558     0.0059     0.1318     0.0572     0.2104     3.7911    91.5200     0.1189     0.6124
  288    5.740   2914.00     0.1533     0.0054     0.1372     0.0574     0.2101     3.5387    91.8400     0.1182     0.6580
  289    5.760   2914.93     0.1493     0.0057     0.1391     0.0576     0.2077     3.7756    92.1600     0.1155     0.7047
  290    5.780   2915.91     0.1463     0.0057     0.1405     0.0578     0.2052     3.8604    92.4800     0.1127     0.7312
  291    5.800   2916.89     0.1441     0.0055     0.1385     0.0580     0.2025     3.7715    92.8000     0.1097     0.7400
  292    5.820   2917.85     0.1430     0.0055     0.1399     0.0582     0.2021     3.8586    93.1200     0.1090     0.7569
  293    5.840   2918.81     0.1446     0.0053     0.1408     0.0584     0.2031     3.6849    93.4400     0.1097     0.7385
  294    5.860   2919.81     0.1451     0.0053     0.1475     0.0586     0.2057     3.6614    93.7600     0.1120     0.7661
  295    5.880   2920.81     0.1485     0.0050     0.1496     0.0588     0.2116     3.3929    94.0800     0.1175     0.7780
  296    5.900   2921.81     0.1568     0.0052     0.1466     0.0590     0.2183     3.4334    94.4000     0.1239     0.7064
  297    5.920   2922.72     0.1579     0.0055     0.1484     0.0592     0.2201     3.4001    94.7200     0.1254     0.7100
  298    5.940   2923.72     0.1642     0.0054     0.1476     0.0594     0.2257     3.3138    95.0400     0.1307     0.6661
  299    5.960   2924.68     0.1637     0.0062     0.1475     0.0596     0.2262     3.8060    95.3600     0.1308     0.6828
  300    5.980   2925.67     0.1718     0.0058     0.1422     0.0598     0.2320     3.4379    95.6800     0.1363     0.6126
  301    6.000   2926.68     0.1749     0.0055     0.1418     0.0600     0.2346     3.2078    96.0000     0.1386     0.5940
  302    6.020   2927.73     0.1740     0.0054     0.1410     0.0602     0.2332     3.1295    96.3200     0.1369     0.5900
  303    6.040   2945.93     0.1779     0.0051     0.1411     0.0604     0.2372     2.9038    96.6400     0.1405     0.5744
  304    6.060   2961.00     0.1773     0.0061     0.1450     0.0606     0.2373     3.3527    96.9600     0.1404     0.5876
  305    6.080   2961.97     0.1779     0.0057     0.1421     0.0608     0.2378     3.1584    97.2800     0.1406     0.5826
  306    6.100   2962.97     0.1720     0.0053     0.1448     0.0610     0.2329     3.0774    97.6000     0.1353     0.6213
  307    6.120   2963.95     0.1661     0.0054     0.1415     0.0612     0.2261     3.2629    97.9200     0.1282     0.6371
  308    6.140   2964.93     0.1667     0.0052     0.1480     0.0614     0.2278     3.1409    98.2400     0.1296     0.6499
  309    6.160   2965.90     0.1608     0.0053     0.1497     0.0616     0.2237     3.2424    98.5600     0.1252     0.7057
  310    6.180   2966.85     0.1647     0.0052     0.1489     0.0618     0.2276     3.2374    98.8800     0.1287     0.6837
  311    6.200   2967.81     0.1659     0.0056     0.1452     0.0620     0.2276     3.3331    99.2000     0.1284     0.6599
  312    6.220   2968.79     0.1699     0.0056     0.1420     0.0622     0.2286     3.3125    99.5200     0.1291     0.6010
  313    6.240   2969.78     0.1623     0.0057     0.1472     0.0624     0.2235     3.5231    99.8400     0.1237     0.6744
  314    6.260   2970.72     0.1620     0.0058     0.1476     0.0626     0.2238     3.5217   100.1600     0.1236     0.6831
  315    6.280   2971.69     0.1601     0.0057     0.1498     0.0628     0.2226     3.5641   100.4800     0.1221     0.7048
  316    6.300   2972.65     0.1560     0.0056     0.1538     0.0630     0.2198     3.6224   100.8000     0.1190     0.7471
  317    6.320   2973.60     0.1547     0.0055     0.1570     0.0632     0.2206     3.5904   101.1200     0.1194     0.7839
  318    6.340   2974.59     0.1593     0.0052     0.1537     0.0634     0.2245     3.3624   101.4400     0.1230     0.7469
  319    6.360   2975.57     0.1593     0.0052     0.1527     0.0636     0.2233     3.2956   101.7600     0.1216     0.7308
  320    6.380   2976.55     0.1586     0.0053     0.1540     0.0638     0.2232     3.3896   102.0800     0.1211     0.7438
  321    6.400   2977.50     0.1624     0.0052     0.1538     0.0640     0.2269     3.2268   102.4000     0.1245     0.7192
  322    6.420   2978.47     0.1696     0.0053     0.1513     0.0642     0.2338     3.1574   102.7200     0.1310     0.6749
  323    6.440   2979.43     0.1648     0.0055     0.1526     0.0644     0.2282     3.3464   103.0400     0.1251     0.6917
  324    6.460   2980.43     0.1686     0.0054     0.1554     0.0646     0.2338     3.2252   103.3600     0.1304     0.6939
  325    6.480   2981.40     0.1714     0.0056     0.1553     0.0648     0.2363     3.2469   103.6800     0.1326     0.6774
  326    6.500   2982.36     0.1709     0.0054     0.1592     0.0650     0.2369     3.1899   104.0000     0.1329     0.6923
  327    6.520   2983.32     0.1720     0.0058     0.1627     0.0652     0.2400     3.3651   104.3200     0.1357     0.7121
  328    6.540   2984.31     0.1773     0.0064     0.1626     0.0654     0.2453     3.5839   104.6400     0.1407     0.6860
  329    6.560   2985.30     0.1813     0.0069     0.1629     0.0656     0.2497     3.8027   104.9600     0.1447     0.6714
  330    6.580   2986.29     0.1849     0.0068     0.1606     0.0658     0.2531     3.7073   105.2800     0.1478     0.6534
  331    6.600   2987.20     0.1833     0.0072     0.1591     0.0660     0.2504     3.9067   105.6000     0.1448     0.6471
  332    6.620   2998.15     0.1852     0.0071     0.1573     0.0662     0.2515     3.8895   105.9200     0.1456     0.6309
  333    6.640   3020.53     0.1904     0.0067     0.1555     0.0664     0.2560     3.6723   106.2400     0.1498     0.6010
  334    6.660   3042.91     0.1957     0.0067     0.1537     0.0666     0.2605     3.6418   106.5600     0.1540     0.5711
  335    6.680   3057.04     0.1986     0.0064     0.1622     0.0668     0.2649     3.3493   106.8800     0.1580     0.5765
  336    6.700   3057.68     0.2003     0.0065     0.1688     0.0670     0.2709     3.2322   107.2000     0.1637     0.6171
  337    6.720   3058.31     0.1987     0.0063     0.1693     0.0672     0.2690     3.1576   107.5200     0.1615     0.6212
  338    6.740   3058.98     0.1999     0.0059     0.1708     0.0674     0.2717     2.9805   107.8400     0.1639     0.6320
  339    6.760   3059.65     0.2024     0.0061     0.1720     0.0676     0.2741     3.0254   108.1600     0.1659     0.6205
  340    6.780   3060.29     0.2007     0.0060     0.1765     0.0678     0.2749     3.0000   108.4800     0.1664     0.6542
  341    6.800   3060.95     0.2049     0.0065     0.1774     0.0680     0.2791     3.1794   108.8000     0.1703     0.6387
  342    6.820   3061.57     0.2076     0.0060     0.1751     0.0682     0.2817     2.9254   109.1200     0.1726     0.6269
  343    6.840   3062.20     0.2124     0.0060     0.1703     0.0684     0.2847     2.8832   109.4400     0.1753     0.5917
  344    6.860   3062.83     0.2101     0.0059     0.1664     0.0686     0.2801     2.8409   109.7600     0.1703     0.5761
  345    6.880   3063.44     0.2033     0.0062     0.1658     0.0688     0.2730     3.0407   110.0800     0.1630     0.5963
  346    6.900   3064.11     0.1951     0.0061     0.1736     0.0690     0.2670     2.9769   110.4000     0.1566     0.6528
  347    6.920   3064.81     0.1912     0.0063     0.1738     0.0692     0.2646     3.2800   110.7200     0.1539     0.6862
  348    6.940   3078.80     0.1895     0.0057     0.1708     0.0694     0.2617     2.9819   111.0400     0.1506     0.6797
  349    6.960   3092.85     0.1878     0.0057     0.1679     0.0696     0.2588     2.9880   111.3600     0.1474     0.6732
  350    6.980   3106.76     0.1862     0.0054     0.1678     0.0698     0.2559     2.8872   111.6800     0.1442     0.6669
  351    7.000   3107.75     0.1902     0.0058     0.1714     0.0700     0.2614     3.0857   112.0000     0.1494     0.6667
  352    7.020   3108.73     0.1852     0.0056     0.1755     0.0702     0.2582     3.0223   112.3200     0.1459     0.7102
  353    7.040   3109.67     0.1976     0.0055     0.1786     0.0704     0.2723     2.8575   112.6400     0.1596     0.6730
  354    7.060   3110.66     0.1952     0.0059     0.1781     0.0706     0.2699     3.0081   112.9600     0.1569     0.6839
  355    7.080   3111.66     0.2011     0.0053     0.1803     0.0708     0.2767     2.6697   113.2800     0.1634     0.6684
  356    7.100   3112.62     0.2024     0.0054     0.1809     0.0710     0.2783     2.6860   113.6000     0.1647     0.6659
  357    7.120   3113.63     0.2149     0.0055     0.1809     0.0712     0.2909     2.6160   113.9200     0.1769     0.6208
  358    7.140   3114.62     0.2225     0.0058     0.1791     0.0714     0.2984     2.6381   114.2400     0.1841     0.5930
  359    7.160   3115.59     0.2238     0.0054     0.1775     0.0716     0.2984     2.3859   114.5600     0.1839     0.5769
  360    7.180   3116.57     0.2250     0.0055     0.1678     0.0718     0.2968     2.4517   114.8800     0.1819     0.5439
  361    7.200   3117.55     0.2169     0.0046     0.1713     0.0720     0.2883     2.0934   115.2000     0.1731     0.5670
  362    7.220   3118.57     0.2155     0.0047     0.1672     0.0722     0.2866     2.1622   115.5200     0.1711     0.5668
  363    7.240   3119.52     0.2258     0.0048     0.1691     0.0724     0.2958     2.1086   115.8400     0.1800     0.5247
  364    7.260   3120.49     0.2416     0.0039     0.1712     0.0726     0.3138     1.6515   116.1600     0.1976     0.5037
  365    7.280   3121.51     0.2635     0.0049     0.1622     0.0728     0.3329     1.8992   116.4800     0.2164     0.4278
  366    7.300   3122.46     0.2844     0.0059     0.1464     0.0730     0.3489     2.1217   116.8000     0.2321     0.3475
  367    7.320   3123.45     0.3016     0.0068     0.1352     0.0732     0.3590     2.2693   117.1200     0.2419     0.2625
  368    7.340   3124.43     0.3050     0.0071     0.1213     0.0734     0.3576     2.3457   117.4400     0.2402     0.2165
  369    7.360   3125.36     0.3144     0.0085     0.1238     0.0736     0.3651     2.7187   117.7600     0.2474     0.1909
  370    7.380   3126.34     0.3178     0.0086     0.1221     0.0738     0.3694     2.6861   118.0800     0.2514     0.1953
  371    7.400   3127.30     0.3250     0.0093     0.1299     0.0740     0.3763     2.8956   118.4000     0.2579     0.1871
  372    7.420   3128.31     0.3800     0.0095     0.1341     0.0742     0.4367     2.5743   118.7200     0.3180     0.1913
  373    7.440   3129.36     0.4350     0.0106     0.1335     0.0744     0.4914     2.4638   119.0400     0.3724     0.1609
  374    7.460   3130.35     0.4737     0.0112     0.1291     0.0746     0.5296     2.4070   119.3600     0.4103     0.1430
  375    7.480   3131.31     0.5260     0.0109     0.1208     0.0748     0.5768     2.1421   119.6800     0.4572     0.1012
  376    7.500   3132.30     0.5881     0.0104     0.1229     0.0750     0.6399     1.8251   120.0000     0.5199     0.0930
  377    7.520   3133.28     0.7065     0.0118     0.1114     0.0752     0.7556     1.7479   120.3200     0.6353     0.0657
  378    7.540   3134.29     0.7255     0.0131     0.0978     0.0754     0.7688     1.8066   120.6400     0.6482     0.0428
  379    7.560   3135.21     0.7475     0.0170     0.0843     0.0756     0.7855     2.3144   120.9600     0.6645     0.0223
  380    7.580   3136.19     0.8850     0.0207     0.0665     0.0758     0.9137     2.4052   121.2800     0.7924    -0.0092
  381    7.600   3137.20     1.2249     0.0200     0.0845     0.0760     1.2580     1.7561   121.6000     1.1364     0.0022
  382    7.620   3138.17     1.5308     0.0222     0.0708     0.0762     1.5667     1.4767   121.9200     1.4447     0.0064
  383    7.640   3139.18     1.5678     0.0259     0.0164     0.0764     1.5832     1.6402   122.2400     1.4609    -0.0273
  384    7.660   3140.16     1.4758     0.0271     0.0141     0.0766     1.4758     1.8211   122.5600     1.3532    -0.0566
  385    7.680   3141.17     1.4583     0.0290     0.0894     0.0768     1.4864     1.9854   122.8800     1.3635    -0.0073
  386    7.700   3142.12     1.5085     0.0303     0.1222     0.0770     1.5561     2.0376   123.2000     1.4329     0.0252
  387    7.720   3143.13     1.5909     0.0357     0.1671     0.0772     1.6534     2.2627   123.5200     1.5299     0.0468
  388    7.740   3144.08     1.7193     0.0378     0.2159     0.0774     1.8044     2.2434   123.8400     1.6806     0.0743
  389    7.760   3145.06     1.9020     0.0302     0.2411     0.0776     1.9993     1.6094   124.1600     1.8751     0.0821
  390    7.780   3146.07     1.9496     0.0378     0.2589     0.0778     2.0574     1.9372   124.4800     1.9329     0.0925
  391    7.800   3147.03     1.9283     0.0447     0.2761     0.0780     2.0373     2.3087   124.8000     1.9125     0.0950
  392    7.820   3148.03     1.9665     0.0513     0.3435     0.0782     2.1030     2.6314   125.1200     1.9778     0.1246
  393    7.840   3149.01     2.0940     0.0539     0.3233     0.0784     2.2361     2.6041   125.4400     2.1107     0.1234
  394    7.860   3150.00     2.2544     0.0525     0.2838     0.0786     2.3805     2.3462   125.7600     2.2547     0.0983
  395    7.880   3150.99     2.2673     0.0501     0.3387     0.0788     2.3991     2.1887   126.0800     2.2731     0.1035
  396    7.900   3152.01     2.2177     0.0500     0.3798     0.0790     2.3711     2.2398   126.4000     2.2447     0.1275
  397    7.920   3153.01     2.0760     0.0518     0.4249     0.0792     2.2456     2.4645   126.7200     2.1189     0.1533
  398    7.940   3153.99     1.9918     0.0481     0.4455     0.0794     2.1808     2.4062   127.0400     2.0537     0.1804
  399    7.960   3154.98     1.9292     0.0449     0.4223     0.0796     2.1092     2.3318   127.3600     1.9819     0.1762
  400    7.980   3155.95     1.8074     0.0416     0.3982     0.0798     1.9776     2.2574   127.6800     1.8499     0.1760
  401    8.000   3156.92     1.7527     0.0424     0.4213     0.0800     1.9260     2.3857   128.0000     1.7980     0.1850
  402    8.020   3157.94     1.7380     0.0426     0.4407     0.0802     1.9210     2.4561   128.3200     1.7927     0.1983
  403    8.040   3159.83     1.7659     0.0442     0.4264     0.0804     1.9506     2.5274   128.6400     1.8220     0.1980
  404    8.060   3170.94     1.9521     0.0458     0.3878     0.0806     2.1205     2.6197   128.9600     1.9916     0.1660
  405    8.080   3182.06     2.1382     0.0414     0.3492     0.0808     2.2905     2.3671   129.2800     2.1612     0.1340
  406    8.100   3190.05     2.2267     0.0381     0.3338     0.0810     2.3682     1.6880   129.6000     2.2386     0.1143
  407    8.120   3191.06     2.0812     0.0365     0.2943     0.0812     2.2094     1.7193   129.9200     2.0795     0.1077
  408    8.140   3192.04     1.8815     0.0355     0.2958     0.0814     2.0074     1.8212   130.2400     1.8772     0.1165
  409    8.160   3193.06     1.6421     0.0350     0.2854     0.0816     1.7614     2.0715   130.5600     1.6308     0.1243
  410    8.180   3194.03     1.5309     0.0316     0.2732     0.0818     1.6482     2.0404   130.8800     1.5173     0.1301
  411    8.200   3194.98     1.5120     0.0299     0.2496     0.0820     1.6173     1.9755   131.2000     1.4861     0.1135
  412    8.220   3195.97     1.5100     0.0279     0.3017     0.0822     1.6273     1.8361   131.5200     1.4958     0.1318
  413    8.240   3196.92     1.4710     0.0287     0.3681     0.0824     1.6188     1.9535   131.8400     1.4869     0.1811
  414    8.260   3197.92     1.5898     0.0300     0.3629     0.0826     1.7447     1.9072   132.1600     1.6126     0.1776
  415    8.280   3198.91     1.6390     0.0317     0.3885     0.0828     1.7963     1.9402   132.4800     1.6638     0.1754
  416    8.300   3199.91     1.7380     0.0333     0.4334     0.0830     1.9124     1.9367   132.8000     1.7796     0.1866
  417    8.320   3200.90     1.8588     0.0352     0.4736     0.0832     2.0539     1.9373   133.1200     1.9208     0.1985
  418    8.340   3201.87     1.9919     0.0373     0.4971     0.0834     2.1959     1.8754   133.4400     2.0624     0.1951
  419    8.360   3202.90     1.9912     0.0374     0.4869     0.0836     2.1967     1.8806   133.7600     2.0629     0.1966
  420    8.380   3203.85     1.9561     0.0367     0.5052     0.0838     2.1654     1.8614   134.0800     2.0313     0.2040
  421    8.400   3204.84     1.8676     0.0337     0.5065     0.0840     2.0862     1.7954   134.4000     1.9518     0.2236
  422    8.420   3205.79     1.9449     0.0310     0.4732     0.0842     2.1481     1.6056   134.7200     2.0134     0.1985
  423    8.440   3206.78     1.9258     0.0309     0.4532     0.0844     2.1189     1.6050   135.0400     1.9839     0.1892
  424    8.460   3207.81     1.9344     0.0276     0.3990     0.0846     2.1181     1.4256   135.3600     1.9827     0.1779
  425    8.480   3208.75     1.8933     0.0259     0.3108     0.0848     2.0302     1.3609   135.6800     1.8945     0.1273
  426    8.500   3209.74     1.7654     0.0256     0.3100     0.0850     1.8912     1.4244   136.0000     1.7552     0.1222
  427    8.520   3210.78     1.5444     0.0276     0.3638     0.0852     1.6876     1.7469   136.3200     1.5513     0.1649
  428    8.540   3211.78     1.4238     0.0269     0.4388     0.0854     1.5960     1.8603   136.6400     1.4593     0.2224
  429    8.560   3212.73     1.3685     0.0234     0.5009     0.0856     1.5691     1.6875   136.9600     1.4321     0.2736
  430    8.580   3213.71     1.4113     0.0246     0.5075     0.0858     1.6274     1.7909   137.2800     1.4901     0.2878
  431    8.600   3214.70     1.4444     0.0256     0.5102     0.0860     1.6554     1.7683   137.6000     1.5178     0.2744
  432    8.620   3215.67     1.4142     0.0253     0.5497     0.0862     1.6386     1.7745   137.9200     1.5006     0.2986
  433    8.640   3216.62     1.4148     0.0258     0.5500     0.0864     1.6503     1.8431   138.2400     1.5120     0.3137
  434    8.660   3217.62     1.5179     0.0243     0.4710     0.0866     1.7258     1.6093   138.5600     1.5872     0.2572
  435    8.680   3218.60     1.4983     0.0219     0.4822     0.0868     1.6948     1.4502   138.8800     1.5559     0.2450
  436    8.700   3219.57     1.3689     0.0219     0.5240     0.0870     1.5855     1.5838   139.2000     1.4463     0.2965
  437    8.720   3220.59     1.3420     0.0239     0.5352     0.0872     1.5643     1.7807   139.5200     1.4248     0.3103
  438    8.740   3221.51     1.3658     0.0239     0.5594     0.0874     1.5973     1.7687   139.8400     1.4575     0.3181
  439    8.760   3222.54     1.4352     0.0227     0.5667     0.0876     1.6755     1.6154   140.1600     1.5354     0.3158
  440    8.780   3223.52     1.6082     0.0209     0.5098     0.0878     1.8301     1.3273   140.4800     1.6896     0.2610
  441    8.800   3224.50     1.7032     0.0208     0.4808     0.0880     1.9075     1.2234   140.8000     1.7667     0.2255
  442    8.820   3225.49     1.7535     0.0232     0.4551     0.0882     1.9479     1.3215   141.1200     1.8068     0.2073
  443    8.840   3226.48     1.8030     0.0236     0.4031     0.0884     1.9824     1.3251   141.4400     1.8409     0.1841
  444    8.860   3227.44     1.9204     0.0267     0.3452     0.0886     2.0782     1.3950   141.7600     1.9365     0.1483
  445    8.880   3228.44     1.9240     0.0248     0.2789     0.0888     2.0463     1.2825   142.0800     1.9042     0.1062
  446    8.900   3229.43     1.9422     0.0244     0.1773     0.0890     2.0343     1.2646   142.4000     1.8919     0.0690
  447    8.920   3230.45     2.0028     0.0225     0.1826     0.0892     2.0794     1.1348   142.7200     1.9367     0.0481
  448    8.940   3231.39     2.0168     0.0200     0.1842     0.0894     2.0939     0.9858   143.0400     1.9508     0.0483
  449    8.960   3232.42     1.8494     0.0161     0.1832     0.0896     1.9271     0.8532   143.3600     1.7838     0.0536
  450    8.980   3233.41     1.6164     0.0159     0.2271     0.0898     1.7060     0.9472   143.6800     1.5623     0.0794
  451    9.000   3234.41     1.3519     0.0165     0.2832     0.0900     1.4620     1.1697   144.0000     1.3180     0.1311
  452    9.020   3235.39     1.1775     0.0164     0.3526     0.0902     1.3165     1.3686   144.3200     1.1722     0.2055
  453    9.040   3236.37     1.2437     0.0196     0.3541     0.0904     1.3974     1.6302   144.6400     1.2528     0.2207
  454    9.060   3237.36     1.5173     0.0205     0.2838     0.0906     1.6494     1.3937   144.9600     1.5044     0.1489
  455    9.080   3238.28     1.5565     0.0190     0.2137     0.0908     1.6496     1.2187   145.2800     1.5043     0.0869
  456    9.100   3239.30     1.5278     0.0176     0.1907     0.0910     1.6106     1.1548   145.6000     1.4650     0.0725
  457    9.120   3240.27     1.5247     0.0172     0.1983     0.0912     1.6058     1.1228   145.9200     1.4599     0.0699
  458    9.140   3241.26     1.4697     0.0158     0.2052     0.0914     1.5560     1.0701   146.2400     1.4098     0.0809
  459    9.160   3242.25     1.3437     0.0143     0.2091     0.0916     1.4320     1.0391   146.5600     1.2854     0.0923
  460    9.180   3243.21     1.2236     0.0146     0.2167     0.0918     1.3119     1.1649   146.8800     1.1650     0.1017
  461    9.200   3244.24     1.0807     0.0140     0.2434     0.0920     1.1788     1.2601   147.2000     1.0316     0.1374
  462    9.220   3245.18     1.0219     0.0127     0.2698     0.0922     1.1320     1.2238   147.5200     0.9845     0.1729
  463    9.240   3246.18     0.9739     0.0123     0.2837     0.0924     1.0922     1.2528   147.8400     0.9443     0.2005
  464    9.260   3247.13     0.9306     0.0119     0.2955     0.0926     1.0518     1.2555   148.1600     0.9036     0.2171
  465    9.280   3248.10     0.8743     0.0117     0.3226     0.0928     1.0061     1.3313   148.4800     0.8576     0.2577
  466    9.300   3249.08     0.9414     0.0131     0.3291     0.0930     1.0804     1.4213   148.8000     0.9316     0.2558
  467    9.320   3250.13     1.0896     0.0136     0.3045     0.0932     1.2218     1.2846   149.1200     1.0727     0.2070
  468    9.340   3251.10     1.2272     0.0136     0.2697     0.0934     1.3452     1.1292   149.4400     1.1958     0.1571
  469    9.360   3252.07     1.2953     0.0164     0.2426     0.0936     1.4010     1.2743   149.7600     1.2513     0.1265
  470    9.380   3253.06     1.3476     0.0167     0.2086     0.0938     1.4409     1.2510   150.0800     1.2908     0.0995
  471    9.400   3254.03     1.3966     0.0147     0.1639     0.0940     1.4715     1.0587   150.4000     1.3211     0.0639
  472    9.420   3255.01     1.3832     0.0124     0.1811     0.0942     1.4543     0.8840   150.7200     1.3035     0.0577
  473    9.440   3256.03     1.2233     0.0120     0.2064     0.0944     1.3070     0.9546   151.0400     1.1559     0.0910
  474    9.460   3256.98     1.0310     0.0109     0.2139     0.0946     1.1201     1.0252   151.3600     0.9687     0.1214
  475    9.480   3257.93     0.8163     0.0123     0.2550     0.0948     0.9164     1.4375   151.6800     0.7647     0.1895
  476    9.500   3258.96     0.7000     0.0128     0.2916     0.0950     0.8186     1.8418   152.0000     0.6666     0.2808
  477    9.520   3259.96     0.7504     0.0125     0.3001     0.0952     0.8753     1.6954   152.3200     0.7230     0.2798
  478    9.540   3260.92     0.7933     0.0120     0.3030     0.0954     0.9204     1.5287   152.6400     0.7678     0.2701
  479    9.560   3261.93     0.8640     0.0119     0.3017     0.0956     0.9907     1.4126   152.9600     0.8378     0.2462
  480    9.580   3262.94     0.9005     0.0109     0.2913     0.0958     1.0247     1.2228   153.2800     0.8714     0.2293
  481    9.600   3263.90     0.9191     0.0109     0.2770     0.0960     1.0380     1.1861   153.6000     0.8844     0.2116
  482    9.620   3264.87     0.8394     0.0106     0.2801     0.0962     0.9555     1.2257   153.9200     0.8016     0.2251
  483    9.640   3265.85     0.7355     0.0100     0.2771     0.0964     0.8511     1.3245   154.2400     0.6968     0.2566
  484    9.660   3266.84     0.6739     0.0096     0.2820     0.0966     0.7911     1.4046   154.5600     0.6365     0.2869
  485    9.680   3267.78     0.5923     0.0102     0.2881     0.0968     0.7116     1.6768   154.8800     0.5567     0.3360
  486    9.700   3268.78     0.5283     0.0096     0.3033     0.0970     0.6534     1.7668   155.2000     0.4982     0.4032
  487    9.720   3269.77     0.4934     0.0095     0.3140     0.0972     0.6250     1.8912   155.5200     0.4695     0.4607
  488    9.740   3270.73     0.5156     0.0094     0.2925     0.0974     0.6436     1.8580   155.8400     0.4878     0.4254
  489    9.760   3271.76     0.4624     0.0093     0.2906     0.0976     0.5819     1.9551   156.1600     0.4257     0.4392
  490    9.780   3272.73     0.4227     0.0096     0.3082     0.0978     0.5505     2.2162   156.4800     0.3940     0.5242
  491    9.800   3273.72     0.4072     0.0103     0.3162     0.0980     0.5390     2.5245   156.8000     0.3822     0.5648
  492    9.820   3274.67     0.4401     0.0102     0.3245     0.0982     0.5750     2.3572   157.1200     0.4179     0.5338
  493    9.840   3275.65     0.4864     0.0105     0.3258     0.0984     0.6246     2.1724   157.4400     0.4671     0.4938
  494    9.860   3281.89     0.5032     0.0102     0.3007     0.0986     0.6337     2.0134   157.7600     0.4760     0.4442
  495    9.880   3299.39     0.4716     0.0097     0.2716     0.0988     0.5899     1.8992   158.0800     0.4318     0.4201
  496    9.900   3316.90     0.4399     0.0100     0.2602     0.0990     0.5460     2.0917   158.4000     0.3876     0.3959
  497    9.920   3318.23     0.3802     0.0094     0.2731     0.0992     0.4940     2.3900   158.7200     0.3352     0.5119
  498    9.940   3319.18     0.3582     0.0092     0.2811     0.0994     0.4750     2.5351   159.0400     0.3160     0.5662
  499    9.960   3320.19     0.3412     0.0087     0.2900     0.0996     0.4621     2.5275   159.3600     0.3028     0.6223
  500    9.980   3321.18     0.3314     0.0095     0.2944     0.0998     0.4544     2.8612   159.6800     0.2947     0.6548
  501   10.000   3322.13     0.3347     0.0095     0.2978     0.1000     0.4594     2.8517   160.0000     0.2994     0.6576
  502   10.020   3323.12     0.3433     0.0098     0.2979     0.1002     0.4684     2.8975   160.3200     0.3081     0.6420
  503   10.040   3324.10     0.3575     0.0097     0.3021     0.1004     0.4835     2.7293   160.6400     0.3228     0.6185
  504   10.060   3325.09     0.3760     0.0091     0.3052     0.1006     0.5040     2.4541   160.9600     0.3431     0.5956
  505   10.080   3326.06     0.3733     0.0086     0.3081     0.1008     0.5021     2.2721   161.2800     0.3408     0.6037
  506   10.100   3327.08     0.3717     0.0096     0.3150     0.1010     0.5032     2.5949   161.6000     0.3416     0.6209
  507   10.120   3328.05     0.4107     0.0095     0.3193     0.1012     0.5444     2.4053   161.9200     0.3825     0.5689
  508   10.140   3329.04     0.4706     0.0099     0.3171     0.1014     0.6046     2.1539   162.2400     0.4423     0.4918
  509   10.160   3330.00     0.5334     0.0101     0.2943     0.1016     0.6602     1.9463   162.5600     0.4977     0.4031
  510   10.180   3330.99     0.5874     0.0099     0.2728     0.1018     0.7062     1.7076   162.8800     0.5434     0.3336
  511   10.200   3331.96     0.6009     0.0099     0.2691     0.1020     0.7148     1.6323   163.2000     0.5516     0.3066
  512   10.220   3332.89     0.5432     0.0101     0.2863     0.1022     0.6604     1.8347   163.5200     0.4969     0.3562
  513   10.240   3333.85     0.5206     0.0098     0.2961     0.1024     0.6439     1.9109   163.8400     0.4801     0.3987
  514   10.260   3334.89     0.5688     0.0097     0.2906     0.1026     0.6917     1.7131   164.1600     0.5276     0.3606
  515   10.280   3335.91     0.5911     0.0089     0.2785     0.1028     0.7109     1.5203   164.4800     0.5464     0.3340
  516   10.300   3336.90     0.5606     0.0094     0.2904     0.1030     0.6780     1.6250   164.8000     0.5132     0.3450
  517   10.320   3337.92     0.4806     0.0100     0.3061     0.1032     0.6073     1.9914   165.1200     0.4422     0.4495
  518   10.340   3338.88     0.4235     0.0111     0.3308     0.1034     0.5594     2.5763   165.4400     0.3940     0.5591
  519   10.360   3339.85     0.4449     0.0109     0.3327     0.1036     0.5850     2.5038   165.7600     0.4193     0.5489
  520   10.380   3340.79     0.4669     0.0102     0.3265     0.1038     0.6049     2.2010   166.0800     0.4388     0.5120
  521   10.400   3341.77     0.4807     0.0092     0.3281     0.1040     0.6149     1.9191   166.4000     0.4485     0.4810
  522   10.420   3342.75     0.4496     0.0098     0.3379     0.1042     0.5897     2.1839   166.7200     0.4230     0.5425
  523   10.440   3343.77     0.4625     0.0107     0.3437     0.1044     0.6066     2.3480   167.0400     0.4396     0.5429
  524   10.460   3344.76     0.4938     0.0107     0.3501     0.1046     0.6388     2.1972   167.3600     0.4715     0.5105
  525   10.480   3345.73     0.5350     0.0102     0.3226     0.1048     0.6777     1.9523   167.6800     0.5100     0.4607
  526   10.500   3346.77     0.5969     0.0105     0.2973     0.1050     0.7244     1.8124   168.0000     0.5564     0.3572
  527   10.520   3347.77     0.6293     0.0105     0.2987     0.1052     0.7547     1.6815   168.3200     0.5864     0.3297
  528   10.540   3348.72     0.6538     0.0101     0.3227     0.1054     0.7829     1.5615   168.6400     0.6143     0.3290
  529   10.560   3349.70     0.7146     0.0096     0.3229     0.1056     0.8554     1.3834   168.9600     0.6864     0.3345
  530   10.580   3350.68     0.7907     0.0107     0.2893     0.1058     0.9150     1.3882   169.2800     0.7457     0.2553
  531   10.600   3351.66     0.8245     0.0109     0.2867     0.1060     0.9433     1.3310   169.6000     0.7737     0.2286
  532   10.620   3352.62     0.8003     0.0118     0.2903     0.1062     0.9218     1.4517   169.9200     0.7518     0.2433
  533   10.640   3353.60     0.7807     0.0121     0.2885     0.1064     0.9036     1.5788   170.2400     0.7333     0.2540
  534   10.660   3354.58     0.7813     0.0112     0.2829     0.1066     0.8996     1.4193   170.5600     0.7291     0.2404
  535   10.680   3355.55     0.7259     0.0110     0.2935     0.1068     0.8483     1.5082   170.8800     0.6775     0.2726
  536   10.700   3356.57     0.7110     0.0110     0.3030     0.1070     0.8361     1.5377   171.2000     0.6649     0.2870
  537   10.720   3357.55     0.6452     0.0114     0.3230     0.1072     0.7785     1.7135   171.5200     0.6069     0.3466
  538   10.740   3358.58     0.5885     0.0107     0.3415     0.1074     0.7300     1.7767   171.8400     0.5581     0.4116
  539   10.760   3359.55     0.5545     0.0091     0.3479     0.1076     0.7000     1.6513   172.1600     0.5279     0.4528
  540   10.780   3360.54     0.5465     0.0100     0.3526     0.1078     0.6947     1.8139   172.4800     0.5223     0.4693
  541   10.800   3361.48     0.5194     0.0112     0.3615     0.1080     0.6689     2.1198   172.8000     0.4961     0.5001
  542   10.820   3362.47     0.4996     0.0120     0.3898     0.1082     0.6585     2.4213   173.1200     0.4854     0.5563
  543   10.840   3363.40     0.5540     0.0109     0.3830     0.1084     0.7182     2.0284   173.4400     0.5447     0.5196
  544   10.860   3364.39     0.6380     0.0070     0.3453     0.1086     0.7879     1.1096   173.7600     0.6142     0.4047
  545   10.880   3365.37     0.6260     0.0080     0.3392     0.1088     0.7684     1.2551   174.0800     0.5944     0.3880
  546   10.900   3366.36     0.5035     0.0083     0.3793     0.1090     0.6578     1.5983   174.4000     0.4834     0.5345
  547   10.920   3367.35     0.5437     0.0120     0.4105     0.1092     0.7126     2.3073   174.7200     0.5379     0.5478
  548   10.940   3368.37     0.9503     0.0147     0.3797     0.1094     1.1195     1.6872   175.0400     0.9445     0.3128
  549   10.960   3369.38     1.1559     0.0139     0.2231     0.1096     1.2705     1.2149   175.3600     1.0951     0.1483
  550   10.980   3370.36     1.0158     0.0134     0.1840     0.1098     1.0909     1.2759   175.6800     0.9153     0.0758
  551   11.000   3371.32     0.8056     0.0140     0.2036     0.1100     0.8859     1.6734   176.0000     0.7099     0.1144
  552   11.020   3372.29     0.6380     0.0135     0.2548     0.1102     0.7383     2.0212   176.3200     0.5620     0.2292
  553   11.040   3373.33     0.4666     0.0127     0.2910     0.1104     0.5837     2.5689   176.6400     0.4070     0.4135
  554   11.060   3374.27     0.3985     0.0112     0.3117     0.1106     0.5280     2.7194   176.9600     0.3511     0.5631
  555   11.080   3375.26     0.3927     0.0095     0.3214     0.1108     0.5263     2.4156   177.2800     0.3490     0.5940
  556   11.100   3376.21     0.3926     0.0098     0.3283     0.1110     0.5294     2.4850   177.6000     0.3518     0.6101
  557   11.120   3377.21     0.3880     0.0098     0.3329     0.1112     0.5274     2.5227   177.9200     0.3495     0.6319
  558   11.140   3378.21     0.3933     0.0106     0.3403     0.1114     0.5349     2.6751   178.2400     0.3567     0.6328
  559   11.160   3379.20     0.3920     0.0119     0.3502     0.1116     0.5377     3.0697   178.5600     0.3591     0.6554
  560   11.180   3380.15     0.4235     0.0118     0.3558     0.1118     0.5723     2.8566   178.8800     0.3934     0.6164
  561   11.200   3381.14     0.4791     0.0110     0.3609     0.1120     0.6303     2.3474   179.2000     0.4511     0.5503
  562   11.220   3382.15     0.5341     0.0108     0.3523     0.1122     0.6831     2.0717   179.5200     0.5036     0.4818
  563   11.240   3383.15     0.5270     0.0113     0.3540     0.1124     0.6749     2.1298   179.8400     0.4951     0.4844
  564   11.260   3384.09     0.5018     0.0113     0.3699     0.1126     0.6544     2.2198   180.1600     0.4742     0.5288
  565   11.280   3385.07     0.4951     0.0113     0.3701     0.1128     0.6511     2.2880   180.4800     0.4706     0.5492
  566   11.300   3386.05     0.5379     0.0115     0.3704     0.1130     0.6944     2.1865   180.8000     0.5136     0.5059
  567   11.320   3387.04     0.5904     0.0107     0.3521     0.1132     0.7407     1.8367   181.1200     0.5596     0.4375
  568   11.340   3388.04     0.6136     0.0112     0.3279     0.1134     0.7558     1.8343   181.4400     0.5744     0.3921
  569   11.360   3389.03     0.6228     0.0106     0.3182     0.1136     0.7558     1.6971   181.7600     0.5740     0.3539
  570   11.380   3390.01     0.5932     0.0102     0.3353     0.1138     0.7303     1.7080   182.0800     0.5482     0.3880
  571   11.400   3390.99     0.5993     0.0095     0.3383     0.1140     0.7413     1.6043   182.4000     0.5589     0.4009
  572   11.420   3391.97     0.6058     0.0097     0.3392     0.1142     0.7486     1.6075   182.7200     0.5659     0.3989
  573   11.440   3392.95     0.6080     0.0090     0.3449     0.1144     0.7527     1.4905   183.0400     0.5696     0.4040
  574   11.460   3393.96     0.6227     0.0086     0.3393     0.1146     0.7674     1.3747   183.3600     0.5841     0.3939
  575   11.480   3394.93     0.5956     0.0083     0.3301     0.1148     0.7347     1.3803   183.6800     0.5510     0.3927
  576   11.500   3395.92     0.5993     0.0077     0.3163     0.1150     0.7369     1.2937   184.0000     0.5529     0.3846
  577   11.520   3396.91     0.6057     0.0076     0.2971     0.1152     0.7323     1.2430   184.3200     0.5480     0.3401
  578   11.540   3397.89     0.5182     0.0081     0.2791     0.1154     0.6375     1.5241   184.6400     0.4528     0.3720
  579   11.560   3398.88     0.5329     0.0110     0.2903     0.1156     0.6512     2.0924   184.9600     0.4662     0.3559
  580   11.580   3399.88     0.5564     0.0106     0.3026     0.1158     0.6808     1.9164   185.2800     0.4955     0.3639
  581   11.600   3400.87     0.6564     0.0137     0.2933     0.1160     0.7827     2.1824   185.6000     0.5971     0.3101
  582   11.620   3401.85     0.8163     0.0187     0.2873     0.1162     0.9343     2.4298   185.9200     0.7484     0.2204
  583   11.640   3402.78     1.0115     0.0221     0.2945     0.1164     1.1333     2.2874   186.2400     0.9471     0.1832
  584   11.660   3403.77     1.1875     0.0254     0.2979     0.1166     1.3111     2.2028   186.5600     1.1246     0.1581
  585   11.680   3404.77     1.2635     0.0273     0.2995     0.1168     1.3906     2.1698   186.8800     1.2037     0.1542
  586   11.700   3405.73     1.3108     0.0284     0.2682     0.1170     1.4239     2.1758   187.2000     1.2367     0.1232
  587   11.720   3406.75     1.2528     0.0312     0.3156     0.1172     1.3765     2.4407   187.5200     1.1890     0.1491
  588   11.740   3407.73     1.2694     0.0325     0.3668     0.1174     1.4186     2.5248   187.8400     1.2308     0.1933
  589   11.760   3408.74     1.2804     0.0338     0.4080     0.1176     1.4451     2.6088   188.1600     1.2569     0.2184
  590   11.780   3409.67     1.2549     0.0368     0.4235     0.1178     1.4334     2.9037   188.4800     1.2450     0.2469
  591   11.800   3410.69     1.2195     0.0355     0.4134     0.1180     1.3936     2.8685   188.8000     1.2048     0.2462
  592   11.820   3411.61     1.1680     0.0320     0.4101     0.1182     1.3429     2.6985   189.1200     1.1537     0.2584
  593   11.840   3425.50     1.1941     0.0295     0.3622     0.1184     1.3531     2.5463   189.4400     1.1637     0.2246
  594   11.860   3442.24     1.2356     0.0280     0.3142     0.1186     1.3746     2.4131   189.7600     1.1848     0.1797
  595   11.880   3449.91     1.1681     0.0257     0.3342     0.1188     1.3046     2.1472   190.0800     1.1145     0.1854
  596   11.900   3450.91     0.9966     0.0252     0.3325     0.1190     1.1370     2.4537   190.4000     0.9466     0.2275
  597   11.920   3451.87     0.9517     0.0227     0.3482     0.1192     1.0923     2.3819   190.7200     0.9016     0.2391
  598   11.940   3452.85     1.0164     0.0207     0.3943     0.1194     1.1770     2.0731   191.0400     0.9860     0.2667
  599   11.960   3453.84     1.0843     0.0201     0.4167     0.1196     1.2578     1.8757   191.3600     1.0664     0.2753
  600   11.980   3454.83     1.0623     0.0214     0.4345     0.1198     1.2452     1.9973   191.6800     1.0535     0.2996
  601   12.000   3455.82     1.0029     0.0224     0.4396     0.1200     1.1877     2.1938   192.0000     0.9957     0.3214
  602   12.020   3456.79     0.8446     0.0235     0.3623     0.1202     1.0162     2.6795   192.3200     0.8239     0.3501
  603   12.040   3457.77     0.7848     0.0241     0.2960     0.1204     0.9152     3.0148   192.6400     0.7226     0.2631
  604   12.060   3458.72     0.6989     0.0229     0.2669     0.1206     0.8124     3.1969   192.9600     0.6194     0.2413
  605   12.080   3459.71     0.6256     0.0207     0.2704     0.1208     0.7378     3.2493   193.2800     0.5445     0.2690
  606   12.100   3460.74     0.5782     0.0205     0.2803     0.1210     0.6936     3.5234   193.6000     0.5000     0.3078
  607   12.120   3461.70     0.5558     0.0198     0.3030     0.1212     0.6794     3.5107   193.9200     0.4855     0.3569
  608   12.140   3462.67     0.5329     0.0178     0.3299     0.1214     0.6683     3.3116   194.2400     0.4741     0.4244
  609   12.160   3463.67     0.5243     0.0168     0.3419     0.1216     0.6667     3.1978   194.5600     0.4721     0.4604
  610   12.180   3464.65     0.5151     0.0155     0.3378     0.1218     0.6582     3.0248   194.8800     0.4633     0.4722
  611   12.200   3465.63     0.5128     0.0157     0.3365     0.1220     0.6539     3.0428   195.2000     0.4587     0.4662
  612   12.220   3466.59     0.5210     0.0150     0.3421     0.1222     0.6634     2.8670   195.5200     0.4679     0.4639
  613   12.240   3467.55     0.5070     0.0137     0.3465     0.1224     0.6528     2.7294   195.8400     0.4570     0.4921
  614   12.260   3468.51     0.5412     0.0141     0.3524     0.1226     0.6873     2.6705   196.1600     0.4912     0.4588
  615   12.280   3469.51     0.5886     0.0130     0.3603     0.1228     0.7393     2.2384   196.4800     0.5429     0.4352
  616   12.300   3470.49     0.6049     0.0120     0.3715     0.1230     0.7592     1.9791   196.8000     0.5624     0.4344
  617   12.320   3471.49     0.6115     0.0120     0.3695     0.1232     0.7681     1.9667   197.1200     0.5710     0.4371
  618   12.340   3472.48     0.6189     0.0125     0.3577     0.1234     0.7705     2.0272   197.4400     0.5731     0.4147
  619   12.360   3473.45     0.6063     0.0131     0.3549     0.1236     0.7551     2.1425   197.7600     0.5574     0.4140
  620   12.380   3474.46     0.5872     0.0137     0.3452     0.1238     0.7346     2.3325   198.0800     0.5365     0.4234
  621   12.400   3475.45     0.5817     0.0140     0.3317     0.1240     0.7246     2.4178   198.4000     0.5262     0.4111
  622   12.420   3476.42     0.5738     0.0143     0.3214     0.1242     0.7091     2.4763   198.7200     0.5104     0.3881
  623   12.440   3477.37     0.5558     0.0155     0.3158     0.1244     0.6901     2.7642   199.0400     0.4910     0.3978
  624   12.460   3478.37     0.5202     0.0156     0.3056     0.1246     0.6496     2.9726   199.3600     0.4503     0.4076
  625   12.480   3479.35     0.4882     0.0152     0.3069     0.1248     0.6173     3.0892   199.6800     0.4176     0.4374
  626   12.500   3480.35     0.4527     0.0147     0.2957     0.1250     0.5783     3.2059   200.0000     0.3783     0.4600
  627   12.520   3481.33     0.4387     0.0142     0.2911     0.1252     0.5612     3.2250   200.3200     0.3609     0.4611
  628   12.540   3482.33     0.4202     0.0140     0.2948     0.1254     0.5432     3.2850   200.6400     0.3425     0.4889
  629   12.560   3483.29     0.4007     0.0135     0.2937     0.1256     0.5241     3.3304   200.9600     0.3232     0.5206
  630   12.580   3484.29     0.3890     0.0130     0.2974     0.1258     0.5141     3.2945   201.2800     0.3128     0.5500
  631   12.600   3485.27     0.3788     0.0119     0.2902     0.1260     0.5012     3.1063   201.6000     0.2996     0.5520
  632   12.620   3486.25     0.3850     0.0115     0.2962     0.1262     0.5087     3.0056   201.9200     0.3067     0.5487
  633   12.640   3487.20     0.3924     0.0118     0.2980     0.1264     0.5174     3.0296   202.2400     0.3151     0.5434
  634   12.660   3488.20     0.4056     0.0120     0.2925     0.1266     0.5294     2.9643   202.5600     0.3268     0.5141
  635   12.680   3489.17     0.4143     0.0115     0.2918     0.1268     0.5363     2.7917   202.8800     0.3335     0.4912
  636   12.700   3490.15     0.4242     0.0108     0.2881     0.1270     0.5470     2.5670   203.2000     0.3438     0.4812
  637   12.720   3491.14     0.4476     0.0106     0.2849     0.1272     0.5657     2.4023   203.5200     0.3622     0.4254
  638   12.740   3492.13     0.4658     0.0108     0.3042     0.1274     0.5905     2.3157   203.8400     0.3867     0.4386
  639   12.760   3493.12     0.4696     0.0112     0.3207     0.1276     0.6023     2.3698   204.1600     0.3981     0.4728
  640   12.780   3494.10     0.4599     0.0105     0.3175     0.1278     0.5951     2.2790   204.4800     0.3906     0.4972
  641   12.800   3495.06     0.4543     0.0108     0.2908     0.1280     0.5805     2.3793   204.8000     0.3757     0.4590
  642   12.820   3496.03     0.4355     0.0103     0.2851     0.1282     0.5554     2.3481   205.1200     0.3503     0.4493
  643   12.840   3497.03     0.4107     0.0114     0.2727     0.1284     0.5269     2.7544   205.4400     0.3214     0.4611
  644   12.860   3498.01     0.3949     0.0118     0.2674     0.1286     0.5073     2.9575   205.7600     0.3015     0.4608
  645   12.880   3499.02     0.3878     0.0114     0.2620     0.1288     0.4976     2.9172   206.0800     0.2915     0.4550
  646   12.900   3500.04     0.3679     0.0117     0.2724     0.1290     0.4808     3.1325   206.4000     0.2744     0.5098
  647   12.920   3501.01     0.3620     0.0123     0.2795     0.1292     0.4786     3.4323   206.7200     0.2719     0.5461
  648   12.940   3502.00     0.3870     0.0122     0.2972     0.1294     0.5091     3.1968   207.0400     0.3020     0.5341
  649   12.960   3502.94     0.4407     0.0121     0.3009     0.1296     0.5675     2.8180   207.3600     0.3602     0.4796
  650   12.980   3503.91     0.5154     0.0126     0.3002     0.1298     0.6421     2.4994   207.6800     0.4344     0.3965
  651   13.000   3504.89     0.5851     0.0130     0.3032     0.1300     0.7104     2.2411   208.0000     0.5024     0.3352
  652   13.020   3505.90     0.5976     0.0130     0.3211     0.1302     0.7327     2.1930   208.3200     0.5244     0.3652
  653   13.040   3506.90     0.6353     0.0136     0.3310     0.1304     0.7746     2.1751   208.6400     0.5659     0.3556
  654   13.060   3507.90     0.6700     0.0135     0.3388     0.1306     0.8093     2.0346   208.9600     0.6003     0.3351
  655   13.080   3508.87     0.6614     0.0136     0.3563     0.1308     0.8074     2.0456   209.2800     0.5981     0.3628
  656   13.100   3509.86     0.6358     0.0133     0.3754     0.1310     0.7913     2.0730   209.6000     0.5817     0.4114
  657   13.120   3510.83     0.6515     0.0135     0.3756     0.1312     0.8089     2.0875   209.9200     0.5990     0.4068
  658   13.140   3511.78     0.6404     0.0141     0.3879     0.1314     0.8006     2.1834   210.2400     0.5904     0.4236
  659   13.160   3512.76     0.6455     0.0145     0.3986     0.1316     0.8121     2.2664   210.5600     0.6016     0.4408
  660   13.180   3513.77     0.6796     0.0148     0.4052     0.1318     0.8481     2.1987   210.8800     0.6372     0.4230
  661   13.200   3514.74     0.7076     0.0144     0.4043     0.1320     0.8764     2.0711   211.2000     0.6652     0.4061
  662   13.220   3515.72     0.6885     0.0149     0.4126     0.1322     0.8614     2.1399   211.5200     0.6499     0.4301
  663   13.240   3516.66     0.6808     0.0150     0.4184     0.1324     0.8554     2.2143   211.8400     0.6435     0.4401
  664   13.260   3517.68     0.6914     0.0159     0.4261     0.1326     0.8698     2.3094   212.1600     0.6576     0.4442
  665   13.280   3518.66     0.6962     0.0166     0.4324     0.1328     0.8765     2.3755   212.4800     0.6641     0.4465
  666   13.300   3519.67     0.7100     0.0160     0.4404     0.1330     0.8939     2.2712   212.8000     0.6811     0.4473
  667   13.320   3520.66     0.7338     0.0164     0.4440     0.1332     0.9207     2.2438   213.1200     0.7076     0.4405
  668   13.340   3521.62     0.7550     0.0168     0.4416     0.1334     0.9398     2.2348   213.4400     0.7264     0.4223
  669   13.360   3522.62     0.7304     0.0164     0.4538     0.1336     0.9192     2.2178   213.7600     0.7054     0.4481
  670   13.380   3523.58     0.7028     0.0168     0.4692     0.1338     0.8977     2.3680   214.0800     0.6836     0.4831
  671   13.400   3524.55     0.6949     0.0168     0.4734     0.1340     0.8935     2.4242   214.4000     0.6791     0.4989
  672   13.420   3525.54     0.6895     0.0164     0.4828     0.1342     0.8900     2.3645   214.7200     0.6753     0.5082
  673   13.440   3526.52     0.6829     0.0166     0.4922     0.1344     0.8887     2.4261   215.0400     0.6737     0.5279
  674   13.460   3527.49     0.6936     0.0168     0.4909     0.1346     0.9005     2.4365   215.3600     0.6852     0.5226
  675   13.480   3528.50     0.6894     0.0168     0.4990     0.1348     0.8979     2.4470   215.6800     0.6823     0.5302
  676   13.500   3529.47     0.6920     0.0168     0.5006     0.1350     0.9028     2.4268   216.0000     0.6868     0.5345
  677   13.520   3530.44     0.7023     0.0169     0.4994     0.1352     0.9117     2.4127   216.3200     0.6954     0.5227
  678   13.540   3531.43     0.7018     0.0158     0.5026     0.1354     0.9126     2.2498   216.6400     0.6960     0.5265
  679   13.560   3532.45     0.7016     0.0158     0.4999     0.1356     0.9121     2.2526   216.9600     0.6951     0.5260
  680   13.580   3533.42     0.6960     0.0158     0.4952     0.1358     0.9029     2.2718   217.2800     0.6856     0.5205
  681   13.600   3534.39     0.6865     0.0149     0.4975     0.1360     0.8965     2.1754   217.6000     0.6789     0.5361
  682   13.620   3535.35     0.6939     0.0139     0.4937     0.1362     0.9017     2.0139   217.9200     0.6838     0.5244
  683   13.640   3536.29     0.7192     0.0144     0.4725     0.1364     0.9196     2.0174   218.2400     0.7014     0.4859
  684   13.660   3537.30     0.7114     0.0153     0.4675     0.1366     0.9059     2.1394   218.5600     0.6873     0.4749
  685   13.680   3538.29     0.7337     0.0145     0.4763     0.1368     0.9348     2.0072   218.8800     0.7159     0.4778
  686   13.700   3539.29     0.7928     0.0140     0.4717     0.1370     0.9895     1.7950   219.2000     0.7703     0.4302
  687   13.720   3540.25     0.8063     0.0142     0.4677     0.1372     1.0035     1.7737   219.5200     0.7840     0.4240
  688   13.740   3541.25     0.7823     0.0145     0.4590     0.1374     0.9753     1.8112   219.8400     0.7555     0.4265
  689   13.760   3542.20     0.7091     0.0145     0.4913     0.1376     0.9087     2.0005   220.1600     0.6886     0.4910
  690   13.780   3543.15     0.6918     0.0135     0.5024     0.1378     0.9035     1.9497   220.4800     0.6830     0.5363
  691   13.800   3544.15     0.6997     0.0140     0.5037     0.1380     0.9103     1.9931   220.8000     0.6895     0.5271
  692   13.820   3545.15     0.6874     0.0145     0.5139     0.1382     0.9019     2.0910   221.1200     0.6808     0.5472
  693   13.840   3546.14     0.6837     0.0149     0.5223     0.1384     0.9022     2.1837   221.4400     0.6808     0.5608
  694   13.860   3547.12     0.6805     0.0156     0.5296     0.1386     0.9019     2.2809   221.7600     0.6802     0.5715
  695   13.880   3548.14     0.6757     0.0141     0.5215     0.1388     0.8957     2.0942   222.0800     0.6736     0.5715
  696   13.900   3549.12     0.6814     0.0140     0.5321     0.1390     0.9032     2.0596   222.4000     0.6808     0.5713
  697   13.920   3554.97     0.6925     0.0136     0.5265     0.1392     0.9149     1.9980   222.7200     0.6922     0.5646
  698   13.940   3569.69     0.7187     0.0140     0.5174     0.1394     0.9373     2.0424   223.0400     0.7143     0.5346
  699   13.960   3581.51     0.7417     0.0128     0.5335     0.1396     0.9611     1.7392   223.3600     0.7378     0.5189
  700   13.980   3582.48     0.7911     0.0149     0.5093     0.1398     1.0080     1.9164   223.6800     0.7843     0.4803
  701   14.000   3583.40     0.8372     0.0148     0.4866     0.1400     1.0474     1.8043   224.0000     0.8234     0.4386
  702   14.020   3584.38     0.9103     0.0143     0.4829     0.1402     1.1104     1.5665   224.3200     0.8861     0.3797
  703   14.040   3585.38     0.8447     0.0152     0.4872     0.1404     1.0489     1.7829   224.6400     0.8243     0.4194
  704   14.060   3586.34     0.8171     0.0157     0.4777     0.1406     1.0174     1.8953   224.9600     0.7924     0.4243
  705   14.080   3587.35     0.7535     0.0148     0.5015     0.1408     0.9603     1.9419   225.2800     0.7350     0.4785
  706   14.100   3588.34     0.7145     0.0144     0.5154     0.1410     0.9301     1.9895   225.6000     0.7045     0.5287
  707   14.120   3589.39     0.7033     0.0138     0.5208     0.1412     0.9216     1.9598   225.9200     0.6957     0.5441
  708   14.140   3590.34     0.6912     0.0149     0.5271     0.1414     0.9130     2.1462   226.2400     0.6868     0.5631
  709   14.160   3591.27     0.6828     0.0147     0.5415     0.1416     0.9084     2.1526   226.5600     0.6818     0.5801
  710   14.180   3592.25     0.7027     0.0150     0.5441     0.1418     0.9310     2.1488   226.8800     0.7041     0.5705
  711   14.200   3593.25     0.7314     0.0151     0.5300     0.1420     0.9573     2.0797   227.2000     0.7301     0.5423
  712   14.220   3594.17     0.7438     0.0148     0.5284     0.1422     0.9649     1.9639   227.5200     0.7373     0.5212
  713   14.240   3595.16     0.7210     0.0149     0.5390     0.1424     0.9448     2.0546   227.8400     0.7170     0.5445
  714   14.260   3596.18     0.6945     0.0156     0.5506     0.1426     0.9243     2.2490   228.1600     0.6961     0.5812
  715   14.280   3597.17     0.7038     0.0160     0.5548     0.1428     0.9364     2.2832   228.4800     0.7079     0.5807
  716   14.300   3598.13     0.7200     0.0145     0.5605     0.1430     0.9548     2.0171   228.8000     0.7260     0.5732
  717   14.320   3599.12     0.7598     0.0147     0.5544     0.1432     0.9941     1.9571   229.1200     0.7649     0.5421
  718   14.340   3600.12     0.7665     0.0142     0.5505     0.1434     0.9975     1.8546   229.4400     0.7681     0.5292
  719   14.360   3601.07     0.7626     0.0140     0.5525     0.1436     0.9949     1.8372   229.7600     0.7651     0.5351
  720   14.380   3602.06     0.7272     0.0144     0.5631     0.1438     0.9603     1.9538   230.0800     0.7302     0.5632
  721   14.400   3603.04     0.7090     0.0146     0.5694     0.1440     0.9482     2.0653   230.4000     0.7178     0.5928
  722   14.420   3604.04     0.7316     0.0150     0.5675     0.1442     0.9679     2.0371   230.7200     0.7372     0.5676
  723   14.440   3605.02     0.7247     0.0137     0.5825     0.1444     0.9686     1.8977   231.0400     0.7376     0.5915
  724   14.460   3606.01     0.7164     0.0137     0.5878     0.1446     0.9623     1.9094   231.3600     0.7310     0.6031
  725   14.480   3606.99     0.7238     0.0176     0.5832     0.1448     0.9693     2.4332   231.6800     0.7376     0.5962
  726   14.500   3607.98     0.7505     0.0203     0.5995     0.1450     0.9989     2.7753   232.0000     0.7669     0.5828
  727   14.520   3608.98     0.8446     0.0174     0.6011     0.1452     1.0991     2.1128   232.3200     0.8668     0.5322
  728   14.540   3609.96     1.0011     0.0151     0.5387     0.1454     1.2375     1.5634   232.6400     1.0049     0.4163
  729   14.560   3610.93     1.0743     0.0193     0.5330     0.1456     1.2967     1.8040   232.9600     1.0637     0.3610
  730   14.580   3611.90     1.0713     0.0240     0.5677     0.1458     1.3023     2.2651   233.2800     1.0690     0.3784
  731   14.600   3612.89     1.5334     0.0310     0.6226     0.1460     1.7883     2.2586   233.6000     1.5547     0.2984
  732   14.620   3613.87     2.2002     0.0336     0.5930     0.1462     2.4636     1.6631   233.9200     2.2297     0.2164
  733   14.640   3614.87     2.6842     0.0358     0.3879     0.1464     2.8678     1.3767   234.2400     2.6336     0.1105
  734   14.660   3615.82     2.7925     0.0372     0.3469     0.1466     2.9386     1.3332   234.5600     2.7040     0.0744
  735   14.680   3616.78     2.5712     0.0369     0.3410     0.1468     2.7117     1.4140   234.8800     2.4769     0.0759
  736   14.700   3617.76     2.2143     0.0345     0.3574     0.1470     2.3541     1.5210   235.2000     2.1189     0.0878
  737   14.720   3618.76     1.8281     0.0316     0.4396     0.1472     2.0013     1.6710   235.5200     1.7657     0.1504
  738   14.740   3619.78     1.4975     0.0303     0.5641     0.1474     1.7199     1.9172   235.8400     1.4840     0.2575
  739   14.760   3620.77     1.4191     0.0311     0.6309     0.1476     1.6767     2.1791   236.1600     1.4405     0.3233
  740   14.780   3621.74     1.4883     0.0301     0.6308     0.1478     1.7582     2.0793   236.4800     1.5218     0.3253
  741   14.800   3622.73     1.6650     0.0266     0.6171     0.1480     1.9244     1.6292   236.8000     1.6876     0.2784
  742   14.820   3623.69     1.8577     0.0263     0.6036     0.1482     2.1125     1.4575   237.1200     1.8754     0.2446
  743   14.840   3624.68     2.0271     0.0259     0.6138     0.1484     2.2810     1.2935   237.4400     2.0436     0.2232
  744   14.860   3625.66     2.1151     0.0298     0.6623     0.1486     2.3832     1.4156   237.7600     2.1454     0.2282
  745   14.880   3626.60     2.0308     0.0336     0.7653     0.1488     2.3382     1.6499   238.0800     2.1002     0.2777
  746   14.900   3627.59     2.1570     0.0385     0.7323     0.1490     2.4801     1.8013   238.4000     2.2417     0.2771
  747   14.920   3628.57     2.5622     0.0453     0.6072     0.1492     2.8314     1.7829   238.7200     2.5926     0.1903
  748   14.940   3629.60     3.2578     0.0573     0.5732     0.1494     3.5134     1.8160   239.0400     3.2744     0.1411
  749   14.960   3630.60     4.6044     0.0560     0.4228     0.1496     4.7947     1.2614   239.3600     4.5554     0.0671
  750   14.980   3631.59     5.8604     0.0569     0.2411     0.1498     5.9950     0.9843   239.6800     5.7553     0.0302
  751   15.000   3632.63     6.5405     0.0628     0.1075     0.1500     6.5988     0.9673   240.0000     6.3588    -0.0017
  752   15.020   3633.65     6.3388     0.0674     0.1345     0.1502     6.3705     1.0532   240.3200     6.1302    -0.0122
  753   15.040   3634.63     5.7006     0.0777     0.3246     0.1504     5.8185     1.3484   240.6400     5.5779     0.0235
  754   15.060   3635.59     5.2133     0.0769     0.4884     0.1506     5.3890     1.4605   240.9600     5.1480     0.0522
  755   15.080   3636.62     5.1562     0.0619     0.4855     0.1508     5.3769     1.1957   241.2800     5.1356     0.0731
  756   15.100   3637.59     6.2351     0.0513     0.3154     0.1510     6.4024     0.8365   241.6000     6.1608     0.0407
  757   15.120   3638.57     7.9623     0.0463     0.0709     0.1512     8.0209     0.6568   241.9200     7.7789    -0.0012
  758   15.140   3639.61     9.7794     0.0472    -0.1142     0.1514     9.7514     0.5058   242.2400     9.5092    -0.0228
  759   15.160   3640.62    10.7530     0.0509    -0.1690     0.1516    10.6886     0.4850   242.5600    10.4460    -0.0292
  760   15.180   3641.68    11.0640     0.0504    -0.1772     0.1518    10.9888     0.4585   242.8800    10.7459    -0.0308
  761   15.200   3642.67    11.1004     0.0510    -0.1726     0.1520    11.0273     0.4594   243.2000    10.7841    -0.0302
  762   15.220   3643.68    11.3722     0.0435    -0.1706     0.1522    11.3002     0.3850   243.5200    11.0566    -0.0293
  763   15.240   3644.69    11.4592     0.0361    -0.1757     0.1524    11.3872     0.3153   243.8400    11.1434    -0.0291
  764   15.260   3645.70    11.6855     0.0283    -0.1935     0.1526    11.6079     0.2424   244.1600    11.3638    -0.0297
  765   15.280   3646.72    12.4694     0.0282    -0.2100     0.1528    12.3835     0.2278   244.4800    12.1390    -0.0294
  766   15.300   3647.70    13.1618     0.0277    -0.2232     0.1530    13.0694     0.2122   244.8000    12.8246    -0.0291
  767   15.320   3648.75    13.8636     0.0302    -0.2269     0.1532    13.7692     0.2187   245.1200    13.5241    -0.0280
  768   15.340   3649.75    14.2359     0.0305    -0.2312     0.1534    14.1389     0.2148   245.4400    13.8935    -0.0277
  769   15.360   3650.80    14.2979     0.0259    -0.2299     0.1536    14.2013     0.1812   245.7600    13.9556    -0.0275
  770   15.380   3651.79    14.1660     0.0226    -0.2302     0.1538    14.0695     0.1592   246.0800    13.8234    -0.0278
  771   15.400   3652.81    14.0849     0.0246    -0.2312     0.1540    13.9880     0.1746   246.4000    13.7416    -0.0280
  772   15.420   3653.79    14.0424     0.0254    -0.2300     0.1542    13.9455     0.1812   246.7200    13.6988    -0.0281
  773   15.440   3654.79    14.1058     0.0219    -0.2304     0.1544    14.0090     0.1558   247.0400    13.7619    -0.0280
  774   15.460   3655.81    14.3231     0.0167    -0.2306     0.1546    14.2262     0.1168   247.3600    13.9788    -0.0276
  775   15.480   3656.80    14.6654     0.0129    -0.2290     0.1548    14.5688     0.0881   247.6800    14.3211    -0.0269
  776   15.500   3657.85    15.1349     0.0115    -0.2281     0.1550    15.0388     0.0762   248.0000    14.7908    -0.0260
  777   15.520   3658.85    15.4060     0.0101    -0.2279     0.1552    15.3103     0.0656   248.3200    15.0620    -0.0254
  778   15.540   3659.85    15.5673     0.0107    -0.2283     0.1554    15.4713     0.0685   248.6400    15.2227    -0.0252
  779   15.560   3660.85    15.5779     0.0107    -0.2275     0.1556    15.4821     0.0690   248.9600    15.2331    -0.0252
  780   15.580   3661.81    15.7518     0.0101    -0.2268     0.1558    15.6563     0.0640   249.2800    15.4071    -0.0249
  781   15.600   3662.86    15.7813     0.0119    -0.2261     0.1560    15.6861     0.0752   249.6000    15.4365    -0.0248
  782   15.620   3663.86    15.7153     0.0136    -0.2252     0.1562    15.6205     0.0867   249.9200    15.3706    -0.0248
  783   15.640   3664.86    15.7947     0.0155    -0.2248     0.1564    15.7002     0.0986   250.2400    15.4499    -0.0247
  784   15.660   3665.83    15.8188     0.0167    -0.2234     0.1566    15.7248     0.1061   250.5600    15.4743    -0.0246
  785   15.680   3666.86    15.7690     0.0179    -0.2222     0.1568    15.6756     0.1136   250.8800    15.4247    -0.0246
  786   15.700   3667.82    15.7523     0.0196    -0.2208     0.1570    15.6593     0.1239   251.2000    15.4081    -0.0246
  787   15.720   3668.84    15.8611     0.0241    -0.2187     0.1572    15.7691     0.1522   251.5200    15.5175    -0.0243
  788   15.740   3670.55    16.0780     0.0273    -0.1801     0.1574    15.9889     0.1698   251.8400    15.7371    -0.0235
  789   15.760   3683.39    16.3270     0.0272    -0.0877     0.1576    16.2768     0.1693   252.1600    16.0246    -0.0175
  790   15.780   3696.24    16.5761     0.0233     0.0048     0.1578    16.5647     0.1454   252.4800    16.3122    -0.0115
  791   15.800   3706.54    16.9397     0.0212     0.0613     0.1580    16.9633     0.1287   252.8000    16.7105    -0.0061
  792   15.820   3707.53    17.7847     0.0233    -0.0351     0.1582    17.7875     0.1342   253.1200    17.5344    -0.0086
  793   15.840   3708.43    18.5993     0.0325    -0.1328     0.1584    18.5535     0.1780   253.4400    18.3000    -0.0146
  794   15.860   3709.40    19.4494     0.0292    -0.1417     0.1586    19.3936     0.1530   253.7600    19.1398    -0.0152
  795   15.880   3710.34    20.1972     0.0260    -0.1505     0.1588    20.1353     0.1307   254.0800    19.8813    -0.0154
  796   15.900   3711.26    20.7610     0.0328    -0.1508     0.1590    20.6980     0.1597   254.4000    20.4436    -0.0151
  797   15.920   3712.21    20.8850     0.0413    -0.1486     0.1592    20.8225     0.1977   254.7200    20.5677    -0.0150
  798   15.940   3713.19    20.1960     0.0460    -0.1542     0.1594    20.1321     0.2233   255.0400    19.8771    -0.0157
  799   15.960   3714.12    19.2025     0.0411    -0.1565     0.1596    19.1368     0.2101   255.3600    18.8814    -0.0167
  800   15.980   3715.03    18.1713     0.0487    -0.1749     0.1598    18.1023     0.2652   255.6800    17.8466    -0.0182
  801   16.000   3715.99    17.2481     0.0622    -0.1796     0.1600    17.1727     0.3587   256.0000    16.9167    -0.0201
  802   16.020   3716.94    16.5120     0.0876    -0.1731     0.1602    16.4384     0.5294   256.3200    16.1820    -0.0207
  803   16.040   3717.92    15.7142     0.0750    -0.1745     0.1604    15.6392     0.4764   256.6400    15.3826    -0.0220
  804   16.060   3718.91    15.3973     0.0602    -0.1646     0.1606    15.3268     0.3899   256.9600    15.0698    -0.0218
  805   16.080   3719.89    15.4024     0.0521    -0.1526     0.1608    15.3367     0.3392   257.2800    15.0794    -0.0210
  806   16.100   3720.98    15.7605     0.0502    -0.1681     0.1610    15.6918     0.3203   257.6000    15.4342    -0.0210
  807   16.120   3722.01    16.3886     0.0437    -0.1699     0.1612    16.3162     0.2723   257.9200    16.0583    -0.0208
  808   16.140   3722.98    17.4840     0.0368    -0.1744     0.1614    17.4118     0.2155   258.2400    17.1535    -0.0194
  809   16.160   3723.96    18.3128     0.0316    -0.1693     0.1616    18.2407     0.1737   258.5600    17.9821    -0.0185
  810   16.180   3724.87    18.9630     0.0267    -0.1686     0.1618    18.8917     0.1430   258.8800    18.6329    -0.0178
  811   16.200   3725.79    19.3859     0.0307    -0.1694     0.1620    19.3147     0.1592   259.2000    19.0555    -0.0174
  812   16.220   3726.74    19.3734     0.0326    -0.1679     0.1622    19.3025     0.1675   259.5200    19.0430    -0.0174
  813   16.240   3727.65    19.2968     0.0277    -0.1646     0.1624    19.2272     0.1435   259.8400    18.9674    -0.0173
  814   16.260   3728.57    19.2798     0.0295    -0.1643     0.1626    19.2109     0.1530   260.1600    18.9507    -0.0172
  815   16.280   3729.52    19.4983     0.0301    -0.1656     0.1628    19.4286     0.1553   260.4800    19.1681    -0.0172
  816   16.300   3730.50    19.6961     0.0259    -0.1650     0.1630    19.6267     0.1317   260.8000    19.3659    -0.0169
  817   16.320   3731.43    19.5548     0.0213    -0.1650     0.1632    19.4859     0.1084   261.1200    19.2248    -0.0170
  818   16.340   3732.35    19.3232     0.0189    -0.1621     0.1634    19.2545     0.0973   261.4400    18.9931    -0.0172
  819   16.360   3733.26    19.2076     0.0175    -0.1572     0.1636    19.1406     0.0908   261.7600    18.8789    -0.0171
  820   16.380   3734.25    19.2024     0.0152    -0.1511     0.1638    19.1382     0.0795   262.0800    18.8761    -0.0168
  821   16.400   3735.17    19.1911     0.0179    -0.1438     0.1640    19.1297     0.0929   262.4000    18.8673    -0.0164
  822   16.420   3736.10    18.8376     0.0195    -0.1362     0.1642    18.7792     0.1030   262.7200    18.5165    -0.0164
  823   16.440   3737.02    18.0985     0.0198    -0.1283     0.1644    18.0434     0.1083   263.0400    17.7804    -0.0166
  824   16.460   3737.92    17.1986     0.0203    -0.1204     0.1646    17.1475     0.1176   263.3600    16.8841    -0.0170
  825   16.480   3738.91    16.1494     0.0204    -0.1116     0.1648    16.1016     0.1229   263.6800    15.8379    -0.0176
  826   16.500   3739.97    14.8396     0.0182    -0.1022     0.1650    14.7955     0.1218   264.0000    14.5315    -0.0186
  827   16.520   3740.95    13.9684     0.0171    -0.0902     0.1652    13.9282     0.1224   264.3200    13.6639    -0.0191
  828   16.540   3741.96    13.3563     0.0196    -0.0755     0.1654    13.3233     0.1461   264.6400    13.0586    -0.0187
  829   16.560   3742.95    12.9671     0.0209    -0.0620     0.1656    12.9392     0.1608   264.9600    12.6742    -0.0183
  830   16.580   3743.97    12.7488     0.0195    -0.0385     0.1658    12.7290     0.1526   265.2800    12.4637    -0.0171
  831   16.600   3744.97    12.7077     0.0164    -0.0122     0.1660    12.6975     0.1291   265.6000    12.4319    -0.0153
  832   16.620   3745.96    12.7649     0.0107     0.0293     0.1662    12.7696     0.0842   265.9200    12.5037    -0.0124
  833   16.640   3746.92    13.2081     0.0107     0.0521     0.1664    13.2335     0.0810   266.2400    12.9672    -0.0082
  834   16.660   3747.94    13.9274     0.0101     0.0659     0.1666    13.9544     0.0735   266.5600    13.6878    -0.0075
  835   16.680   3748.97    15.4363     0.0126     0.0718     0.1668    15.4722     0.0835   266.8800    15.2053    -0.0053
  836   16.700   3749.99    16.8124     0.0185     0.0255     0.1670    16.8342     0.1135   267.2000    16.5670    -0.0069
  837   16.720   3750.97    17.8701     0.0311    -0.0355     0.1672    17.8581     0.1768   267.5200    17.5906    -0.0111
  838   16.740   3751.93    18.3173     0.0334    -0.0360     0.1674    18.3029     0.1843   267.8400    18.0350    -0.0112
  839   16.760   3752.89    18.2550     0.0228    -0.0212     0.1676    18.2433     0.1242   268.1600    17.9751    -0.0109
  840   16.780   3753.84    17.9682     0.0203     0.0017     0.1678    17.9656     0.1115   268.4800    17.6972    -0.0098
  841   16.800   3754.76    17.6690     0.0166     0.0434     0.1680    17.6817     0.0926   268.8000    17.4129    -0.0079
  842   16.820   3755.71    17.3492     0.0143     0.0878     0.1682    17.3808     0.0818   269.1200    17.1117    -0.0054
  843   16.840   3756.62    17.3610     0.0103     0.0840     0.1684    17.3995     0.0594   269.4400    17.1300    -0.0045
  844   16.860   3757.56    17.9104     0.0075     0.0131     0.1686    17.9275     0.0426   269.7600    17.6578    -0.0072
  845   16.880   3758.49    18.4651     0.0110    -0.0617     0.1688    18.4619     0.0603   270.0800    18.1918    -0.0097
  846   16.900   3759.41    18.5663     0.0127    -0.0713     0.1690    18.5325     0.0687   270.4000    18.2621    -0.0137
  847   16.920   3760.36    18.8097     0.0199    -0.0926     0.1692    18.7790     0.1066   270.7200    18.5083    -0.0131
  848   16.940   3761.33    18.4892     0.0307    -0.1166     0.1694    18.4414     0.1646   271.0400    18.1704    -0.0156
  849   16.960   3762.28    17.9208     0.0498    -0.1156     0.1696    17.8731     0.2742   271.3600    17.6017    -0.0161
  850   16.980   3763.19    17.1150     0.0544    -0.1111     0.1698    17.0658     0.3144   271.6800    16.7942    -0.0171
  851   17.000   3764.14    16.5554     0.0473    -0.0878     0.1700    16.5150     0.2848   272.0000    16.2430    -0.0164
  852   17.020   3765.05    16.2241     0.0532    -0.0628     0.1702    16.1945     0.3280   272.3200    15.9221    -0.0151
  853   17.040   3766.04    15.8397     0.0554    -0.0563     0.1704    15.8158     0.3474   272.6400    15.5431    -0.0146
  854   17.060   3767.08    15.2675     0.0506    -0.0478     0.1706    15.2465     0.3292   272.9600    14.9735    -0.0147
  855   17.080   3768.11    15.2123     0.0436    -0.0282     0.1708    15.1951     0.2873   273.2800    14.9218    -0.0142
  856   17.100   3769.09    15.2942     0.0368     0.0232     0.1710    15.2961     0.2407   273.6000    15.0225    -0.0111
  857   17.120   3770.06    15.9319     0.0294     0.0572     0.1712    15.9573     0.1876   273.9200    15.6834    -0.0071
  858   17.140   3771.02    16.4079     0.0215    -0.0188     0.1714    16.4147     0.1323   274.2400    16.1404    -0.0096
  859   17.160   3771.97    16.5676     0.0157    -0.1139     0.1716    16.5365     0.0944   274.5600    16.2619    -0.0151
  860   17.180   3772.90    15.9649     0.0145    -0.1274     0.1718    15.9131     0.0900   274.8800    15.6383    -0.0189
  861   17.200   3773.84    15.2618     0.0170    -0.1325     0.1720    15.2047     0.1113   275.2000    14.9295    -0.0206
  862   17.220   3774.86    14.9569     0.0196    -0.1248     0.1722    14.9030     0.1313   275.5200    14.6275    -0.0205
  863   17.240   3775.89    15.1297     0.0196    -0.1080     0.1724    15.0811     0.1300   275.8400    14.8053    -0.0195
  864   17.260   3776.89    15.1738     0.0187    -0.0891     0.1726    15.1340     0.1230   276.1600    14.8578    -0.0180
  865   17.280   3777.89    14.9260     0.0174    -0.0703     0.1728    14.8948     0.1159   276.4800    14.6183    -0.0169
  866   17.300   3778.85    14.2960     0.0159    -0.0509     0.1730    14.2710     0.1107   276.8000    13.9942    -0.0166
  867   17.320   3779.85    13.5697     0.0149    -0.0258     0.1732    13.5542     0.1098   277.1200    13.2771    -0.0158
  868   17.340   3780.87    12.9014     0.0169     0.0008     0.1734    12.8987     0.1303   277.4400    12.6212    -0.0143
  869   17.360   3781.85    12.3423     0.0166     0.0199     0.1736    12.3496     0.1339   277.7600    12.0718    -0.0130
  870   17.380   3782.85    11.6035     0.0240     0.0328     0.1738    11.6162     0.2063   278.0800    11.3381    -0.0127
  871   17.400   3783.83    11.1948     0.0411     0.0510     0.1740    11.2135     0.3655   278.4000    10.9351    -0.0118
  872   17.420   3784.83    10.5726     0.0487     0.0791     0.1742    10.6025     0.4599   278.7200    10.3238    -0.0100
  873   17.440   3785.86    10.1840     0.0549     0.0975     0.1744    10.2228     0.5377   279.0400     9.9438    -0.0082
  874   17.460   3786.88     9.8241     0.0677     0.1031     0.1746     9.8703     0.6845   279.3600     9.5909    -0.0067
  875   17.480   3787.84     9.2335     0.0760     0.1129     0.1748     9.2788     0.8174   279.6800     8.9991    -0.0074
  876   17.500   3788.87     8.7286     0.0818     0.1205     0.1750     8.7882     0.9287   280.0000     8.5082    -0.0039
  877   17.520   3789.84     8.1477     0.0820     0.0500     0.1752     8.1741     0.9946   280.3200     7.8938    -0.0143
  878   17.540   3790.87     7.3472     0.0820     0.0846     0.1754     7.3648     1.0927   280.6400     7.0842    -0.0188
  879   17.560   3791.84     6.4265     0.0831     0.0425     0.1756     6.4558     1.2549   280.9600     6.1748    -0.0172
  880   17.580   3792.83     5.3747     0.0752     0.1201     0.1758     5.4138     1.3563   281.2800     5.1325    -0.0161
  881   17.600   3793.84     5.1047     0.0706     0.2249     0.1760     5.1823     1.3790   281.6000     4.9007     0.0018
  882   17.620   3794.83     5.9549     0.0776     0.2154     0.1762     6.0082     1.3681   281.9200     5.7263    -0.0087
  883   17.640   3795.78     7.0332     0.0769     0.1087     0.1764     7.1273     1.1118   282.2400     6.8451     0.0070
  884   17.660   3796.80     6.4387     0.0695    -0.0463     0.1766     6.4270     1.0561   282.5600     6.1444    -0.0333
  885   17.680   3797.78     5.1996     0.0581    -0.0326     0.1768     5.1721     1.0743   282.8800     4.8892    -0.0496
  886   17.700   3798.79     3.8583     0.0568     0.0525     0.1770     3.8600     1.4190   283.2000     3.5768    -0.0484
  887   17.720   3799.75     3.1872     0.0515     0.1550     0.1772     3.2356     1.5673   283.5200     2.9521    -0.0208
  888   17.740   3800.76     2.4643     0.0426     0.2171     0.1774     2.5494     1.6266   283.8400     2.2656     0.0113
  889   17.760   3801.75     2.2001     0.0335     0.2740     0.1776     2.3018     1.4992   284.1600     2.0177     0.0321
  890   17.780   3802.71     1.8965     0.0273     0.3522     0.1778     2.0325     1.3848   284.4800     1.7480     0.0838
  891   17.800   3803.67     1.5569     0.0247     0.4760     0.1780     1.7362     1.5391   284.8000     1.4514     0.1726
  892   17.820   3804.67     1.3214     0.0240     0.5931     0.1782     1.5589     1.7696   285.1200     1.2738     0.3050
  893   17.840   3805.66     1.2559     0.0217     0.6102     0.1784     1.5101     1.7247   285.4400     1.2247     0.3486
  894   17.860   3806.67     1.2156     0.0178     0.6182     0.1786     1.4767     1.4494   285.7600     1.1910     0.3721
  895   17.880   3807.64     1.1714     0.0185     0.6004     0.1788     1.4264     1.5676   286.0800     1.1404     0.3757
  896   17.900   3808.64     1.1345     0.0199     0.5853     0.1790     1.3799     1.7392   286.4000     1.0935     0.3707
  897   17.920   3809.62     1.1079     0.0213     0.5965     0.1792     1.3574     1.9107   286.7200     1.0706     0.3875
  898   17.940   3810.61     1.0845     0.0221     0.6033     0.1794     1.3382     2.0290   287.0400     1.0512     0.4040
  899   17.960   3811.59     1.1492     0.0202     0.5928     0.1796     1.3984     1.7815   287.3600     1.1110     0.3724
  900   17.980   3814.88     1.1152     0.0184     0.6044     0.1798     1.3672     1.6239   287.6800     1.0795     0.3906
  901   18.000   3825.08     1.0473     0.0183     0.6175     0.1800     1.3047     1.6126   288.0000     1.0167     0.4303
  902   18.020   3835.29     0.9793     0.0180     0.6306     0.1802     1.2422     1.5901   288.3200     0.9539     0.4700
  903   18.040   3840.39     0.9226     0.0183     0.6526     0.1804     1.1949     1.9629   288.6400     0.9063     0.5163
  904   18.060   3841.38     0.9056     0.0178     0.6587     0.1806     1.1807     1.9607   288.9600     0.8918     0.5321
  905   18.080   3842.33     0.9060     0.0176     0.6634     0.1808     1.1830     1.9424   289.2800     0.8937     0.5356
  906   18.100   3843.30     0.8875     0.0172     0.6676     0.1810     1.1676     1.9326   289.6000     0.8780     0.5535
  907   18.120   3844.28     0.8749     0.0171     0.6703     0.1812     1.1555     1.9428   289.9200     0.8656     0.5626
  908   18.140   3845.23     0.8621     0.0166     0.6714     0.1814     1.1439     1.9198   290.2400     0.8537     0.5736
  909   18.160   3846.20     0.8604     0.0166     0.6758     0.1816     1.1431     1.9262   290.5600     0.8526     0.5767
  910   18.180   3847.21     0.8550     0.0170     0.6778     0.1818     1.1397     1.9898   290.8800     0.8488     0.5844
  911   18.200   3848.23     0.8628     0.0168     0.6784     0.1820     1.1480     1.9541   291.2000     0.8568     0.5801
  912   18.220   3849.22     0.8966     0.0169     0.6742     0.1822     1.1803     1.9021   291.5200     0.8888     0.5552
  913   18.240   3850.17     0.8999     0.0158     0.6657     0.1824     1.1802     1.7557   291.8400     0.8884     0.5460
  914   18.260   3851.15     0.9073     0.0152     0.6557     0.1826     1.1845     1.6838   292.1600     0.8924     0.5350
  915   18.280   3852.10     0.8964     0.0161     0.6576     0.1828     1.1721     1.7889   292.4800     0.8797     0.5385
  916   18.300   3853.06     0.8895     0.0160     0.6807     0.1830     1.1699     1.7874   292.8000     0.8771     0.5524
  917   18.320   3854.06     0.8653     0.0159     0.6796     0.1832     1.1508     1.8289   293.1200     0.8576     0.5789
  918   18.340   3855.05     0.8566     0.0157     0.6792     0.1834     1.1422     1.8327   293.4400     0.8488     0.5852
  919   18.360   3856.04     0.8554     0.0158     0.6842     0.1836     1.1421     1.8424   293.7600     0.8483     0.5882
  920   18.380   3857.02     0.8371     0.0170     0.6859     0.1838     1.1253     2.0209   294.0800     0.8312     0.6046
  921   18.400   3858.02     0.8273     0.0163     0.6846     0.1840     1.1145     1.9762   294.4000     0.8201     0.6094
  922   18.420   3859.01     0.8289     0.0165     0.6884     0.1842     1.1177     1.9860   294.7200     0.8230     0.6116
  923   18.440   3859.96     0.8268     0.0172     0.6848     0.1844     1.1151     2.0829   295.0400     0.8201     0.6123
  924   18.460   3860.92     0.8456     0.0192     0.6940     0.1846     1.1356     2.3057   295.3600     0.8402     0.6023
  925   18.480   3861.89     0.9661     0.0185     0.6823     0.1848     1.2574     1.9554   295.6800     0.9618     0.5292
  926   18.500   3862.88     0.9838     0.0186     0.6472     0.1850     1.2564     1.8875   296.0000     0.9604     0.4831
  927   18.520   3863.87     0.9721     0.0189     0.6327     0.1852     1.2407     1.9350   296.3200     0.9444     0.4812
  928   18.540   3864.87     0.9476     0.0193     0.6261     0.1854     1.2124     2.0157   296.6400     0.9158     0.4861
  929   18.560   3865.88     0.8588     0.0195     0.6663     0.1856     1.1357     2.1852   296.9600     0.8387     0.5648
  930   18.580   3866.84     0.8248     0.0195     0.6743     0.1858     1.1079     2.3542   297.2800     0.8107     0.6024
  931   18.600   3867.83     0.8282     0.0182     0.6855     0.1860     1.1129     2.1944   297.6000     0.8153     0.6032
  932   18.620   3868.78     0.8191     0.0179     0.6955     0.1862     1.1107     2.1809   297.9200     0.8128     0.6251
  933   18.640   3869.71     0.8283     0.0180     0.7064     0.1864     1.1234     2.1776   298.2400     0.8252     0.6256
  934   18.660   3870.70     0.8308     0.0176     0.7144     0.1866     1.1301     2.1144   298.5600     0.8315     0.6325
  935   18.680   3871.70     0.8320     0.0177     0.7172     0.1868     1.1331     2.1360   298.8800     0.8342     0.6353
  936   18.700   3872.67     0.8435     0.0175     0.7227     0.1870     1.1460     2.0846   299.2000     0.8468     0.6297
  937   18.720   3873.68     0.8471     0.0178     0.7306     0.1872     1.1523     2.1092   299.5200     0.8527     0.6325
  938   18.740   3874.65     0.8548     0.0188     0.7355     0.1874     1.1631     2.2101   299.8400     0.8632     0.6332
  939   18.760   3875.61     0.8658     0.0182     0.7478     0.1876     1.1785     2.1021   300.1600     0.8784     0.6342
  940   18.780   3876.60     0.8527     0.0183     0.7511     0.1878     1.1675     2.1401   300.4800     0.8670     0.6479
  941   18.800   3877.58     0.8648     0.0185     0.7516     0.1880     1.1806     2.1358   300.8000     0.8798     0.6410
  942   18.820   3878.54     0.8693     0.0183     0.7592     0.1882     1.1871     2.0984   301.1200     0.8859     0.6415
  943   18.840   3879.51     0.8642     0.0184     0.7667     0.1884     1.1851     2.1270   301.4400     0.8837     0.6516
  944   18.860   3880.52     0.8747     0.0188     0.7729     0.1886     1.1985     2.1592   301.7600     0.8967     0.6492
  945   18.880   3881.52     0.8795     0.0191     0.7756     0.1888     1.2049     2.1647   302.0800     0.9028     0.6489
  946   18.900   3882.49     0.8780     0.0189     0.7778     0.1890     1.2045     2.1489   302.4000     0.9021     0.6522
  947   18.920   3883.48     0.8793     0.0186     0.7786     0.1892     1.2059     2.1091   302.7200     0.9032     0.6515
  948   18.940   3884.48     0.8844     0.0188     0.7846     0.1894     1.2123     2.1411   303.0400     0.9092     0.6502
  949   18.960   3885.42     0.8902     0.0184     0.7930     0.1896     1.2218     2.0669   303.3600     0.9185     0.6532
  950   18.980   3886.43     0.8940     0.0184     0.8041     0.1898     1.2300     2.0626   303.6800     0.9263     0.6587
  951   19.000   3887.39     0.9112     0.0187     0.8142     0.1900     1.2522     2.0653   304.0000     0.9482     0.6560
  952   19.020   3888.39     0.9203     0.0189     0.8229     0.1902     1.2643     2.0490   304.3200     0.9600     0.6551
  953   19.040   3889.37     0.9156     0.0189     0.8263     0.1904     1.2626     2.0632   304.6400     0.9580     0.6637
  954   19.060   3890.38     0.9149     0.0189     0.8267     0.1906     1.2612     2.0663   304.9600     0.9562     0.6630
  955   19.080   3891.35     0.9186     0.0182     0.8362     0.1908     1.2689     1.9755   305.2800     0.9636     0.6675
  956   19.100   3892.33     0.9182     0.0187     0.8397     0.1910     1.2704     2.0316   305.6000     0.9648     0.6714
  957   19.120   3893.30     0.9373     0.0191     0.8467     0.1912     1.2918     2.0453   305.9200     0.9859     0.6621
  958   19.140   3894.29     0.9513     0.0187     0.8610     0.1914     1.3107     1.9733   306.2400     1.0045     0.6613
  959   19.160   3895.30     0.9771     0.0184     0.8700     0.1916     1.3422     1.8947   306.5600     1.0356     0.6544
  960   19.180   3896.24     0.9831     0.0179     0.8726     0.1918     1.3493     1.8187   306.8800     1.0424     0.6524
  961   19.200   3897.20     0.9694     0.0186     0.8696     0.1920     1.3356     1.9071   307.2000     1.0284     0.6611
  962   19.220   3898.21     0.9719     0.0191     0.8552     0.1922     1.3294     1.9754   307.5200     1.0219     0.6449
  963   19.240   3899.23     0.9676     0.0185     0.8690     0.1924     1.3306     1.9089   307.8400     1.0228     0.6570
  964   19.260   3900.20     0.9565     0.0187     0.8673     0.1926     1.3204     1.9474   308.1600     1.0123     0.6656
  965   19.280   3901.16     0.9573     0.0191     0.8714     0.1928     1.3230     1.9949   308.4800     1.0145     0.6682
  966   19.300   3902.12     0.9524     0.0185     0.8800     0.1930     1.3201     1.9400   308.8000     1.0113     0.6748
  967   19.320   3903.09     0.9646     0.0186     0.8922     0.1932     1.3384     1.9420   309.1200     1.0293     0.6769
  968   19.340   3904.08     0.9980     0.0185     0.8964     0.1934     1.3727     1.8580   309.4400     1.0633     0.6573
  969   19.360   3905.08     1.0060     0.0184     0.8991     0.1936     1.3843     1.8334   309.7600     1.0745     0.6582
  970   19.380   3906.09     1.0235     0.0187     0.9078     0.1938     1.4041     1.8395   310.0800     1.0940     0.6511
  971   19.400   3907.11     1.0529     0.0184     0.9105     0.1940     1.4340     1.7576   310.4000     1.1236     0.6351
  972   19.420   3908.07     1.0315     0.0186     0.9150     0.1942     1.4163     1.7915   310.7200     1.1056     0.6530
  973   19.440   3909.03     1.0230     0.0186     0.9023     0.1944     1.4034     1.8232   311.0400     1.0923     0.6512
  974   19.460   3909.99     1.0128     0.0186     0.9099     0.1946     1.3938     1.8303   311.3600     1.0824     0.6583
  975   19.480   3911.01     1.0183     0.0189     0.9194     0.1948     1.4031     1.8559   311.6800     1.0915     0.6611
  976   19.500   3911.98     1.0200     0.0196     0.9320     0.1950     1.4087     1.9235   312.0000     1.0967     0.6660
  977   19.520   3912.97     1.0209     0.0209     0.9372     0.1952     1.4139     2.0544   312.3200     1.1016     0.6722
  978   19.540   3913.99     1.0297     0.0246     0.9443     0.1954     1.4252     2.3965   312.6400     1.1126     0.6708
  979   19.560   3914.94     1.0359     0.0257     0.9570     0.1956     1.4366     2.4844   312.9600     1.1237     0.6751
  980   19.580   3915.95     1.0565     0.0239     0.9695     0.1958     1.4618     2.2820   313.2800     1.1486     0.6697
  981   19.600   3916.94     1.1041     0.0195     0.9924     0.1960     1.5178     1.7826   313.6000     1.2042     0.6551
  982   19.620   3917.89     1.1555     0.0268     1.0144     0.1962     1.5795     2.3564   313.9200     1.2656     0.6430
  983   19.640   3918.86     1.4120     0.0353     1.0254     0.1964     1.8419     2.6210   314.2400     1.5277     0.5421
  984   19.660   3919.84     1.6137     0.0366     1.0280     0.1966     2.0462     2.3019   314.5600     1.7317     0.4812
  985   19.680   3920.83     1.5841     0.0360     0.7616     0.1968     1.9938     2.2372   314.8800     1.6789     0.4638
  986   19.700   3921.80     1.4510     0.0348     0.4480     0.1970     1.6065     2.4266   315.2000     1.2913     0.1334
  987   19.720   3922.76     1.3093     0.0335     0.6635     0.1972     1.5548     2.6059   315.5200     1.2393     0.3128
  988   19.740   3923.77     1.1163     0.0321     0.7805     0.1974     1.4343     2.7853   315.8400     1.1185     0.5006
  989   19.760   3924.80     1.0757     0.0298     0.8143     0.1976     1.4144     2.7478   316.1600     1.0983     0.5544
  990   19.780   3925.76     1.0678     0.0267     0.8277     0.1978     1.4164     2.4946   316.4800     1.0999     0.5747
  991   19.800   3929.75     1.0916     0.0262     0.8586     0.1980     1.4460     2.4444   316.8000     1.1292     0.5718
  992   19.820   3937.55     1.1401     0.0258     0.9011     0.1982     1.5124     2.4155   317.1200     1.1953     0.5753
  993   19.840   3945.36     1.1887     0.0253     0.9435     0.1984     1.5788     2.3645   317.4400     1.2614     0.5788
  994   19.860   3951.13     1.2220     0.0247     0.9712     0.1986     1.6275     2.0199   317.7600     1.3097     0.5854
  995   19.880   3952.12     1.2482     0.0243     0.9951     0.1988     1.6608     1.9579   318.0800     1.3427     0.5835
  996   19.900   3953.08     1.2122     0.0239     0.9982     0.1990     1.6369     1.9498   318.4000     1.3185     0.6161
  997   19.920   3954.13     1.1976     0.0229     0.9663     0.1992     1.6054     1.9172   318.7200     1.2867     0.5997
  998   19.940   3955.12     1.1951     0.0220     0.9856     0.1994     1.6058     1.8330   319.0400     1.2868     0.6049
  999   19.960   3956.09     1.1763     0.0221     0.9822     0.1996     1.5888     1.8770   319.3600     1.2695     0.6165
 1000   19.980   3957.03     1.1679     0.0212     0.9812     0.1998     1.5812     1.8175   319.6800     1.2615     0.6216
 1001   20.000   3957.99     1.1740     0.0210     0.9969     0.2000     1.5892     1.7800   320.0000     1.2692     0.6213
 1002   20.020   3958.99     1.1663     0.0208     1.0024     0.2002     1.5876     1.7961   320.3200     1.2673     0.6337
 1003   20.040   3960.00     1.1816     0.0208     1.0146     0.2004     1.6076     1.7596   320.6400     1.2869     0.6324
 1004   20.060   3960.96     1.1958     0.0226     1.0322     0.2006     1.6248     1.8951   320.9600     1.3039     0.6296
 1005   20.080   3961.98     1.2039     0.0224     1.0318     0.2008     1.6379     1.8656   321.2800     1.3166     0.6323
 1006   20.100   3962.93     1.2417     0.0238     1.0434     0.2010     1.6781     1.9317   321.6000     1.3565     0.6179
 1007   20.120   3963.92     1.2744     0.0222     1.0545     0.2012     1.7183     1.7457   321.9200     1.3964     0.6128
 1008   20.140   3964.91     1.2787     0.0217     1.0495     0.2014     1.7212     1.7005   322.2400     1.3990     0.6091
 1009   20.160   3965.82     1.2602     0.0224     1.0622     0.2016     1.7082     1.7668   322.5600     1.3857     0.6243
 1010   20.180   3966.85     1.2330     0.0223     1.0174     0.2018     1.6632     1.8097   322.8800     1.3404     0.6138
 1011   20.200   3967.87     1.2176     0.0220     1.0468     0.2020     1.6618     1.7908   323.2000     1.3386     0.6392
 1012   20.220   3968.83     1.2303     0.0192     1.0610     0.2022     1.6732     1.5701   323.5200     1.3497     0.6315
 1013   20.240   3969.86     1.2356     0.0189     1.0787     0.2024     1.6851     1.5334   323.8400     1.3613     0.6376
 1014   20.260   3970.81     1.2316     0.0186     1.0840     0.2026     1.6891     1.5039   324.1600     1.3650     0.6497
 1015   20.280   3971.78     1.2497     0.0181     1.0802     0.2028     1.7025     1.4553   324.4800     1.3780     0.6351
 1016   20.300   3972.74     1.2428     0.0176     1.0720     0.2030     1.6948     1.4184   324.8000     1.3700     0.6374
 1017   20.320   3973.77     1.2598     0.0171     1.0700     0.2032     1.7068     1.3600   325.1200     1.3817     0.6232
 1018   20.340   3974.72     1.2602     0.0162     1.0734     0.2034     1.7108     1.2861   325.4400     1.3854     0.6277
 1019   20.360   3975.69     1.2700     0.0166     1.0823     0.2036     1.7249     1.3089   325.7600     1.3991     0.6286
 1020   20.380   3976.72     1.3145     0.0171     1.1082     0.2038     1.7752     1.3078   326.0800     1.4491     0.6163
 1021   20.400   3977.68     1.3669     0.0173     1.1124     0.2040     1.8348     1.2753   326.4000     1.5084     0.6034
 1022   20.420   3978.70     1.4111     0.0176     1.0912     0.2042     1.8745     1.2517   326.7200     1.5478     0.5810
 1023   20.440   3979.68     1.4483     0.0172     1.0471     0.2044     1.8924     1.1888   327.0400     1.5654     0.5450
 1024   20.460   3980.65     1.4187     0.0162     1.0295     0.2046     1.8524     1.1289   327.3600     1.5251     0.5429
 1025   20.480   3981.60     1.3623     0.0170     1.0375     0.2048     1.7970     1.2311   327.6800     1.4693     0.5651
 1026   20.500   3982.60     1.3049     0.0173     1.0329     0.2050     1.7386     1.3185   328.0000     1.4106     0.5868
 1027   20.520   3983.56     1.2881     0.0162     1.0409     0.2052     1.7252     1.2559   328.3200     1.3969     0.5981
 1028   20.540   3984.55     1.2713     0.0168     1.0585     0.2054     1.7173     1.3166   328.6400     1.3887     0.6168
 1029   20.560   3985.57     1.2884     0.0176     1.0606     0.2056     1.7318     1.3802   328.9600     1.4029     0.6061
 1030   20.580   3986.56     1.3446     0.0177     1.0841     0.2058     1.7966     1.3188   329.2800     1.4673     0.5932
 1031   20.600   3987.54     1.3460     0.0172     1.0724     0.2060     1.8024     1.2744   329.6000     1.4728     0.5980
 1032   20.620   3988.50     1.3196     0.0201     0.9805     0.2062     1.7465     1.5171   329.9200     1.4166     0.5718
 1033   20.640   3989.42     1.3065     0.0208     1.0393     0.2064     1.7336     1.5913   330.2400     1.4033     0.5775
 1034   20.660   3990.43     1.3513     0.0183     1.0505     0.2066     1.7930     1.3739   330.5600     1.4625     0.5780
 1035   20.680   3991.41     1.3916     0.0179     1.0257     0.2068     1.8264     1.2861   330.8800     1.4955     0.5540
 1036   20.700   3992.43     1.3969     0.0163     0.9870     0.2070     1.8175     1.1652   331.2000     1.4863     0.5345
 1037   20.720   3993.44     1.3486     0.0160     0.9814     0.2072     1.7573     1.1745   331.5200     1.4258     0.5372
 1038   20.740   3994.41     1.2633     0.0172     1.0532     0.2074     1.7012     1.3430   331.8400     1.3694     0.6101
 1039   20.760   3995.37     1.2729     0.0179     1.0549     0.2076     1.7147     1.4171   332.1600     1.3825     0.6106
 1040   20.780   3996.31     1.2935     0.0165     1.0818     0.2078     1.7454     1.2700   332.4800     1.4129     0.6145
 1041   20.800   3997.29     1.2967     0.0161     1.0674     0.2080     1.7442     1.2476   332.8000     1.4114     0.6076
 1042   20.820   3998.30     1.2999     0.0172     1.0833     0.2082     1.7575     1.3254   333.1200     1.4244     0.6187
 1043   20.840   3999.28     1.3044     0.0170     1.1104     0.2084     1.7671     1.3082   333.4400     1.4336     0.6231
 1044   20.860   4000.30     1.3028     0.0165     1.1149     0.2086     1.7675     1.2698   333.7600     1.4338     0.6262
 1045   20.880   4001.26     1.3123     0.0163     1.1258     0.2088     1.7840     1.2422   334.0800     1.4499     0.6306
 1046   20.900   4002.29     1.3118     0.0159     1.1178     0.2090     1.7825     1.2162   334.4000     1.4481     0.6296
 1047   20.920   4003.24     1.3135     0.0157     1.1251     0.2092     1.7859     1.1904   334.7200     1.4512     0.6309
 1048   20.940   4004.21     1.3149     0.0153     1.1250     0.2094     1.7878     1.1607   335.0400     1.4527     0.6308
 1049   20.960   4005.21     1.2951     0.0150     1.1100     0.2096     1.7641     1.1553   335.3600     1.4287     0.6349
 1050   20.980   4006.20     1.2774     0.0151     1.0995     0.2098     1.7405     1.1781   335.6800     1.4048     0.6355
 1051   21.000   4007.21     1.2571     0.0143     1.0994     0.2100     1.7184     1.1366   336.0000     1.3824     0.6427
 1052   21.020   4008.16     1.2425     0.0139     1.0972     0.2102     1.7049     1.1142   336.3200     1.3686     0.6509
 1053   21.040   4009.18     1.2346     0.0142     1.0925     0.2104     1.6934     1.1548   336.6400     1.3568     0.6501
 1054   21.060   4010.15     1.2508     0.0139     1.0918     0.2106     1.7090     1.1142   336.9600     1.3720     0.6417
 1055   21.080   4011.16     1.2510     0.0137     1.0843     0.2108     1.7080     1.0967   337.2800     1.3708     0.6400
 1056   21.100   4012.13     1.2605     0.0130     1.0915     0.2110     1.7180     1.0342   337.6000     1.3804     0.6362
 1057   21.120   4013.09     1.2833     0.0141     1.0939     0.2112     1.7424     1.1009   337.9200     1.4045     0.6279
 1058   21.140   4014.07     1.3234     0.0164     1.0946     0.2114     1.7815     1.2444   338.2400     1.4432     0.6092
 1059   21.160   4015.04     1.3366     0.0175     1.0553     0.2116     1.7894     1.3169   338.5600     1.4508     0.5972
 1060   21.180   4016.06     1.4148     0.0184     1.0871     0.2118     1.8654     1.3200   338.8800     1.5265     0.5641
 1061   21.200   4017.06     1.6004     0.0186     1.0597     0.2120     2.0513     1.1986   339.2000     1.7121     0.5037
 1062   21.220   4018.08     1.5361     0.0191     0.7543     0.2122     1.9000     1.2003   339.5200     1.5605     0.4148
 1063   21.240   4019.02     1.3999     0.0186     0.9033     0.2124     1.7637     1.3195   339.8400     1.4238     0.4591
 1064   21.260   4020.02     1.3514     0.0180     0.9312     0.2126     1.7400     1.3330   340.1600     1.3998     0.5090
 1065   21.280   4021.00     1.3427     0.0165     0.9609     0.2128     1.7400     1.2235   340.4800     1.3996     0.5239
 1066   21.300   4021.93     1.3371     0.0152     0.9951     0.2130     1.7525     1.1393   340.8000     1.4117     0.5496
 1067   21.320   4022.90     1.3511     0.0157     1.0225     0.2132     1.7763     1.1640   341.1200     1.4352     0.5568
 1068   21.340   4023.92     1.3938     0.0152     1.0317     0.2134     1.8252     1.0958   341.4400     1.4838     0.5485
 1069   21.360   4024.94     1.4185     0.0162     1.0343     0.2136     1.8530     1.1469   341.7600     1.5112     0.5433
 1070   21.380   4025.92     1.4507     0.0167     0.9957     0.2138     1.8767     1.1640   342.0800     1.5346     0.5217
 1071   21.400   4026.90     1.4481     0.0173     1.0194     0.2140     1.8714     1.1912   342.4000     1.5290     0.5192
 1072   21.420   4027.93     1.4416     0.0191     0.9907     0.2142     1.8560     1.3154   342.7200     1.5133     0.5107
 1073   21.440   4028.93     1.3774     0.0192     0.9543     0.2144     1.7897     1.3920   343.0400     1.4467     0.5304
 1074   21.460   4029.90     1.3374     0.0187     0.9946     0.2146     1.7531     1.3886   343.3600     1.4097     0.5498
 1075   21.480   4030.86     1.3117     0.0176     1.0140     0.2148     1.7345     1.3390   343.6800     1.3908     0.5693
 1076   21.500   4031.81     1.2902     0.0162     1.0414     0.2150     1.7220     1.2488   344.0000     1.3780     0.5900
 1077   21.520   4032.83     1.2834     0.0157     1.0665     0.2152     1.7284     1.2161   344.3200     1.3840     0.6099
 1078   21.540   4033.79     1.3143     0.0153     1.0826     0.2154     1.7673     1.1770   344.6400     1.4227     0.6067
 1079   21.560   4034.82     1.3138     0.0149     1.0891     0.2156     1.7699     1.1379   344.9600     1.4250     0.6109
 1080   21.580   4035.80     1.3300     0.0135     1.0806     0.2158     1.7848     1.0216   345.2800     1.4395     0.6023
 1081   21.600   4036.79     1.3593     0.0142     1.1028     0.2160     1.8203     1.0507   345.6000     1.4747     0.5978
 1082   21.620   4037.75     1.3777     0.0200     1.0815     0.2162     1.8368     1.4566   345.9200     1.4909     0.5883
 1083   21.640   4049.87     1.5698     0.0233     1.0470     0.2164     2.0146     1.6900   346.2400     1.6683     0.5175
 1084   21.660   4062.40     1.7680     0.0246     1.0126     0.2166     2.1982     1.7839   346.5600     1.8517     0.4451
 1085   21.680   4070.64     1.8741     0.0250     0.8619     0.2168     2.2680     1.3238   346.8800     1.9211     0.3751
 1086   21.700   4071.61     1.7509     0.0238     0.7625     0.2170     2.0685     1.3426   347.2000     1.7213     0.3133
 1087   21.720   4072.62     1.5604     0.0257     0.8947     0.2172     1.9190     1.6127   347.5200     1.5715     0.4055
 1088   21.740   4073.59     1.4523     0.0269     0.9790     0.2174     1.8560     1.8325   347.8400     1.5081     0.4931
 1089   21.760   4074.55     1.4308     0.0218     0.9845     0.2176     1.8412     1.5229   348.1600     1.4930     0.5087
 1090   21.780   4075.56     1.5277     0.0180     0.9835     0.2178     1.9429     1.2107   348.4800     1.5944     0.4838
 1091   21.800   4076.53     1.5721     0.0176     0.6045     0.2180     1.9055     1.1006   348.8000     1.5567     0.3626
 1092   21.820   4077.54     1.4113     0.0181     0.7690     0.2182     1.7127     1.2581   349.1200     1.3636     0.3663
 1093   21.840   4078.55     1.3512     0.0180     0.8331     0.2184     1.6928     1.3236   349.4400     1.3434     0.4429
 1094   21.860   4079.51     1.3472     0.0158     0.8684     0.2186     1.7075     1.1756   349.7600     1.3577     0.4708
 1095   21.880   4080.48     1.3554     0.0142     0.8934     0.2188     1.7266     1.0507   350.0800     1.3765     0.4831
 1096   21.900   4081.47     1.3515     0.0133     0.9238     0.2190     1.7369     0.9826   350.4000     1.3865     0.5038
 1097   21.920   4082.44     1.3141     0.0134     0.9156     0.2192     1.7016     1.0109   350.7200     1.3509     0.5207
 1098   21.940   4083.41     1.3020     0.0136     0.9181     0.2194     1.6859     1.0495   351.0400     1.3349     0.5205
 1099   21.960   4084.37     1.3299     0.0132     0.9453     0.2196     1.7223     0.9926   351.3600     1.3709     0.5213
 1100   21.980   4085.35     1.3118     0.0127     0.9555     0.2198     1.7133     0.9660   351.6800     1.3616     0.5406
 1101   22.000   4086.35     1.2978     0.0132     0.9590     0.2200     1.6979     1.0131   352.0000     1.3459     0.5443
 1102   22.020   4087.37     1.3033     0.0139     0.9678     0.2202     1.7085     1.0681   352.3200     1.3561     0.5489
 1103   22.040   4088.33     1.3195     0.0140     0.9836     0.2204     1.7295     1.0656   352.6400     1.3768     0.5488
 1104   22.060   4089.36     1.3263     0.0146     0.9895     0.2206     1.7395     1.1078   352.9600     1.3866     0.5505
 1105   22.080   4090.33     1.3223     0.0146     0.9964     0.2208     1.7388     1.0998   353.2800     1.3855     0.5563
 1106   22.100   4091.29     1.3109     0.0147     1.0062     0.2210     1.7336     1.1159   353.6000     1.3800     0.5692
 1107   22.120   4092.26     1.2815     0.0158     1.0109     0.2212     1.7071     1.2229   353.9200     1.3532     0.5854
 1108   22.140   4093.22     1.2839     0.0154     1.0271     0.2214     1.7129     1.2026   354.2400     1.3587     0.5888
 1109   22.160   4094.20     1.3138     0.0151     1.0426     0.2216     1.7485     1.1530   354.5600     1.3939     0.5835
 1110   22.180   4095.16     1.3047     0.0136     1.0385     0.2218     1.7436     1.0385   354.8800     1.3887     0.5927
 1111   22.200   4096.18     1.2980     0.0112     1.0549     0.2220     1.7391     0.8552   355.2000     1.3839     0.5985
 1112   22.220   4097.20     1.2914     0.0138     1.0672     0.2222     1.7373     1.0658   355.5200     1.3818     0.6076
 1113   22.240   4098.17     1.3167     0.0159     1.0808     0.2224     1.7695     1.2125   355.8400     1.4136     0.6052
 1114   22.260   4099.18     1.4034     0.0163     1.0920     0.2226     1.8601     1.1885   356.1600     1.5040     0.5752
 1115   22.280   4100.14     1.5560     0.0157     1.0283     0.2228     2.0048     1.0413   356.4800     1.6484     0.5137
 1116   22.300   4101.11     1.5201     0.0159     0.8694     0.2230     1.9050     1.0365   356.8000     1.5482     0.4472
 1117   22.320   4102.09     1.3982     0.0170     0.8942     0.2232     1.7634     1.2023   357.1200     1.4063     0.4599
 1118   22.340   4103.05     1.3519     0.0178     0.9562     0.2234     1.7481     1.3184   357.4400     1.3907     0.5177
 1119   22.360   4104.02     1.3326     0.0154     0.9813     0.2236     1.7415     1.1500   357.7600     1.3837     0.5420
 1120   22.380   4105.03     1.3343     0.0142     0.9934     0.2238     1.7473     1.0633   358.0800     1.3892     0.5467
 1121   22.400   4106.04     1.3347     0.0151     1.0132     0.2240     1.7586     1.1324   358.4000     1.4002     0.5608
 1122   22.420   4107.04     1.3281     0.0158     1.0339     0.2242     1.7611     1.1844   358.7200     1.4024     0.5752
 1123   22.440   4108.02     1.3057     0.0160     1.0459     0.2244     1.7436     1.2214   359.0400     1.3846     0.5910
 1124   22.460   4109.01     1.2995     0.0158     1.0495     0.2246     1.7383     1.2183   359.3600     1.3789     0.5947
 1125   22.480   4110.00     1.3074     0.0150     1.0613     0.2248     1.7530     1.1505   359.6800     1.3933     0.6000
 1126   22.500   4110.96     1.3060     0.0149     1.0641     0.2250     1.7535     1.1409   360.0000     1.3935     0.6031
 1127   22.520   4111.94     1.3069     0.0138     1.0662     0.2252     1.7568     1.0584   360.3200     1.3965     0.6058
 1128   22.540   4112.94     1.3007     0.0136     1.0713     0.2254     1.7521     1.0440   360.6400     1.3914     0.6104
 1129   22.560   4113.89     1.2885     0.0145     1.0806     0.2256     1.7424     1.1186   360.9600     1.3814     0.6189
 1130   22.580   4114.89     1.2879     0.0144     1.0730     0.2258     1.7396     1.1178   361.2800     1.3783     0.6165
 1131   22.600   4115.88     1.3126     0.0148     1.0821     0.2260     1.7657     1.1352   361.6000     1.4041     0.6074
 1132   22.620   4116.87     1.3177     0.0145     1.0647     0.2262     1.7644     1.0969   361.9200     1.4024     0.5970
 1133   22.640   4117.86     1.2997     0.0149     1.0166     0.2264     1.7482     1.1438   362.2400     1.3859     0.6071
 1134   22.660   4118.81     1.3140     0.0152     1.0293     0.2266     1.7421     1.1594   362.5600     1.3796     0.5747
 1135   22.680   4119.80     1.2919     0.0151     1.0536     0.2268     1.7350     1.1616   362.8800     1.3721     0.6035
 1136   22.700   4120.77     1.2840     0.0151     1.0626     0.2270     1.7287     1.1746   363.2000     1.3655     0.6092
 1137   22.720   4121.73     1.2943     0.0148     1.0745     0.2272     1.7438     1.1470   363.5200     1.3803     0.6108
 1138   22.740   4122.72     1.2951     0.0151     1.0773     0.2274     1.7465     1.1632   363.8400     1.3826     0.6127
 1139   22.760   4123.73     1.2827     0.0144     1.0832     0.2276     1.7374     1.1172   364.1600     1.3733     0.6227
 1140   22.780   4124.68     1.2782     0.0142     1.0854     0.2278     1.7326     1.1102   364.4800     1.3681     0.6243
 1141   22.800   4125.75     1.2817     0.0138     1.0930     0.2280     1.7413     1.0784   364.8000     1.3765     0.6294
 1142   22.820   4126.70     1.2943     0.0145     1.0998     0.2282     1.7550     1.1249   365.1200     1.3899     0.6251
 1143   22.840   4127.70     1.3030                1.1107     0.2284     1.7687              365.4400     1.4033     0.6274
 1144   22.860   4128.67     1.3087                1.1085     0.2286     1.7735              365.7600     1.4077     0.6238
 1145   22.880   4129.69     1.3173                1.1136     0.2288     1.7852              366.0800     1.4191     0.6239
 1146   22.900   4130.64     1.3364                1.1130     0.2290     1.8041              366.4000     1.4377     0.6152
 1147   22.920   4131.61     1.3523                1.1037     0.2292     1.8157              366.7200     1.4490     0.6034
 1148   22.936   4132.84     1.3572                           0.2294     1.7931              366.9793     1.4261     0.5669
 
 
