

 Program UNIPLOT                         version 05.36.02
 _______________
 (c) Fugro Netherlands Marine, Nootdorp, The Netherlands


 ASCII representation of data plotted on a graph.

 This ASCII file presents data interpolated to values per fixed depth interval.
 The data are corrected for the depth-offset differences between the various 
 transducers in the penetrometer.

 The records at the start of penetration may include no values or anomalous
 values where a depth offset implies incomplete penetration of a particular
 sensor into the ground.

 The records at the end of penetration may include no values for data channels
 where the transducer did not reach this depth.

 The reference level for test values is (1) the ground surface for onshore tests and (2) the seafloor for nearshore and offshore tests.

 UNICAS data file          : CPT-1016.000                            
 Output using command file : PlotASCII.cmd

 ASCII file created at : date          :20-Apr-2022
                         time          :10:19:33
 Project number                        :20024805                                                                                            
 Date of testing                       :12-Apr-2022                                                                                         
 Location                              :Hong Kong Offshore Wind Farm Project                                                                
 Test name                             :CPT-1016
 Penetrometer                          :F7.5CKE2HAW2/B/3342
 Serial no                             :1701-3342

 Table description:
 Column ID                             :Parameter name
 ___________________________________________________________________________________
 Rec                                   :Record ID, Record ID [-]
 Depth                                 :Depth, Depth [m]
 Time                                  :Time, Time [s]
 Cone                                  :Cone Resistance, Cone Resistance [MPa]
 Friction                              :Sleeve Friction, Sleeve Friction [MPa]
 Pore 2                                :Porewater Pressure, Porewater Pressure at Shoulder [MPa]
 HydroPress                            :Hydrostatic Pressure, Hydrostatic Pressure [MPa]
 qt                                    :Total Cone Resistance, Total Cone Resistance [MPa]
 Fric_ratio                            :Friction Ratio, Friction Ratio [%]
 SigmaVert                             :Vertical stress, Vertical stress [kPa] as specified in ground model
 Qnet                                  :Net Cone Resistance, Net Cone Resistance [MPa], unit weight as specified in ground model
 Bq                                    :Porewater Pressure Ratio, Porewater Pressure Ratio [-], unit weight as specified in ground model


 Data table:
  Rec    Depth      Time       Cone   Friction     Pore 2 HydroPress         qt Fric_ratio  SigmaVert       Qnet         Bq
   No        m         s        MPa        MPa        MPa        MPa        MPa          %        kPa        MPa          -
    1    0.000   1555.25     0.0000                           0.0000     0.0000                0.0000     0.0000           
    2    0.020   1556.22     0.0057                0.0001     0.0002     0.0058                0.3200     0.0054    -0.0235
    3    0.040   1557.16     0.0055                0.0001     0.0004     0.0055                0.6400     0.0049    -0.0898
    4    0.060   1558.13     0.0090     0.0003     0.0001     0.0006     0.0091     3.1671     0.9600     0.0081    -0.0606
    5    0.080   1563.02     0.0078     0.0003    -0.0001     0.0008     0.0078     3.3932     1.2800     0.0065    -0.1308
    6    0.100   1568.80     0.0076     0.0003    -0.0002     0.0010     0.0076     4.3930     1.6000     0.0060    -0.1972
    7    0.120   1571.81     0.0081     0.0001     0.0013     0.0012     0.0086     1.0803     1.9200     0.0067     0.0031
    8    0.140   1572.77     0.0059     0.0008     0.0013     0.0014     0.0065    16.4899     2.2400     0.0043    -0.0160
    9    0.160   1573.72     0.0091     0.0008     0.0011     0.0016     0.0096     9.1599     2.5600     0.0071    -0.0523
   10    0.180   1574.67     0.0068     0.0005     0.0011     0.0018     0.0072     6.8991     2.8800     0.0044    -0.1729
   11    0.200   1575.59     0.0094     0.0007     0.0015     0.0020     0.0100     8.0523     3.2000     0.0068    -0.0831
   12    0.220   1576.55     0.0107     0.0005     0.0020     0.0022     0.0113     6.4259     3.5200     0.0078    -0.1251
   13    0.240   1577.48     0.0101     0.0007     0.0026     0.0024     0.0112     6.2120     3.8400     0.0073     0.0244
   14    0.260   1578.36     0.0118     0.0008     0.0021     0.0026     0.0128     8.8686     4.1600     0.0086    -0.0335
   15    0.280   1579.26     0.0108     0.0011     0.0018     0.0028     0.0115    11.4145     4.4800     0.0070    -0.1800
   16    0.300   1580.23     0.0130     0.0009     0.0025     0.0030     0.0140     6.2817     4.8000     0.0092    -0.0643
   17    0.320   1581.16     0.0156     0.0013     0.0024     0.0032     0.0166     8.7768     5.1200     0.0114    -0.0697
   18    0.340   1582.13     0.0165     0.0011     0.0027     0.0034     0.0176     6.4027     5.4400     0.0122    -0.0574
   19    0.360   1583.02     0.0165     0.0014     0.0041     0.0036     0.0179     8.6162     5.7600     0.0121    -0.0176
   20    0.380   1583.96     0.0166     0.0016     0.0038     0.0038     0.0183     9.5075     6.0800     0.0122     0.0156
   21    0.400   1584.88     0.0185     0.0015     0.0052     0.0040     0.0204     8.0431     6.4000     0.0140     0.0272
   22    0.420   1585.79     0.0184     0.0012     0.0046     0.0042     0.0207     6.4952     6.7200     0.0140     0.0965
   23    0.440   1586.71     0.0193     0.0015     0.0035     0.0044     0.0209     7.6288     7.0400     0.0138    -0.0463
   24    0.460   1587.67     0.0178     0.0016     0.0037     0.0046     0.0192     8.2509     7.3600     0.0118    -0.1133
   25    0.480   1588.60     0.0177     0.0017     0.0050     0.0048     0.0197     9.1078     7.6800     0.0120    -0.0030
   26    0.500   1589.52     0.0177     0.0018     0.0046     0.0050     0.0196     9.9647     8.0000     0.0116    -0.0262
   27    0.520   1590.47     0.0199     0.0020     0.0051     0.0052     0.0219    10.6614     8.3200     0.0136    -0.0302
   28    0.540   1591.36     0.0172     0.0020     0.0056     0.0054     0.0196    11.6053     8.6400     0.0109     0.0166
   29    0.560   1592.26     0.0150     0.0019     0.0060     0.0056     0.0174    12.7662     8.9600     0.0085     0.0137
   30    0.580   1595.76     0.0143     0.0018     0.0067     0.0058     0.0170    12.0391     9.2800     0.0077     0.0949
   31    0.600   1599.32     0.0136     0.0017     0.0074     0.0060     0.0166    11.3503     9.6000     0.0070     0.1777
   32    0.620   1602.87     0.0130     0.0019     0.0081     0.0062     0.0163    12.8156     9.9200     0.0064     0.2606
   33    0.640   1604.20     0.0116     0.0021     0.0082     0.0064     0.0149    18.9748    10.2400     0.0047     0.3148
   34    0.660   1605.30     0.0116     0.0019     0.0089     0.0066     0.0154    16.9849    10.5600     0.0048     0.5024
   35    0.680   1606.29     0.0123     0.0017     0.0096     0.0068     0.0161    13.2452    10.8800     0.0052     0.4333
   36    0.700   1607.35     0.0110     0.0018     0.0100     0.0070     0.0152    17.1620    11.2000     0.0040     0.9073
   37    0.720   1608.42     0.0150     0.0015     0.0116     0.0072     0.0198    10.4148    11.5200     0.0082     0.5080
   38    0.740   1609.52     0.0196     0.0022     0.0115     0.0074     0.0244    10.8493    11.8400     0.0126     0.3311
   39    0.760   1610.57     0.0224     0.0020     0.0116     0.0076     0.0275     9.6634    12.1600     0.0153     0.2902
   40    0.780   1611.63     0.0221     0.0017     0.0088     0.0078     0.0261     7.2457    12.4800     0.0136     0.1265
   41    0.800   1612.66     0.0196     0.0015     0.0079     0.0080     0.0230     7.4418    12.8000     0.0102     0.0243
   42    0.820   1613.75     0.0202     0.0013     0.0055     0.0082     0.0229     6.2812    13.1200     0.0098    -0.1769
   43    0.840   1614.78     0.0126     0.0013     0.0110     0.0084     0.0144     9.0662    13.4400     0.0010    -4.3396
   44    0.860   1615.83     0.0007     0.0011     0.0137     0.0086     0.0065    99.2078    13.7600    -0.0073    -0.7038
   45    0.880   1616.91     0.0042     0.0011     0.0142     0.0088     0.0100   154.6147    14.0800    -0.0041    -1.4707
   46    0.900   1617.97     0.0064     0.0010     0.0128     0.0090     0.0120    18.5265    14.4000    -0.0024    -2.1862
   47    0.920   1619.03     0.0049     0.0013     0.0124     0.0092     0.0101    25.9735    14.7200    -0.0046    -0.7151
   48    0.940   1620.07     0.0066     0.0012     0.0112     0.0094     0.0114    18.6251    15.0400    -0.0036    -0.5419
   49    0.960   1621.14     0.0052     0.0015     0.0127     0.0096     0.0104    33.9548    15.3600    -0.0050    -0.5582
   50    0.980   1622.18     0.0076     0.0014     0.0130     0.0098     0.0130    27.8500    15.6800    -0.0026    -1.4764
   51    1.000   1623.23     0.0112     0.0013     0.0138     0.0100     0.0168    14.5903    16.0000     0.0008     3.5835
   52    1.020   1624.29     0.0143     0.0018     0.0154     0.0102     0.0205    12.4832    16.3200     0.0042     1.1188
   53    1.040   1625.27     0.0201     0.0016     0.0145     0.0104     0.0262     9.5741    16.6400     0.0096     0.4253
   54    1.060   1626.33     0.0189     0.0021     0.0148     0.0106     0.0250    10.0894    16.9600     0.0080     0.4840
   55    1.080   1627.44     0.0259     0.0024     0.0143     0.0108     0.0319     9.3938    17.2800     0.0146     0.2358
   56    1.100   1628.47     0.0331     0.0027     0.0144     0.0110     0.0392     8.6981    17.6000     0.0216     0.1574
   57    1.120   1629.53     0.0294     0.0028     0.0131     0.0112     0.0351     9.1454    17.9200     0.0172     0.1424
   58    1.140   1630.58     0.0313     0.0030     0.0131     0.0114     0.0367     9.8925    18.2400     0.0185     0.0744
   59    1.160   1631.64     0.0320     0.0034     0.0127     0.0116     0.0375    10.3406    18.5600     0.0189     0.0683
   60    1.180   1647.34     0.0363     0.0034     0.0117     0.0118     0.0414    10.5756    18.8800     0.0225     0.0235
   61    1.200   1665.23     0.0414     0.0036     0.0107     0.0120     0.0461    11.2641    19.2000     0.0269    -0.0253
   62    1.220   1676.69     0.0448     0.0033     0.0117     0.0122     0.0494     7.5017    19.5200     0.0299    -0.0368
   63    1.240   1677.75     0.0438     0.0035     0.0128     0.0124     0.0490     7.7174    19.8400     0.0292    -0.0048
   64    1.260   1678.77     0.0421     0.0032     0.0139     0.0126     0.0479     7.3674    20.1600     0.0278     0.0463
   65    1.280   1679.86     0.0395     0.0028     0.0128     0.0128     0.0449     7.1771    20.4800     0.0244     0.0036
   66    1.300   1680.89     0.0391     0.0028     0.0135     0.0130     0.0446     7.1202    20.8000     0.0238     0.0065
   67    1.320   1681.96     0.0398     0.0025     0.0146     0.0132     0.0456     6.4084    21.1200     0.0244     0.0249
   68    1.340   1683.03     0.0383     0.0024     0.0190     0.0134     0.0457     6.3181    21.4400     0.0243     0.1745
   69    1.360   1684.07     0.0376     0.0022     0.0187     0.0136     0.0457     5.9295    21.7600     0.0239     0.2393
   70    1.380   1685.12     0.0401     0.0020     0.0188     0.0138     0.0480     5.4884    22.0800     0.0259     0.1884
   71    1.400   1686.16     0.0370     0.0020     0.0200     0.0140     0.0452     5.0408    22.4000     0.0228     0.2449
   72    1.420   1687.18     0.0364     0.0021     0.0212     0.0142     0.0451     5.5751    22.7200     0.0224     0.2922
   73    1.440   1688.24     0.0321     0.0019     0.0215     0.0144     0.0414     5.4601    23.0400     0.0183     0.4260
   74    1.460   1689.33     0.0345     0.0021     0.0214     0.0146     0.0436     6.0664    23.3600     0.0202     0.3439
   75    1.480   1690.38     0.0391     0.0020     0.0229     0.0148     0.0482     5.0346    23.6800     0.0245     0.2841
   76    1.500   1691.39     0.0403     0.0022     0.0256     0.0150     0.0506     5.4682    24.0000     0.0266     0.3604
   77    1.520   1692.45     0.0439     0.0018     0.0273     0.0152     0.0551     4.2067    24.3200     0.0308     0.3710
   78    1.540   1693.50     0.0478     0.0022     0.0299     0.0154     0.0602     4.8198    24.6400     0.0355     0.3943
   79    1.560   1694.51     0.0505     0.0021     0.0303     0.0156     0.0631     4.1295    24.9600     0.0381     0.3797
   80    1.580   1695.59     0.0549     0.0024     0.0318     0.0158     0.0680     4.5358    25.2800     0.0428     0.3622
   81    1.600   1696.67     0.0544     0.0024     0.0328     0.0160     0.0681     4.5529    25.6000     0.0425     0.3913
   82    1.620   1697.71     0.0592     0.0025     0.0323     0.0162     0.0728     4.3355    25.9200     0.0469     0.3479
   83    1.640   1698.77     0.0577     0.0026     0.0299     0.0164     0.0698     4.3958    26.2400     0.0436     0.2882
   84    1.660   1699.77     0.0555     0.0024     0.0303     0.0166     0.0683     4.3435    26.5600     0.0417     0.3323
   85    1.680   1700.83     0.0513     0.0023     0.0311     0.0168     0.0640     4.3881    26.8800     0.0372     0.3634
   86    1.700   1701.91     0.0500     0.0021     0.0334     0.0170     0.0635     4.1906    27.2000     0.0363     0.4204
   87    1.720   1702.96     0.0509     0.0020     0.0346     0.0172     0.0654     3.9180    27.5200     0.0378     0.4531
   88    1.740   1703.99     0.0510     0.0018     0.0366     0.0174     0.0661     3.4882    27.8400     0.0382     0.4833
   89    1.760   1705.08     0.0557     0.0019     0.0412     0.0176     0.0724     3.4443    28.1600     0.0443     0.5057
   90    1.780   1706.15     0.0564     0.0020     0.0428     0.0178     0.0743     3.4519    28.4800     0.0458     0.5419
   91    1.800   1707.18     0.0571     0.0022     0.0401     0.0180     0.0746     3.8178    28.8000     0.0458     0.5157
   92    1.820   1708.21     0.0549     0.0023     0.0383     0.0182     0.0713     4.0353    29.1200     0.0421     0.4902
   93    1.840   1709.26     0.0576     0.0021     0.0369     0.0184     0.0731     3.6512    29.4400     0.0437     0.4250
   94    1.860   1710.29     0.0527     0.0021     0.0384     0.0186     0.0684     3.9925    29.7600     0.0386     0.4824
   95    1.880   1711.35     0.0468     0.0021     0.0378     0.0188     0.0632     4.2813    30.0800     0.0331     0.6136
   96    1.900   1712.39     0.0492     0.0022     0.0385     0.0190     0.0651     4.4636    30.4000     0.0347     0.5457
   97    1.920   1713.49     0.0511     0.0025     0.0402     0.0192     0.0675     4.9317    30.7200     0.0368     0.5404
   98    1.940   1714.53     0.0497     0.0023     0.0433     0.0194     0.0675     4.6357    31.0400     0.0365     0.6349
   99    1.960   1715.55     0.0526     0.0026     0.0429     0.0196     0.0707     5.0117    31.3600     0.0393     0.5950
  100    1.980   1716.61     0.0554     0.0026     0.0441     0.0198     0.0736     4.8215    31.6800     0.0419     0.5622
  101    2.000   1717.64     0.0607     0.0025     0.0472     0.0200     0.0799     4.1731    32.0000     0.0479     0.5384
  102    2.020   1718.73     0.0664     0.0026     0.0514     0.0202     0.0875     4.0174    32.3200     0.0552     0.5466
  103    2.040   1719.76     0.0659     0.0025     0.0531     0.0204     0.0878     3.7371    32.6400     0.0551     0.5752
  104    2.060   1720.80     0.0655     0.0023     0.0528     0.0206     0.0876     3.4938    32.9600     0.0547     0.5850
  105    2.080   1721.85     0.0670     0.0023     0.0524     0.0208     0.0890     3.4277    33.2800     0.0557     0.5668
  106    2.100   1722.91     0.0665     0.0024     0.0554     0.0210     0.0892     3.5650    33.6000     0.0556     0.5937
  107    2.120   1723.97     0.0700     0.0026     0.0572     0.0212     0.0938     3.7281    33.9200     0.0599     0.5942
  108    2.140   1725.00     0.0718     0.0027     0.0598     0.0214     0.0964     3.8051    34.2400     0.0622     0.5976
  109    2.160   1726.06     0.0731     0.0024     0.0612     0.0216     0.0988     3.3721    34.5600     0.0642     0.6164
  110    2.180   1727.11     0.0744     0.0026     0.0614     0.0218     0.1002     3.6099    34.8800     0.0653     0.6066
  111    2.200   1728.17     0.0755     0.0024     0.0610     0.0220     0.1010     3.2787    35.2000     0.0658     0.5899
  112    2.220   1729.23     0.0778     0.0026     0.0628     0.0222     0.1040     3.4596    35.5200     0.0684     0.5852
  113    2.240   1730.28     0.0828     0.0028     0.0637     0.0224     0.1094     3.5812    35.8400     0.0736     0.5565
  114    2.260   1731.32     0.0845     0.0031     0.0625     0.0226     0.1113     3.7679    36.1600     0.0751     0.5467
  115    2.280   1732.38     0.0871     0.0032     0.0619     0.0228     0.1132     3.6376    36.4800     0.0767     0.5136
  116    2.300   1733.41     0.0850     0.0032     0.0588     0.0230     0.1107     3.6892    36.8000     0.0739     0.5157
  117    2.320   1734.47     0.0858     0.0033     0.0572     0.0232     0.1107     3.7796    37.1200     0.0736     0.4883
  118    2.340   1735.53     0.0819     0.0033     0.0566     0.0234     0.1054     3.9082    37.4400     0.0680     0.4785
  119    2.360   1736.59     0.0761     0.0029     0.0610     0.0236     0.1012     3.6653    37.7600     0.0634     0.5718
  120    2.380   1737.64     0.0772     0.0029     0.0634     0.0238     0.1034     3.6451    38.0800     0.0654     0.5933
  121    2.400   1738.73     0.0791     0.0022     0.0647     0.0240     0.1061     2.8715    38.4000     0.0677     0.5974
  122    2.420   1739.76     0.0771     0.0022     0.0653     0.0242     0.1042     2.8394    38.7200     0.0655     0.6171
  123    2.440   1740.78     0.0743     0.0023     0.0631     0.0244     0.1018     3.0644    39.0400     0.0627     0.6521
  124    2.460   1741.85     0.0727     0.0022     0.0611     0.0246     0.0988     3.0030    39.3600     0.0595     0.6343
  125    2.480   1742.92     0.0688     0.0020     0.0582     0.0248     0.0937     2.8121    39.6800     0.0540     0.6389
  126    2.500   1743.94     0.0679     0.0018     0.0552     0.0250     0.0916     2.5951    40.0000     0.0516     0.6074
  127    2.520   1744.98     0.0645     0.0020     0.0562     0.0252     0.0881     3.0505    40.3200     0.0478     0.6473
  128    2.540   1746.02     0.0691     0.0019     0.0545     0.0254     0.0916     2.7470    40.6400     0.0510     0.5552
  129    2.560   1747.07     0.0653     0.0014     0.0586     0.0256     0.0899     2.1234    40.9600     0.0489     0.6742
  130    2.580   1748.16     0.0633     0.0014     0.0568     0.0258     0.0874     2.2634    41.2800     0.0461     0.6858
  131    2.600   1749.19     0.0642     0.0016     0.0527     0.0260     0.0866     2.6828    41.6000     0.0450     0.6109
  132    2.620   1750.26     0.0742     0.0018     0.0545     0.0262     0.0969     2.5323    41.9200     0.0549     0.5032
  133    2.640   1751.33     0.0757     0.0017     0.0549     0.0264     0.0988     2.4175    42.2400     0.0565     0.5037
  134    2.660   1752.37     0.0822     0.0023     0.0495     0.0266     0.1041     2.9612    42.5600     0.0616     0.4194
  135    2.680   1753.42     0.0966     0.0026     0.0469     0.0268     0.1160     2.8035    42.8800     0.0732     0.2676
  136    2.700   1754.46     0.0973     0.0030     0.0484     0.0270     0.1174     3.0847    43.2000     0.0742     0.2812
  137    2.720   1755.52     0.0936     0.0032     0.0488     0.0272     0.1141     3.3307    43.5200     0.0706     0.3062
  138    2.740   1756.58     0.0919     0.0033     0.0473     0.0274     0.1119     3.7795    43.8400     0.0680     0.2974
  139    2.760   1757.59     0.0963     0.0036     0.0482     0.0276     0.1161     3.7338    44.1600     0.0719     0.2724
  140    2.780   1758.64     0.1015     0.0036     0.0514     0.0278     0.1226     3.6728    44.4800     0.0781     0.2848
  141    2.800   1759.70     0.1111     0.0037     0.0532     0.0280     0.1329     3.3284    44.8000     0.0881     0.2719
  142    2.820   1760.79     0.1127     0.0037     0.0539     0.0282     0.1352     3.3584    45.1200     0.0901     0.2815
  143    2.840   1761.83     0.1177     0.0041     0.0493     0.0284     0.1401     3.5650    45.4400     0.0947     0.2631
  144    2.860   1762.84     0.1106     0.0044     0.0497     0.0286     0.1317     3.7504    45.7600     0.0859     0.2494
  145    2.880   1763.88     0.1056     0.0041     0.0475     0.0288     0.1260     3.8205    46.0800     0.0799     0.2479
  146    2.900   1764.94     0.0991     0.0041     0.0457     0.0290     0.1187     4.0017    46.4000     0.0723     0.2446
  147    2.920   1766.02     0.1004     0.0041     0.0458     0.0292     0.1190     3.9960    46.7200     0.0723     0.2073
  148    2.940   1767.04     0.0992     0.0038     0.0503     0.0294     0.1196     3.8213    47.0400     0.0726     0.2659
  149    2.960   1768.08     0.1016     0.0038     0.0560     0.0296     0.1243     3.7808    47.3600     0.0769     0.3176
  150    2.980   1769.11     0.0966     0.0034     0.0599     0.0298     0.1215     3.5202    47.6800     0.0738     0.4001
  151    3.000   1770.17     0.1069     0.0029     0.0601     0.0300     0.1320     2.7261    48.0000     0.0840     0.3549
  152    3.020   1771.23     0.1059     0.0032     0.0564     0.0302     0.1307     2.9414    48.3200     0.0824     0.3522
  153    3.040   1772.29     0.0986     0.0031     0.0509     0.0304     0.1212     3.0657    48.6400     0.0726     0.3226
  154    3.060   1773.30     0.0945     0.0031     0.0552     0.0306     0.1141     3.2693    48.9600     0.0652     0.2465
  155    3.080   1774.36     0.0858     0.0033     0.0455     0.0308     0.1068     3.7317    49.2800     0.0575     0.3323
  156    3.100   1775.41     0.0929     0.0034     0.0387     0.0310     0.1104     3.7863    49.6000     0.0608     0.1768
  157    3.120   1776.42     0.1081     0.0040     0.0561     0.0312     0.1266     3.7528    49.9200     0.0767     0.1642
  158    3.140   1777.50     0.1106     0.0041     0.0548     0.0314     0.1337     3.7661    50.2400     0.0834     0.2822
  159    3.160   1781.53     0.1143     0.0035     0.0542     0.0316     0.1372     3.0735    50.5600     0.0866     0.2656
  160    3.180   1796.81     0.1185     0.0030     0.0531     0.0318     0.1409     2.6825    50.8800     0.0901     0.2417
  161    3.200   1812.09     0.1227     0.0030     0.0538     0.0320     0.1447     2.5846    51.2000     0.0935     0.2178
  162    3.220   1814.26     0.1151     0.0027     0.0614     0.0322     0.1401     2.1870    51.5200     0.0885     0.3089
  163    3.240   1815.26     0.1107     0.0031     0.0706     0.0324     0.1396     2.7722    51.8400     0.0878     0.4155
  164    3.260   1816.36     0.1193     0.0032     0.0743     0.0326     0.1501     2.6976    52.1600     0.0980     0.4167
  165    3.280   1817.38     0.1242     0.0033     0.0698     0.0328     0.1542     2.7286    52.4800     0.1017     0.3784
  166    3.300   1818.43     0.1235     0.0034     0.0614     0.0330     0.1508     2.7311    52.8000     0.0980     0.3270
  167    3.320   1819.50     0.1241     0.0033     0.0529     0.0332     0.1472     2.6708    53.1200     0.0941     0.2299
  168    3.340   1820.59     0.1269     0.0030     0.0578     0.0334     0.1501     2.3764    53.4400     0.0967     0.2245
  169    3.360   1821.63     0.1315     0.0036     0.0668     0.0336     0.1581     2.7116    53.7600     0.1043     0.2846
  170    3.380   1822.67     0.1372     0.0038     0.0750     0.0338     0.1678     2.8533    54.0800     0.1137     0.3429
  171    3.400   1823.67     0.1372     0.0035     0.0804     0.0340     0.1703     2.5292    54.4000     0.1159     0.3880
  172    3.420   1824.76     0.1413     0.0036     0.0791     0.0342     0.1751     2.6243    54.7200     0.1204     0.3851
  173    3.440   1825.78     0.1467     0.0037     0.0766     0.0344     0.1786     2.6206    55.0400     0.1235     0.3351
  174    3.460   1826.84     0.1451     0.0039     0.0790     0.0346     0.1782     2.6532    55.3600     0.1228     0.3607
  175    3.480   1827.91     0.1413     0.0045     0.0828     0.0348     0.1756     3.1742    55.6800     0.1199     0.3921
  176    3.500   1828.93     0.1443     0.0044     0.0845     0.0350     0.1791     3.0216    56.0000     0.1231     0.3890
  177    3.520   1830.01     0.1476     0.0041     0.0887     0.0352     0.1843     2.8085    56.3200     0.1280     0.4066
  178    3.540   1831.03     0.1520     0.0046     0.0926     0.0354     0.1906     3.0430    56.6400     0.1340     0.4213
  179    3.560   1832.07     0.1562     0.0045     0.0943     0.0356     0.1956     2.8613    56.9600     0.1386     0.4201
  180    3.580   1833.12     0.1547     0.0040     0.0929     0.0358     0.1939     2.5520    57.2800     0.1366     0.4209
  181    3.600   1834.14     0.1524     0.0039     0.0943     0.0360     0.1920     2.5402    57.6000     0.1344     0.4331
  182    3.620   1835.21     0.1500     0.0038     0.0904     0.0362     0.1884     2.5348    57.9200     0.1304     0.4228
  183    3.640   1836.26     0.1424     0.0042     0.0895     0.0364     0.1799     2.9048    58.2400     0.1217     0.4356
  184    3.660   1837.32     0.1365     0.0041     0.0887     0.0366     0.1742     3.0117    58.5600     0.1156     0.4592
  185    3.680   1838.37     0.1373     0.0042     0.0898     0.0368     0.1746     3.0354    58.8800     0.1157     0.4491
  186    3.700   1839.42     0.1379     0.0045     0.0868     0.0370     0.1752     3.2887    59.2000     0.1160     0.4470
  187    3.720   1840.44     0.1483     0.0044     0.0867     0.0372     0.1846     3.0293    59.5200     0.1251     0.3938
  188    3.740   1841.50     0.1461     0.0043     0.0897     0.0374     0.1835     2.9414    59.8400     0.1237     0.4178
  189    3.760   1842.56     0.1440     0.0043     0.0864     0.0376     0.1807     2.9883    60.1600     0.1205     0.4125
  190    3.780   1843.62     0.1446     0.0042     0.0832     0.0378     0.1797     2.8896    60.4800     0.1192     0.3825
  191    3.800   1844.68     0.1459     0.0039     0.0817     0.0380     0.1808     2.7470    60.8000     0.1200     0.3757
  192    3.820   1845.69     0.1544     0.0037     0.0810     0.0382     0.1878     2.4785    61.1200     0.1267     0.3273
  193    3.840   1846.74     0.1516     0.0033     0.0855     0.0384     0.1875     2.1132    61.4400     0.1261     0.3731
  194    3.860   1847.80     0.1567     0.0036     0.0872     0.0386     0.1930     2.3325    61.7600     0.1312     0.3645
  195    3.880   1848.87     0.1600     0.0036     0.0839     0.0388     0.1961     2.2898    62.0800     0.1340     0.3525
  196    3.900   1849.85     0.1659     0.0040     0.0810     0.0390     0.2004     2.4252    62.4000     0.1380     0.3125
  197    3.920   1850.92     0.1667     0.0041     0.0848     0.0392     0.2019     2.4425    62.7200     0.1392     0.3205
  198    3.940   1851.95     0.1666     0.0038     0.0831     0.0394     0.2024     2.3140    63.0400     0.1393     0.3286
  199    3.960   1853.02     0.1643     0.0038     0.0864     0.0396     0.1988     2.2838    63.3600     0.1355     0.3141
  200    3.980   1854.07     0.1593     0.0039     0.0896     0.0398     0.1967     2.4435    63.6800     0.1331     0.3709
  201    4.000   1855.13     0.1594     0.0042     0.0931     0.0400     0.1979     2.5939    64.0000     0.1339     0.3857
  202    4.020   1856.12     0.1580     0.0040     0.0959     0.0402     0.1978     2.5023    64.3200     0.1335     0.4101
  203    4.040   1857.18     0.1611     0.0041     0.0988     0.0404     0.2021     2.5569    64.6400     0.1374     0.4155
  204    4.060   1858.22     0.1594     0.0038     0.1008     0.0406     0.2018     2.3422    64.9600     0.1369     0.4412
  205    4.080   1859.27     0.1603     0.0040     0.0973     0.0408     0.2009     2.4597    65.2800     0.1357     0.4132
  206    4.100   1860.28     0.1587     0.0042     0.0997     0.0410     0.2003     2.6663    65.6000     0.1347     0.4319
  207    4.120   1861.40     0.1552     0.0041     0.1010     0.0412     0.1977     2.6125    65.9200     0.1318     0.4549
  208    4.140   1862.43     0.1541     0.0041     0.0997     0.0414     0.1967     2.6043    66.2400     0.1305     0.4601
  209    4.160   1863.48     0.1526     0.0040     0.1004     0.0416     0.1945     2.5966    66.5600     0.1279     0.4548
  210    4.180   1864.51     0.1516     0.0040     0.1025     0.0418     0.1940     2.6361    66.8800     0.1271     0.4639
  211    4.200   1865.56     0.1556     0.0038     0.1054     0.0420     0.1993     2.3961    67.2000     0.1321     0.4702
  212    4.220   1866.62     0.1588     0.0037     0.1065     0.0422     0.2036     2.3406    67.5200     0.1361     0.4744
  213    4.240   1867.68     0.1625     0.0038     0.1059     0.0424     0.2068     2.3502    67.8400     0.1390     0.4539
  214    4.260   1868.72     0.1602     0.0039     0.1060     0.0426     0.2044     2.4279    68.1600     0.1362     0.4593
  215    4.280   1869.81     0.1603     0.0040     0.1036     0.0428     0.2050     2.4912    68.4800     0.1366     0.4659
  216    4.300   1870.83     0.1585     0.0042     0.0955     0.0430     0.2004     2.6542    68.8000     0.1316     0.4313
  217    4.320   1871.90     0.1547     0.0045     0.0945     0.0432     0.1944     2.9074    69.1200     0.1253     0.4090
  218    4.340   1872.97     0.1493     0.0040     0.0974     0.0434     0.1899     2.6258    69.4400     0.1205     0.4431
  219    4.360   1874.04     0.1464     0.0039     0.1012     0.0436     0.1885     2.6302    69.7600     0.1187     0.4762
  220    4.380   1875.04     0.1426     0.0038     0.1016     0.0438     0.1851     2.7117    70.0800     0.1150     0.4991
  221    4.400   1876.10     0.1458     0.0036     0.1012     0.0440     0.1885     2.4843    70.4000     0.1181     0.4879
  222    4.420   1877.16     0.1499     0.0035     0.1035     0.0442     0.1930     2.2806    70.7200     0.1223     0.4775
  223    4.440   1878.21     0.1523     0.0034     0.1059     0.0444     0.1964     2.3090    71.0400     0.1254     0.4841
  224    4.460   1879.27     0.1526     0.0035     0.1069     0.0446     0.1974     2.2680    71.3600     0.1260     0.4923
  225    4.480   1880.33     0.1571     0.0035     0.1069     0.0448     0.2016     2.2679    71.6800     0.1299     0.4715
  226    4.500   1881.39     0.1647     0.0038     0.1115     0.0450     0.2104     2.3443    72.0000     0.1384     0.4608
  227    4.520   1882.43     0.1707     0.0044     0.1147     0.0452     0.2185     2.5913    72.3200     0.1462     0.4693
  228    4.540   1883.46     0.1749     0.0041     0.1112     0.0454     0.2227     2.3717    72.6400     0.1500     0.4549
  229    4.560   1884.52     0.1796     0.0041     0.1063     0.0456     0.2250     2.3305    72.9600     0.1521     0.4110
  230    4.580   1885.61     0.1789     0.0043     0.1073     0.0458     0.2236     2.4530    73.2800     0.1503     0.4039
  231    4.600   1886.67     0.1773     0.0045     0.1116     0.0460     0.2235     2.5144    73.6000     0.1499     0.4278
  232    4.620   1887.73     0.1766     0.0046     0.1167     0.0462     0.2247     2.6333    73.9200     0.1508     0.4534
  233    4.640   1888.79     0.1777     0.0044     0.1156     0.0464     0.2265     2.4747    74.2400     0.1522     0.4573
  234    4.660   1889.84     0.1829     0.0040     0.1178     0.0466     0.2328     2.2046    74.5600     0.1582     0.4564
  235    4.680   1890.88     0.1875     0.0041     0.1150     0.0468     0.2366     2.2153    74.8800     0.1618     0.4332
  236    4.700   1891.97     0.1882     0.0042     0.1177     0.0470     0.2376     2.2406    75.2000     0.1624     0.4343
  237    4.720   1893.00     0.1903     0.0041     0.1130     0.0472     0.2386     2.1519    75.5200     0.1631     0.4151
  238    4.740   1894.08     0.1902     0.0041     0.1124     0.0474     0.2371     2.1826    75.8400     0.1612     0.3984
  239    4.760   1895.12     0.1947     0.0042     0.1138     0.0476     0.2425     2.1952    76.1600     0.1663     0.3981
  240    4.780   1896.17     0.1952     0.0048     0.1124     0.0478     0.2429     2.4110    76.4800     0.1664     0.3945
  241    4.800   1897.25     0.1965     0.0046     0.1102     0.0480     0.2428     2.3438    76.8000     0.1660     0.3743
  242    4.820   1898.31     0.1982     0.0044     0.1089     0.0482     0.2435     2.2190    77.1200     0.1663     0.3579
  243    4.840   1899.36     0.1980     0.0047     0.1092     0.0484     0.2442     2.3885    77.4400     0.1668     0.3694
  244    4.860   1900.35     0.1941     0.0045     0.1052     0.0486     0.2397     2.3199    77.7600     0.1619     0.3694
  245    4.880   1901.41     0.1885     0.0045     0.1034     0.0488     0.2320     2.3182    78.0800     0.1539     0.3562
  246    4.900   1902.44     0.1805     0.0046     0.1021     0.0490     0.2235     2.5256    78.4000     0.1451     0.3678
  247    4.920   1903.47     0.1766     0.0051     0.0998     0.0492     0.2189     2.8472    78.7200     0.1402     0.3666
  248    4.940   1904.50     0.1747     0.0047     0.1008     0.0494     0.2165     2.6638    79.0400     0.1375     0.3647
  249    4.960   1905.56     0.1662     0.0045     0.1005     0.0496     0.2086     2.6981    79.3600     0.1292     0.3967
  250    4.980   1906.62     0.1632     0.0043     0.1027     0.0498     0.2056     2.6308    79.6800     0.1259     0.4056
  251    5.000   1907.67     0.1661     0.0047     0.1089     0.0500     0.2110     2.8785    80.0000     0.1310     0.4340
  252    5.020   1908.68     0.1675     0.0044     0.1128     0.0502     0.2143     2.6375    80.3200     0.1340     0.4579
  253    5.040   1909.74     0.1718     0.0042     0.1156     0.0504     0.2202     2.5313    80.6400     0.1396     0.4640
  254    5.060   1910.74     0.1799     0.0042     0.1174     0.0506     0.2290     2.3720    80.9600     0.1481     0.4484
  255    5.080   1911.83     0.1850     0.0041     0.1183     0.0508     0.2349     2.2338    81.2800     0.1537     0.4437
  256    5.100   1912.83     0.1869     0.0040     0.1192     0.0510     0.2365     2.1430    81.6000     0.1549     0.4329
  257    5.120   1913.89     0.1942     0.0047     0.1190     0.0512     0.2442     2.4563    81.9200     0.1623     0.4180
  258    5.140   1914.94     0.2002     0.0057     0.1135     0.0514     0.2493     2.8896    82.2400     0.1670     0.3914
  259    5.160   1915.98     0.2051     0.0061     0.1089     0.0516     0.2515     2.9998    82.5600     0.1689     0.3476
  260    5.180   1917.03     0.2045     0.0067     0.0995     0.0518     0.2482     3.2795    82.8800     0.1653     0.3154
  261    5.200   1918.08     0.2035     0.0065     0.1019     0.0520     0.2460     3.1801    83.2000     0.1628     0.3029
  262    5.220   1921.09     0.2001     0.0063     0.1037     0.0522     0.2433     3.2968    83.5200     0.1598     0.3170
  263    5.240   1937.11     0.1945     0.0061     0.1063     0.0524     0.2388     3.7326    83.8400     0.1549     0.3431
  264    5.260   1953.13     0.1889     0.0063     0.1108     0.0526     0.2342     3.6175    84.1600     0.1501     0.3692
  265    5.280   1954.34     0.1847     0.0058     0.1150     0.0528     0.2325     3.0861    84.4800     0.1480     0.4116
  266    5.300   1955.44     0.1811     0.0061     0.1191     0.0530     0.2306     3.3225    84.8000     0.1458     0.4454
  267    5.320   1956.49     0.1825     0.0058     0.1215     0.0532     0.2333     3.1743    85.1200     0.1482     0.4573
  268    5.340   1957.53     0.1812     0.0053     0.1195     0.0534     0.2318     2.8989    85.4400     0.1464     0.4577
  269    5.360   1958.59     0.1801     0.0051     0.1216     0.0536     0.2306     2.8378    85.7600     0.1448     0.4597
  270    5.380   1959.59     0.1824     0.0049     0.1258     0.0538     0.2347     2.7236    86.0800     0.1486     0.4759
  271    5.400   1960.65     0.1811     0.0051     0.1280     0.0540     0.2347     2.8281    86.4000     0.1483     0.4959
  272    5.420   1961.71     0.1854     0.0051     0.1263     0.0542     0.2391     2.7685    86.7200     0.1524     0.4825
  273    5.440   1962.77     0.1920     0.0054     0.1237     0.0544     0.2443     2.7997    87.0400     0.1573     0.4455
  274    5.460   1963.80     0.1855     0.0049     0.1234     0.0546     0.2366     2.6274    87.3600     0.1493     0.4498
  275    5.480   1964.82     0.1833     0.0050     0.1234     0.0548     0.2351     2.7233    87.6800     0.1474     0.4644
  276    5.500   1965.74     0.1805     0.0056     0.1268     0.0550     0.2332     3.0215    88.0000     0.1452     0.4867
  277    5.520   1966.74     0.1811     0.0053     0.1287     0.0552     0.2348     2.9155    88.3200     0.1465     0.4955
  278    5.540   1967.79     0.1861     0.0049     0.1282     0.0554     0.2399     2.6369    88.6400     0.1513     0.4817
  279    5.560   1968.83     0.1871     0.0051     0.1271     0.0556     0.2406     2.7330    88.9600     0.1516     0.4738
  280    5.580   1969.88     0.1853     0.0052     0.1281     0.0558     0.2390     2.7644    89.2800     0.1497     0.4803
  281    5.600   1970.97     0.1837     0.0052     0.1305     0.0560     0.2380     2.7983    89.6000     0.1484     0.4946
  282    5.620   1972.04     0.1833     0.0053     0.1268     0.0562     0.2374     2.9407    89.9200     0.1475     0.4929
  283    5.640   1973.10     0.1842     0.0052     0.1272     0.0564     0.2374     2.7945    90.2400     0.1471     0.4763
  284    5.660   1974.14     0.1830     0.0057     0.1271     0.0566     0.2365     3.0973    90.5600     0.1459     0.4847
  285    5.680   1975.19     0.1792     0.0057     0.1298     0.0568     0.2334     3.1683    90.8800     0.1425     0.5064
  286    5.700   1976.23     0.1763     0.0055     0.1293     0.0570     0.2307     3.1148    91.2000     0.1395     0.5188
  287    5.720   1977.32     0.1730     0.0057     0.1308     0.0572     0.2276     3.2850    91.5200     0.1361     0.5360
  288    5.740   1978.32     0.1748     0.0052     0.1291     0.0574     0.2287     3.0186    91.8400     0.1369     0.5182
  289    5.760   1979.20     0.1708     0.0051     0.1303     0.0576     0.2252     2.9451    92.1600     0.1331     0.5404
  290    5.780   1980.07     0.1757     0.0048     0.1323     0.0578     0.2311     2.7574    92.4800     0.1386     0.5348
  291    5.800   1980.91     0.1771     0.0051     0.1335     0.0580     0.2330     2.8804    92.8000     0.1402     0.5362
  292    5.820   1982.01     0.1802     0.0047     0.1347     0.0582     0.2368     2.6390    93.1200     0.1436     0.5326
  293    5.840   1983.07     0.1771     0.0046     0.1356     0.0584     0.2340     2.6181    93.4400     0.1405     0.5486
  294    5.860   1984.12     0.1857     0.0048     0.1325     0.0586     0.2422     2.5813    93.7600     0.1485     0.5113
  295    5.880   1985.12     0.1875     0.0048     0.1306     0.0588     0.2420     2.5458    94.0800     0.1479     0.4797
  296    5.900   1986.21     0.1844     0.0053     0.1324     0.0590     0.2396     2.8650    94.4000     0.1452     0.4985
  297    5.920   1987.27     0.1906     0.0051     0.1336     0.0592     0.2467     2.7005    94.7200     0.1520     0.4896
  298    5.940   1988.32     0.1940     0.0048     0.1332     0.0594     0.2502     2.4737    95.0400     0.1552     0.4794
  299    5.960   1989.37     0.1974     0.0049     0.1324     0.0596     0.2527     2.4762    95.3600     0.1573     0.4580
  300    5.980   1990.44     0.2039     0.0050     0.1346     0.0598     0.2600     2.4392    95.6800     0.1644     0.4500
  301    6.000   1991.46     0.2001     0.0053     0.1369     0.0600     0.2575     2.6459    96.0000     0.1615     0.4753
  302    6.020   1992.55     0.2007     0.0052     0.1352     0.0602     0.2578     2.6237    96.3200     0.1615     0.4700
  303    6.040   1993.59     0.2045     0.0058     0.1333     0.0604     0.2605     2.8810    96.6400     0.1639     0.4461
  304    6.060   1994.64     0.2011     0.0058     0.1341     0.0606     0.2578     2.8037    96.9600     0.1609     0.4628
  305    6.080   1995.66     0.1990     0.0058     0.1317     0.0608     0.2541     2.8959    97.2800     0.1568     0.4490
  306    6.100   1996.76     0.1939     0.0058     0.1338     0.0610     0.2501     2.9369    97.6000     0.1525     0.4784
  307    6.120   1997.79     0.1927     0.0055     0.1346     0.0612     0.2493     2.8706    97.9200     0.1514     0.4854
  308    6.140   1998.87     0.1925     0.0055     0.1380     0.0614     0.2499     2.7961    98.2400     0.1516     0.4961
  309    6.160   1999.93     0.1907     0.0053     0.1416     0.0616     0.2498     2.7541    98.5600     0.1512     0.5222
  310    6.180   2000.93     0.1872     0.0048     0.1441     0.0618     0.2473     2.5671    98.8800     0.1484     0.5478
  311    6.200   2002.00     0.1893     0.0049     0.1439     0.0620     0.2500     2.6041    99.2000     0.1508     0.5467
  312    6.220   2003.02     0.1921     0.0049     0.1458     0.0622     0.2532     2.5826    99.5200     0.1537     0.5424
  313    6.240   2004.08     0.1919     0.0049     0.1451     0.0624     0.2527     2.5132    99.8400     0.1529     0.5397
  314    6.260   2005.11     0.1917     0.0044     0.1501     0.0626     0.2540     2.2798   100.1600     0.1538     0.5578
  315    6.280   2006.17     0.1920     0.0048     0.1547     0.0628     0.2563     2.5574   100.4800     0.1558     0.5798
  316    6.300   2007.25     0.1991     0.0049     0.1575     0.0630     0.2647     2.4753   100.8000     0.1639     0.5694
  317    6.320   2008.30     0.2070     0.0051     0.1580     0.0632     0.2733     2.4915   101.1200     0.1722     0.5508
  318    6.340   2009.34     0.2150     0.0056     0.1586     0.0634     0.2814     2.6436   101.4400     0.1800     0.5265
  319    6.360   2010.35     0.2150     0.0058     0.1504     0.0636     0.2787     2.7253   101.7600     0.1770     0.4985
  320    6.380   2011.40     0.2180     0.0059     0.1475     0.0638     0.2803     2.7142   102.0800     0.1782     0.4739
  321    6.400   2012.47     0.2181     0.0062     0.1418     0.0640     0.2783     2.8501   102.4000     0.1759     0.4513
  322    6.420   2013.55     0.2163     0.0063     0.1429     0.0642     0.2762     2.8948   102.7200     0.1734     0.4510
  323    6.440   2014.58     0.2150     0.0062     0.1463     0.0644     0.2756     2.8705   103.0400     0.1726     0.4636
  324    6.460   2015.60     0.2161     0.0060     0.1506     0.0646     0.2791     2.7805   103.3600     0.1758     0.4860
  325    6.480   2016.65     0.2152     0.0062     0.1500     0.0648     0.2782     2.8613   103.6800     0.1745     0.4888
  326    6.500   2017.70     0.2117     0.0060     0.1506     0.0650     0.2752     2.8262   104.0000     0.1712     0.5027
  327    6.520   2018.72     0.2072     0.0059     0.1495     0.0652     0.2697     2.8367   104.3200     0.1654     0.5056
  328    6.540   2019.81     0.2010     0.0061     0.1513     0.0654     0.2650     2.9838   104.6400     0.1604     0.5425
  329    6.560   2020.84     0.1985     0.0065     0.1562     0.0656     0.2633     3.2005   104.9600     0.1583     0.5596
  330    6.580   2021.88     0.1969     0.0068     0.1604     0.0658     0.2638     3.4171   105.2800     0.1585     0.5892
  331    6.600   2022.92     0.1974     0.0072     0.1583     0.0660     0.2652     3.6337   105.6000     0.1596     0.5972
  332    6.620   2023.98     0.2002     0.0075     0.1602     0.0662     0.2671     3.7742   105.9200     0.1612     0.5769
  333    6.640   2025.01     0.2007     0.0068     0.1621     0.0664     0.2686     3.4386   106.2400     0.1623     0.5869
  334    6.660   2034.52     0.2040     0.0068     0.1618     0.0666     0.2720     3.3425   106.5600     0.1655     0.5761
  335    6.680   2047.07     0.2050     0.0064     0.1615     0.0668     0.2729     3.1621   106.8800     0.1660     0.5710
  336    6.700   2059.63     0.2060     0.0064     0.1611     0.0670     0.2737     3.1528   107.2000     0.1665     0.5659
  337    6.720   2070.39     0.2063     0.0064     0.1607     0.0672     0.2739     3.1111   107.5200     0.1664     0.5630
  338    6.740   2071.07     0.2014     0.0061     0.1627     0.0674     0.2694     3.0172   107.8400     0.1615     0.5840
  339    6.760   2071.70     0.1961     0.0058     0.1632     0.0676     0.2645     2.9179   108.1600     0.1563     0.6082
  340    6.780   2072.35     0.1940     0.0062     0.1660     0.0678     0.2633     3.1731   108.4800     0.1549     0.6291
  341    6.800   2073.00     0.1900     0.0061     0.1697     0.0680     0.2606     3.1812   108.8000     0.1518     0.6602
  342    6.820   2073.64     0.1922     0.0059     0.1735     0.0682     0.2645     3.1181   109.1200     0.1554     0.6688
  343    6.840   2074.30     0.1979     0.0059     0.1787     0.0684     0.2724     3.0128   109.4400     0.1629     0.6685
  344    6.860   2074.94     0.2008     0.0060     0.1823     0.0686     0.2769     3.0025   109.7600     0.1672     0.6738
  345    6.880   2075.59     0.2045     0.0062     0.1785     0.0688     0.2802     2.9922   110.0800     0.1701     0.6555
  346    6.900   2076.22     0.2114     0.0063     0.1789     0.0690     0.2863     2.9819   110.4000     0.1759     0.6217
  347    6.920   2076.88     0.2155     0.0063     0.1800     0.0692     0.2911     2.9384   110.7200     0.1804     0.6147
  348    6.940   2077.54     0.2213     0.0065     0.1797     0.0694     0.2969     2.9615   111.0400     0.1858     0.5946
  349    6.960   2096.68     0.2283     0.0067     0.1738     0.0696     0.3022     3.0045   111.3600     0.1908     0.5582
  350    6.980   2125.42     0.2352     0.0068     0.1679     0.0698     0.3066     3.0427   111.6800     0.1949     0.5160
  351    7.000   2154.17     0.2421     0.0069     0.1620     0.0700     0.3110     3.0632   112.0000     0.1990     0.4738
  352    7.020   2169.84     0.2457     0.0073     0.1642     0.0702     0.3142     2.9862   112.3200     0.2019     0.4597
  353    7.040   2170.87     0.2463     0.0075     0.1662     0.0704     0.3159     3.0344   112.6400     0.2032     0.4689
  354    7.060   2171.92     0.2429     0.0072     0.1659     0.0706     0.3125     2.9742   112.9600     0.1996     0.4768
  355    7.080   2173.01     0.2381     0.0070     0.1700     0.0708     0.3086     2.9220   113.2800     0.1953     0.4965
  356    7.100   2174.07     0.2314     0.0068     0.1751     0.0710     0.3044     2.9374   113.6000     0.1908     0.5393
  357    7.120   2175.12     0.2312     0.0068     0.1792     0.0712     0.3057     2.9313   113.9200     0.1918     0.5540
  358    7.140   2176.15     0.2323     0.0066     0.1829     0.0714     0.3088     2.8536   114.2400     0.1946     0.5692
  359    7.160   2178.67     0.2399     0.0064     0.1803     0.0716     0.3161     2.7035   114.5600     0.2015     0.5457
  360    7.180   2183.31     0.2455     0.0071     0.1768     0.0718     0.3203     3.0023   114.8800     0.2054     0.5181
  361    7.200   2187.95     0.2511     0.0070     0.1740     0.0720     0.3244     2.9162   115.2000     0.2092     0.4905
  362    7.220   2189.67     0.2452     0.0073     0.1759     0.0722     0.3186     2.9909   115.5200     0.2031     0.5054
  363    7.240   2190.76     0.2446     0.0070     0.1780     0.0724     0.3190     2.8615   115.8400     0.2031     0.5155
  364    7.260   2191.85     0.2512     0.0072     0.1794     0.0726     0.3263     2.8492   116.1600     0.2102     0.5057
  365    7.280   2192.93     0.2519     0.0070     0.1793     0.0728     0.3272     2.7394   116.4800     0.2107     0.5053
  366    7.300   2193.93     0.2538     0.0074     0.1781     0.0730     0.3262     2.9013   116.8000     0.2094     0.4748
  367    7.320   2194.97     0.2471     0.0071     0.1846     0.0732     0.3239     2.8836   117.1200     0.2068     0.5306
  368    7.340   2195.98     0.2550     0.0072     0.1844     0.0734     0.3323     2.8191   117.4400     0.2148     0.5146
  369    7.360   2197.09     0.2508     0.0069     0.1880     0.0736     0.3294     2.7283   117.7600     0.2116     0.5361
  370    7.380   2198.19     0.2561     0.0068     0.1873     0.0738     0.3350     2.6696   118.0800     0.2169     0.5261
  371    7.400   2199.24     0.2534     0.0069     0.1839     0.0740     0.3311     2.6888   118.4000     0.2127     0.5221
  372    7.420   2200.28     0.2590     0.0070     0.1791     0.0742     0.3356     2.6774   118.7200     0.2169     0.4984
  373    7.440   2201.36     0.2641     0.0070     0.1782     0.0744     0.3381     2.6644   119.0400     0.2190     0.4643
  374    7.460   2202.35     0.2628     0.0071     0.1812     0.0746     0.3389     2.7111   119.3600     0.2195     0.4852
  375    7.480   2203.38     0.2612     0.0073     0.1855     0.0748     0.3387     2.7782   119.6800     0.2190     0.5005
  376    7.500   2204.45     0.2624     0.0072     0.1884     0.0750     0.3410     2.7353   120.0000     0.2210     0.5078
  377    7.520   2205.52     0.2620     0.0074     0.1890     0.0752     0.3414     2.8102   120.3200     0.2211     0.5155
  378    7.540   2206.60     0.2627     0.0077     0.1834     0.0754     0.3405     2.9462   120.6400     0.2199     0.4991
  379    7.560   2207.66     0.2561     0.0073     0.1819     0.0756     0.3325     2.8188   120.9600     0.2116     0.5025
  380    7.580   2208.69     0.2442     0.0074     0.1828     0.0758     0.3210     2.9687   121.2800     0.1998     0.5360
  381    7.600   2209.75     0.2405     0.0072     0.1850     0.0760     0.3181     2.9826   121.6000     0.1965     0.5535
  382    7.620   2210.81     0.2337     0.0070     0.1869     0.0762     0.3118     2.9623   121.9200     0.1899     0.5784
  383    7.640   2211.81     0.2293     0.0066     0.1926     0.0764     0.3097     2.8966   122.2400     0.1874     0.6128
  384    7.660   2212.86     0.2348     0.0068     0.1958     0.0766     0.3166     2.9414   122.5600     0.1940     0.6087
  385    7.680   2213.94     0.2358     0.0066     0.1946     0.0768     0.3180     2.8067   122.8800     0.1951     0.6091
  386    7.700   2215.01     0.2366     0.0070     0.1908     0.0770     0.3171     2.9748   123.2000     0.1939     0.5919
  387    7.720   2216.06     0.2375     0.0070     0.1872     0.0772     0.3169     2.9540   123.5200     0.1933     0.5776
  388    7.740   2217.10     0.2368     0.0070     0.1837     0.0774     0.3143     2.9716   123.8400     0.1905     0.5634
  389    7.760   2218.16     0.2356     0.0069     0.1837     0.0776     0.3126     2.9095   124.1600     0.1885     0.5613
  390    7.780   2219.24     0.2342     0.0075     0.1836     0.0778     0.3115     3.1792   124.4800     0.1870     0.5673
  391    7.800   2220.30     0.2333     0.0075     0.1857     0.0780     0.3109     3.2021   124.8000     0.1861     0.5738
  392    7.820   2221.36     0.2319     0.0074     0.1894     0.0782     0.3105     3.1617   125.1200     0.1854     0.5884
  393    7.840   2222.38     0.2302     0.0069     0.1916     0.0784     0.3104     3.0122   125.4400     0.1850     0.6089
  394    7.860   2223.42     0.2293     0.0067     0.1912     0.0786     0.3095     2.9396   125.7600     0.1837     0.6106
  395    7.880   2224.48     0.2329     0.0069     0.1938     0.0788     0.3138     2.9872   126.0800     0.1877     0.6070
  396    7.900   2225.58     0.2449     0.0068     0.2016     0.0790     0.3285     2.8582   126.4000     0.2021     0.5936
  397    7.920   2226.63     0.2665     0.0068     0.2074     0.0792     0.3528     2.5988   126.7200     0.2261     0.5584
  398    7.940   2227.70     0.2764     0.0068     0.2038     0.0794     0.3635     2.4807   127.0400     0.2364     0.5408
  399    7.960   2228.79     0.2892     0.0066     0.2038     0.0796     0.3738     2.2843   127.3600     0.2465     0.4944
  400    7.980   2229.79     0.2817     0.0066     0.2041     0.0798     0.3684     2.3251   127.6800     0.2407     0.5260
  401    8.000   2230.80     0.2806     0.0067     0.2076     0.0800     0.3669     2.4041   128.0000     0.2389     0.5250
  402    8.020   2231.86     0.2773     0.0064     0.2132     0.0802     0.3665     2.3147   128.3200     0.2382     0.5547
  403    8.040   2232.93     0.2721     0.0067     0.2143     0.0804     0.3622     2.4539   128.6400     0.2336     0.5740
  404    8.060   2234.00     0.2683     0.0064     0.2078     0.0806     0.3565     2.3913   128.9600     0.2276     0.5690
  405    8.080   2235.09     0.2673     0.0061     0.2034     0.0808     0.3530     2.2911   129.2800     0.2238     0.5514
  406    8.100   2236.14     0.2620     0.0062     0.2033     0.0810     0.3474     2.3251   129.6000     0.2178     0.5619
  407    8.120   2237.17     0.2587     0.0060     0.1969     0.0812     0.3426     2.3455   129.9200     0.2127     0.5578
  408    8.140   2238.23     0.2506     0.0057     0.1936     0.0814     0.3315     2.2611   130.2400     0.2013     0.5525
  409    8.160   2239.27     0.2604     0.0061     0.1892     0.0816     0.3409     2.3882   130.5600     0.2103     0.5230
  410    8.180   2240.33     0.2799     0.0060     0.1893     0.0818     0.3590     2.1892   130.8800     0.2282     0.4675
  411    8.200   2241.40     0.2914     0.0064     0.1946     0.0820     0.3728     2.2167   131.2000     0.2416     0.4628
  412    8.220   2242.49     0.2984     0.0066     0.1884     0.0822     0.3786     2.2121   131.5200     0.2471     0.4402
  413    8.240   2243.55     0.2875     0.0064     0.1851     0.0824     0.3655     2.2079   131.8400     0.2337     0.4427
  414    8.260   2244.60     0.2684     0.0064     0.1901     0.0826     0.3474     2.3652   132.1600     0.2152     0.4897
  415    8.280   2245.61     0.2503     0.0072     0.1875     0.0828     0.3303     2.8077   132.4800     0.1978     0.5440
  416    8.300   2246.72     0.2409     0.0064     0.1888     0.0830     0.3192     2.6667   132.8000     0.1864     0.5555
  417    8.320   2247.81     0.2394     0.0054     0.1926     0.0832     0.3197     2.2414   133.1200     0.1866     0.5786
  418    8.340   2248.82     0.2309     0.0056     0.1941     0.0834     0.3113     2.3881   133.4400     0.1779     0.6077
  419    8.360   2249.88     0.2360     0.0052     0.2019     0.0836     0.3200     2.2093   133.7600     0.1862     0.6256
  420    8.380   2250.96     0.2624     0.0055     0.2040     0.0838     0.3482     2.1554   134.0800     0.2141     0.5636
  421    8.400   2252.04     0.2959     0.0053     0.1998     0.0840     0.3807     1.8555   134.4000     0.2463     0.4796
  422    8.420   2253.05     0.2928     0.0057     0.1828     0.0842     0.3719     2.0452   134.7200     0.2371     0.4382
  423    8.440   2254.07     0.2731     0.0060     0.1690     0.0844     0.3454     2.2912   135.0400     0.2104     0.4171
  424    8.460   2255.18     0.2489     0.0062     0.1654     0.0846     0.3188     2.4936   135.3600     0.1835     0.4459
  425    8.480   2256.22     0.2233     0.0057     0.1748     0.0848     0.2952     2.5456   135.6800     0.1595     0.5424
  426    8.500   2257.32     0.2128     0.0038     0.1820     0.0850     0.2888     1.7801   136.0000     0.1528     0.6286
  427    8.520   2260.40     0.2320     0.0002     0.1925     0.0852     0.3111     0.1083   136.3200     0.1748     0.5984
  428    8.540   2265.61     0.2622    -0.0008     0.2045     0.0854     0.3464    -0.3906   136.6400     0.2097     0.5589
  429    8.560   2270.81     0.2924    -0.0006     0.2141     0.0856     0.3816    -0.2512   136.9600     0.2447     0.5193
  430    8.580   2272.22     0.3602    -0.0003     0.2127     0.0858     0.4502    -0.0845   137.2800     0.3129     0.4124
  431    8.600   2273.30     0.8899     0.0047     0.2111     0.0860     0.9799     0.6055   137.6000     0.8423     0.1558
  432    8.620   2274.41     3.4069     0.0134     0.1140     0.0862     3.4765     0.4266   137.9200     3.3386     0.0259
  433    8.640   2275.52     5.9771     0.0238     0.0416     0.0864     6.0010     0.4093   138.2400     5.8628    -0.0049
  434    8.660   2276.61     7.3960     0.0347     0.0487     0.0866     7.4144     0.4735   138.5600     7.2758    -0.0059
  435    8.680   2277.72     8.5964     0.0447     0.0577     0.0868     8.6187     0.5247   138.8800     8.4798    -0.0040
  436    8.700   2278.78    10.0832     0.0499     0.0696     0.0870    10.1123     0.5073   139.2000     9.9731    -0.0018
  437    8.720   2279.85    11.4281     0.0533     0.0763     0.0872    11.4589     0.4681   139.5200    11.3194    -0.0012
  438    8.740   2280.99    12.3501     0.0587     0.0791     0.0874    12.3836     0.4896   139.8400    12.2438    -0.0006
  439    8.760   2282.12    12.8442     0.0676     0.0780     0.0876    12.8760     0.5291   140.1600    12.7358    -0.0009
  440    8.780   2283.25    13.1444     0.0790     0.0850     0.0878    13.1798     0.6076   140.4800    13.0393    -0.0003
  441    8.800   2284.31    13.5756     0.0847     0.0866     0.0880    13.6116     0.6325   140.8000    13.4708    -0.0002
  442    8.820   2285.42    14.2052     0.0885     0.0861     0.0882    14.2414     0.6335   141.1200    14.1003    -0.0001
  443    8.840   2286.52    15.1952     0.0898     0.0844     0.0884    15.2308     0.6055   141.4400    15.0894    -0.0002
  444    8.860   2287.69    16.1612     0.0878     0.0800     0.0886    16.1963     0.5567   141.7600    16.0546    -0.0003
  445    8.880   2288.84    17.2236     0.0893     0.0653     0.0888    17.2532     0.5328   142.0800    17.1111    -0.0011
  446    8.900   2289.96    18.2193     0.0904     0.0546     0.0890    18.2440     0.5056   142.4000    18.1016    -0.0017
  447    8.920   2291.11    18.9493     0.0874     0.0535     0.0892    18.9709     0.4666   142.7200    18.8282    -0.0020
  448    8.940   2292.18    19.4317     0.0851     0.0616     0.0894    19.4555     0.4421   143.0400    19.3124    -0.0017
  449    8.960   2293.30    20.1502     0.0850     0.0661     0.0896    20.1771     0.4278   143.3600    20.0337    -0.0013
  450    8.980   2294.47    20.9323     0.0851     0.0600     0.0898    20.9578     0.4121   143.6800    20.8141    -0.0014
  451    9.000   2295.63    21.7422     0.0868     0.0186     0.0900    21.7576     0.4055   144.0000    21.6136    -0.0025
  452    9.020   2296.75    22.4197     0.0886    -0.0106     0.0902    22.4160     0.3992   144.3200    22.2716    -0.0044
  453    9.040   2297.86    22.8717     0.0914     0.0023     0.0904    22.8711     0.4026   144.6400    22.7264    -0.0040
  454    9.060   2298.95    23.0607     0.0925     0.0210     0.0906    23.0667     0.4025   144.9600    22.9217    -0.0033
  455    9.080   2300.05    23.2851     0.0922     0.0345     0.0908    23.2982     0.3972   145.2800    23.1530    -0.0026
  456    9.100   2301.21    23.3452     0.0914     0.0403     0.0910    23.3618     0.3916   145.6000    23.2162    -0.0022
  457    9.120   2302.33    23.2526     0.0906     0.0356     0.0912    23.2670     0.3894   145.9200    23.1211    -0.0025
  458    9.140   2316.33    22.8059     0.0883     0.0382     0.0914    22.8206     0.4043   146.2400    22.6743    -0.0025
  459    9.160   2347.48    22.2388     0.0872     0.0431     0.0916    22.2575     0.3994   146.5600    22.1110    -0.0021
  460    9.180   2352.13    21.8148     0.0857     0.0335     0.0918    21.8301     0.3883   146.8800    21.6832    -0.0026
  461    9.200   2353.08    21.2512     0.0846     0.0289     0.0920    21.2639     0.3974   147.2000    21.1167    -0.0029
  462    9.220   2354.01    20.8141     0.0817     0.0250     0.0922    20.8246     0.3916   147.5200    20.6771    -0.0033
  463    9.240   2354.92    20.2124     0.0826     0.0304     0.0924    20.2253     0.4066   147.8400    20.0775    -0.0031
  464    9.260   2355.84    19.6048     0.0852     0.0188     0.0926    19.6142     0.4329   148.1600    19.4660    -0.0036
  465    9.280   2356.78    19.0964     0.0806     0.0210     0.0928    19.1047     0.4217   148.4800    18.9562    -0.0039
  466    9.300   2357.66    18.4881     0.0732     0.0241     0.0930    18.4984     0.3905   148.8000    18.3496    -0.0037
  467    9.320   2358.57    17.8312     0.0711     0.0236     0.0932    17.8404     0.3986   149.1200    17.6913    -0.0040
  468    9.340   2359.45    17.3889     0.0715     0.0298     0.0934    17.4005     0.4066   149.4400    17.2510    -0.0038
  469    9.360   2360.40    17.0755     0.0715     0.0324     0.0936    17.0887     0.4158   149.7600    16.9389    -0.0037
  470    9.380   2361.35    16.8083     0.0722     0.0323     0.0938    16.8217     0.4271   150.0800    16.6716    -0.0037
  471    9.400   2362.28    16.8104     0.0725     0.0365     0.0940    16.8262     0.4326   150.4000    16.6758    -0.0034
  472    9.420   2363.22    16.9715     0.0765     0.0364     0.0942    16.9884     0.4519   150.7200    16.8377    -0.0032
  473    9.440   2364.15    17.2398     0.0851     0.0100     0.0944    17.2471     0.4951   151.0400    17.0960    -0.0045
  474    9.460   2365.10    17.4328     0.0974    -0.0026     0.0946    17.4339     0.5601   151.3600    17.2825    -0.0053
  475    9.480   2366.09    17.4877     0.1061    -0.0052     0.0948    17.4835     0.6065   151.6800    17.3318    -0.0061
  476    9.500   2367.04    17.3551     0.1117     0.0025     0.0950    17.3574     0.6424   152.0000    17.2054    -0.0052
  477    9.520   2368.01    17.1331     0.1152    -0.0074     0.0952    17.1297     0.6710   152.3200    16.9774    -0.0061
  478    9.540   2369.02    16.6931     0.1182     0.0097     0.0954    16.6943     0.7033   152.6400    16.5417    -0.0056
  479    9.560   2369.97    16.2329     0.1198     0.0203     0.0956    16.2406     0.7286   152.9600    16.0876    -0.0048
  480    9.580   2371.00    15.8520     0.1180     0.0193     0.0958    15.8601     0.7364   153.2800    15.7068    -0.0049
  481    9.600   2372.01    15.5366     0.1137     0.0137     0.0960    15.5428     0.7255   153.6000    15.3892    -0.0053
  482    9.620   2373.04    15.2913     0.1110     0.0234     0.0962    15.2985     0.7216   153.9200    15.1446    -0.0052
  483    9.640   2374.09    15.1866     0.1112     0.0317     0.0964    15.1987     0.7311   154.2400    15.0445    -0.0045
  484    9.660   2375.13    15.1859     0.1149     0.0391     0.0966    15.2017     0.7565   154.5600    15.0472    -0.0039
  485    9.680   2376.11    15.2380     0.1161     0.0421     0.0968    15.2548     0.7628   154.8800    15.1000    -0.0038
  486    9.700   2377.16    15.1966     0.1141     0.0457     0.0970    15.2154     0.7507   155.2000    15.0602    -0.0035
  487    9.720   2378.15    15.1505     0.1125     0.0476     0.0972    15.1704     0.7424   155.5200    15.0148    -0.0033
  488    9.740   2379.21    15.0871     0.1104     0.0534     0.0974    15.1090     0.7317   155.8400    14.9532    -0.0030
  489    9.760   2380.23    14.9899     0.1114     0.0574     0.0976    15.0132     0.7431   156.1600    14.8570    -0.0028
  490    9.780   2381.24    14.8559     0.1119     0.0584     0.0978    14.8815     0.7527   156.4800    14.7250    -0.0025
  491    9.800   2382.22    14.8806     0.1111     0.0575     0.0980    14.9040     0.7469   156.8000    14.7472    -0.0029
  492    9.820   2383.23    14.9945     0.1090     0.0536     0.0982    15.0179     0.7279   157.1200    14.8607    -0.0029
  493    9.840   2384.25    15.1634     0.1091     0.0481     0.0984    15.1836     0.7206   157.4400    15.0262    -0.0034
  494    9.860   2385.29    15.1901     0.1102     0.0418     0.0986    15.2083     0.7253   157.7600    15.0506    -0.0037
  495    9.880   2386.31    15.1657     0.1117     0.0341     0.0988    15.1814     0.7359   158.0800    15.0233    -0.0041
  496    9.900   2387.27    15.0971     0.1122     0.0263     0.0990    15.1084     0.7426   158.4000    14.9500    -0.0048
  497    9.920   2388.25    14.8131     0.1131     0.0229     0.0992    14.8224     0.7629   158.7200    14.6637    -0.0052
  498    9.940   2389.22    14.4526     0.1110     0.0348     0.0994    14.4660     0.7592   159.0400    14.3069    -0.0047
  499    9.960   2390.22    14.0798     0.1080     0.0358     0.0996    14.0940     0.7582   159.3600    13.9346    -0.0047
  500    9.980   2391.23    13.7706     0.1066     0.0446     0.0998    13.7886     0.7672   159.6800    13.6289    -0.0042
  501   10.000   2392.22    13.6399     0.1025     0.0490     0.1000    13.6590     0.7497   160.0000    13.4990    -0.0040
  502   10.020   2393.29    13.6634     0.0933     0.0508     0.1002    13.6839     0.6852   160.3200    13.5236    -0.0038
  503   10.040   2394.33    13.8047     0.0860     0.0542     0.1004    13.8265     0.6255   160.6400    13.6659    -0.0035
  504   10.060   2395.32    13.9423     0.0815     0.0532     0.1006    13.9657     0.5867   160.9600    13.8048    -0.0032
  505   10.080   2396.35    14.0467     0.0767     0.0198     0.1008    14.0647     0.5475   161.2800    13.9034    -0.0042
  506   10.100   2397.40    14.0687     0.0727    -0.0272     0.1010    14.0647     0.5163   161.6000    13.9031    -0.0080
  507   10.120   2398.42    14.1144     0.0718    -0.0363     0.1012    14.0998     0.5096   161.9200    13.9379    -0.0098
  508   10.140   2399.48    14.4492     0.0775    -0.0280     0.1014    14.4370     0.5403   162.2400    14.2748    -0.0091
  509   10.160   2400.48    14.7515     0.0853    -0.0084     0.1016    14.7446     0.5820   162.5600    14.5820    -0.0081
  510   10.180   2401.49    14.6757     0.0964    -0.0097     0.1018    14.6730     0.6549   162.8800    14.5101    -0.0075
  511   10.200   2402.54    14.3298     0.1052    -0.0102     0.1020    14.3248     0.7254   163.2000    14.1616    -0.0080
  512   10.220   2403.55    13.8367     0.1064    -0.0063     0.1022    13.8331     0.7582   163.5200    13.6696    -0.0081
  513   10.240   2404.56    13.4518     0.1065     0.0042     0.1024    13.4522     0.7817   163.8400    13.2884    -0.0076
  514   10.260   2405.62    13.1455     0.1023     0.0138     0.1026    13.1499     0.7718   164.1600    12.9857    -0.0071
  515   10.280   2406.66    12.9788     0.1029     0.0226     0.1028    12.9873     0.7906   164.4800    12.8229    -0.0064
  516   10.300   2407.74    12.8429     0.1047     0.0252     0.1030    12.8532     0.8129   164.8000    12.6884    -0.0062
  517   10.320   2408.75    12.7678     0.0978     0.0318     0.1032    12.7799     0.7651   165.1200    12.6148    -0.0059
  518   10.340   2409.75    12.7947     0.0837     0.0398     0.1034    12.8113     0.6560   165.4400    12.6458    -0.0051
  519   10.360   2410.80    13.2409     0.0758     0.0187     0.1036    13.2514     0.5827   165.7600    13.0856    -0.0060
  520   10.380   2411.81    14.1802     0.0709     0.0045     0.1038    14.1855     0.5171   166.0800    14.0194    -0.0065
  521   10.400   2412.87    15.4177     0.0678     0.0033     0.1040    15.4176     0.4425   166.4000    15.2512    -0.0068
  522   10.420   2413.97    16.5408     0.0743    -0.0372     0.1042    16.5300     0.4538   166.7200    16.3633    -0.0079
  523   10.440   2415.01    17.3206     0.0838    -0.0392     0.1044    17.3044     0.4864   167.0400    17.1374    -0.0083
  524   10.460   2416.01    17.8267     0.0907    -0.0460     0.1046    17.8092     0.5130   167.3600    17.6419    -0.0083
  525   10.480   2416.97    18.1421     0.0963    -0.0389     0.1048    18.1244     0.5321   167.6800    17.9567    -0.0082
  526   10.500   2417.94    18.1997     0.1011    -0.0309     0.1050    18.1855     0.5548   168.0000    18.0175    -0.0077
  527   10.520   2418.90    18.0732     0.1117    -0.0116     0.1052    18.0661     0.6169   168.3200    17.8977    -0.0068
  528   10.540   2419.93    17.7796     0.1231     0.0005     0.1054    17.7780     0.6899   168.6400    17.6093    -0.0062
  529   10.560   2420.90    17.5667     0.1219     0.0144     0.1056    17.5718     0.6926   168.9600    17.4029    -0.0054
  530   10.580   2421.85    17.6213     0.1175     0.0302     0.1058    17.6304     0.6686   169.2800    17.4611    -0.0048
  531   10.600   2422.85    18.5144     0.1105     0.0470     0.1060    18.5327     0.6075   169.6000    18.3631    -0.0034
  532   10.620   2423.83    20.4395     0.1076     0.0726     0.1062    20.4664     0.5434   169.9200    20.2965    -0.0021
  533   10.640   2424.81    22.6276     0.1112     0.0791     0.1064    22.6643     0.5057   170.2400    22.4941    -0.0008
  534   10.660   2425.80    24.5545     0.1147    -0.0372     0.1066    24.5614     0.4776   170.5600    24.3909    -0.0037
  535   10.680   2426.76    25.8826     0.1076    -0.0738     0.1068    25.8480     0.4210   170.8800    25.6771    -0.0074
  536   10.700   2427.71    26.9136     0.0967    -0.0616     0.1070    26.8887     0.3623   171.2000    26.7175    -0.0062
  537   10.720   2428.67    27.2938     0.0917    -0.0485     0.1072    27.2736     0.3370   171.5200    27.1021    -0.0057
  538   10.740   2429.67    27.3582     0.0944    -0.0679     0.1074    27.3334     0.3458   171.8400    27.1616    -0.0061
  539   10.760   2430.65    27.8735     0.0975    -0.0940     0.1076    27.8388     0.3514   172.1600    27.6666    -0.0069
  540   10.780   2431.64    28.4802     0.0948    -0.1502     0.1078    28.4240     0.3339   172.4800    28.2515    -0.0086
  541   10.800   2432.60    29.0003     0.1003    -0.2052     0.1080    28.9228     0.3470   172.8000    28.7500    -0.0102
  542   10.820   2433.55    29.7707     0.0992    -0.2408     0.1082    29.6742     0.3341   173.1200    29.5011    -0.0115
  543   10.840   2434.56    31.0550     0.1030    -0.2548     0.1084    30.9483     0.3338   173.4400    30.7748    -0.0118
  544   10.860   2435.57    32.5648     0.1027    -0.2346     0.1086    32.4636     0.3177   173.7600    32.2899    -0.0108
  545   10.880   2436.60    34.2632     0.1029    -0.2231     0.1088    34.1686     0.3034   174.0800    33.9945    -0.0098
  546   10.900   2437.60    35.3916     0.0992    -0.2498     0.1090    35.2900     0.2819   174.4000    35.1156    -0.0100
  547   10.920   2438.57    36.0844     0.0800    -0.1967     0.1092    35.9884     0.2232   174.7200    35.8137    -0.0094
  548   10.940   2439.57    36.5646     0.0721    -0.0863     0.1094    36.5157     0.1977   175.0400    36.3407    -0.0062
  549   10.960   2440.53    36.3272     0.0838    -0.1446     0.1096    36.2767     0.2298   175.3600    36.1013    -0.0064
  550   10.980   2441.48    35.8450     0.1001    -0.1738     0.1098    35.7725     0.2773   175.6800    35.5968    -0.0079
  551   11.000   2442.43    34.3670     0.1116    -0.2140     0.1100    34.2875     0.3206   176.0000    34.1115    -0.0088
  552   11.020   2443.39    32.2703     0.1188    -0.2384     0.1102    32.1739     0.3673   176.3200    31.9976    -0.0106
  553   11.040   2444.34    30.3846     0.1260    -0.2382     0.1104    30.2837     0.4140   176.6400    30.1071    -0.0116
  554   11.060   2445.25    28.8356     0.1287    -0.2239     0.1106    28.7391     0.4363   176.9600    28.5622    -0.0119
  555   11.080   2446.19    27.6237     0.1214    -0.1857     0.1108    27.5377     0.4304   177.2800    27.3605    -0.0115
  556   11.100   2447.17    26.9760     0.1185    -0.1270     0.1110    26.9136     0.4392   177.6000    26.7360    -0.0097
  557   11.120   2458.18    26.9558     0.1109    -0.0557     0.1112    26.9221     0.4121   177.9200    26.7442    -0.0072
  558   11.140   2470.89    27.0105     0.1036     0.0157     0.1114    27.0067     0.3848   178.2400    26.8285    -0.0045
  559   11.160   2483.34    27.0751     0.1013     0.0640     0.1116    27.1008     0.3753   178.5600    26.9222    -0.0019
  560   11.180   2484.31    27.4216     0.1019     0.0723     0.1118    27.4509     0.3726   178.8800    27.2721    -0.0015
  561   11.200   2485.30    27.4379     0.1015     0.0717     0.1120    27.4698     0.3695   179.2000    27.2906    -0.0013
  562   11.220   2486.22    27.2908     0.0966     0.0711     0.1122    27.3183     0.3523   179.5200    27.1388    -0.0017
  563   11.240   2487.18    26.9361     0.0908     0.0856     0.1124    26.9710     0.3354   179.8400    26.7912    -0.0011
  564   11.260   2488.17    26.5427     0.0898     0.1027     0.1126    26.5845     0.3365   180.1600    26.4043    -0.0005
  565   11.280   2489.14    26.3109     0.0924     0.0940     0.1128    26.3510     0.3496   180.4800    26.1705    -0.0007
  566   11.300   2490.11    25.9615     0.0947     0.0920     0.1130    26.0009     0.3625   180.8000    25.8201    -0.0007
  567   11.320   2491.05    25.1319     0.0922     0.0939     0.1132    25.1700     0.3610   181.1200    24.9889    -0.0009
  568   11.340   2491.95    24.2587     0.0910     0.0950     0.1134    24.2972     0.3712   181.4400    24.1157    -0.0009
  569   11.360   2492.89    23.8255     0.0924     0.0911     0.1136    23.8678     0.3855   181.7600    23.6860    -0.0005
  570   11.380   2493.87    23.6201     0.0876     0.0977     0.1138    23.6606     0.3694   182.0800    23.4786    -0.0007
  571   11.400   2494.83    23.3368     0.0821     0.0983     0.1140    23.3823     0.3500   182.4000    23.1999    -0.0002
  572   11.420   2495.78    23.0336     0.0800     0.1002     0.1142    23.0760     0.3459   182.7200    22.8933    -0.0006
  573   11.440   2496.74    22.5460     0.0796     0.0956     0.1144    22.5878     0.3488   183.0400    22.4048    -0.0007
  574   11.460   2497.70    22.2185     0.0827     0.1001     0.1146    22.2594     0.3701   183.3600    22.0760    -0.0008
  575   11.480   2498.63    22.0685     0.0835     0.1068     0.1148    22.1121     0.3783   183.6800    21.9285    -0.0005
  576   11.500   2499.55    21.9074     0.0804     0.0960     0.1150    21.9509     0.3657   184.0000    21.7669    -0.0005
  577   11.520   2500.48    21.5747     0.0806     0.1038     0.1152    21.6175     0.3715   184.3200    21.4332    -0.0006
  578   11.540   2501.46    21.1365     0.0841     0.1003     0.1154    21.1791     0.3948   184.6400    20.9945    -0.0007
  579   11.560   2502.45    20.6775     0.0835     0.0937     0.1156    20.7196     0.4007   184.9600    20.5347    -0.0007
  580   11.580   2503.39    20.4038     0.0807     0.1007     0.1158    20.4435     0.3934   185.2800    20.2582    -0.0010
  581   11.600   2504.33    20.0057     0.0791     0.1010     0.1160    20.0494     0.3916   185.6000    19.8638    -0.0006
  582   11.620   2505.32    19.4736     0.0783     0.1016     0.1162    19.5158     0.3973   185.9200    19.3299    -0.0008
  583   11.640   2506.24    19.0379     0.0760     0.1074     0.1164    19.0828     0.3964   186.2400    18.8966    -0.0005
  584   11.660   2507.17    18.6315     0.0728     0.1047     0.1166    18.6758     0.3881   186.5600    18.4892    -0.0006
  585   11.680   2508.09    18.4502     0.0692     0.1074     0.1168    18.4946     0.3741   186.8800    18.3077    -0.0006
  586   11.700   2509.03    18.5366     0.0643     0.1079     0.1170    18.5825     0.3478   187.2000    18.3953    -0.0004
  587   11.720   2509.99    18.7847     0.0623     0.1054     0.1172    18.8296     0.3335   187.5200    18.6420    -0.0006
  588   11.740   2510.96    19.0300     0.0643     0.1123     0.1174    19.0762     0.3395   187.8400    18.8884    -0.0004
  589   11.760   2511.96    19.6002     0.0632     0.1113     0.1176    19.6472     0.3267   188.1600    19.4590    -0.0003
  590   11.780   2512.92    20.5312     0.0605     0.1150     0.1178    20.5808     0.2992   188.4800    20.3923     0.0000
  591   11.800   2513.89    21.5855     0.0630     0.1056     0.1180    21.6315     0.2967   188.8000    21.4427    -0.0004
  592   11.820   2514.79    22.3710     0.0669     0.1135     0.1182    22.4175     0.3017   189.1200    22.2283    -0.0003
  593   11.840   2515.79    22.9281     0.0720     0.1164     0.1184    22.9772     0.3162   189.4400    22.7877    -0.0001
  594   11.860   2516.72    23.6069     0.0766     0.1007     0.1186    23.6525     0.3294   189.7600    23.4628    -0.0004
  595   11.880   2517.72    24.1149     0.0752     0.0868     0.1188    24.1516     0.3143   190.0800    23.9616    -0.0013
  596   11.900   2518.71    24.2249     0.0760     0.0845     0.1190    24.2606     0.3136   190.4000    24.0702    -0.0014
  597   11.920   2519.64    23.6378     0.0771     0.0761     0.1192    23.6709     0.3217   190.7200    23.4802    -0.0017
  598   11.940   2520.55    22.2968     0.0777     0.0736     0.1194    22.3278     0.3383   191.0400    22.1367    -0.0021
  599   11.960   2521.46    20.8835     0.0759     0.0862     0.1196    20.9180     0.3562   191.3600    20.7266    -0.0018
  600   11.980   2522.40    19.7221     0.0689     0.0845     0.1198    19.7571     0.3433   191.6800    19.5654    -0.0019
  601   12.000   2523.33    19.4195     0.0625     0.1039     0.1200    19.4598     0.3215   192.0000    19.2678    -0.0013
  602   12.020   2524.36    19.6253     0.0641     0.1058     0.1202    19.6682     0.3283   192.3200    19.4759    -0.0009
  603   12.040   2525.32    19.8655     0.0729     0.1236     0.1204    19.9136     0.3677   192.6400    19.7210    -0.0003
  604   12.060   2526.28    20.4753     0.0791     0.1095     0.1206    20.5240     0.3900   192.9600    20.3311    -0.0002
  605   12.080   2527.24    21.4038     0.0817     0.0846     0.1208    21.4409     0.3869   193.2800    21.2476    -0.0015
  606   12.100   2528.19    23.4349     0.0822     0.0734     0.1210    23.4671     0.3586   193.6000    23.2735    -0.0019
  607   12.120   2529.19    25.8727     0.0934     0.0684     0.1212    25.9003     0.3677   193.9200    25.7063    -0.0022
  608   12.140   2530.12    27.7536     0.1070     0.0566     0.1214    27.7839     0.3904   194.2400    27.5897    -0.0018
  609   12.160   2531.15    29.1531     0.1231     0.0067     0.1216    29.1606     0.4244   194.5600    28.9660    -0.0036
  610   12.180   2532.16    29.9440     0.1410    -0.0044     0.1218    29.9471     0.4724   194.8800    29.7522    -0.0038
  611   12.200   2533.11    30.4578     0.1536    -0.0289     0.1220    30.4452     0.5062   195.2000    30.2500    -0.0050
  612   12.220   2534.13    30.8686     0.1662    -0.0016     0.1222    30.8629     0.5398   195.5200    30.6673    -0.0044
  613   12.240   2535.07    31.3805     0.1735     0.0215     0.1224    31.3870     0.5555   195.8400    31.1912    -0.0034
  614   12.260   2536.09    31.8961     0.1770     0.0527     0.1226    31.9145     0.5569   196.1600    31.7184    -0.0025
  615   12.280   2537.06    32.1856     0.1764     0.0543     0.1228    32.2101     0.5495   196.4800    32.0136    -0.0020
  616   12.300   2538.02    32.5871     0.1789     0.0359     0.1230    32.6033     0.5514   196.8000    32.4065    -0.0026
  617   12.320   2538.99    32.8640     0.1761     0.0530     0.1232    32.8868     0.5362   197.1200    32.6896    -0.0021
  618   12.340   2539.96    32.5047     0.1679     0.0413     0.1234    32.5219     0.5135   197.4400    32.3245    -0.0026
  619   12.360   2540.96    31.7999     0.1550     0.0358     0.1236    31.8142     0.4824   197.7600    31.6165    -0.0028
  620   12.380   2541.95    30.6576     0.1391     0.0564     0.1238    30.6790     0.4466   198.0800    30.4809    -0.0024
  621   12.400   2542.88    29.2401     0.1288     0.0499     0.1240    29.2610     0.4305   198.4000    29.0626    -0.0026
  622   12.420   2543.81    27.8966     0.1137     0.0530     0.1242    27.9186     0.3990   198.7200    27.7199    -0.0026
  623   12.440   2544.74    26.4930     0.0996     0.0503     0.1244    26.5149     0.3682   199.0400    26.3159    -0.0027
  624   12.460   2545.66    25.4596     0.0864     0.0699     0.1246    25.4870     0.3330   199.3600    25.2877    -0.0023
  625   12.480   2546.66    24.4152     0.0819     0.0714     0.1248    24.4438     0.3322   199.6800    24.2441    -0.0023
  626   12.500   2547.61    23.1696     0.0759     0.0732     0.1250    23.2004     0.3211   200.0000    23.0004    -0.0022
  627   12.520   2548.52    21.4417     0.0671     0.0800     0.1252    21.4749     0.3028   200.3200    21.2746    -0.0022
  628   12.540   2549.45    19.4202     0.0601     0.0806     0.1254    19.4521     0.3018   200.6400    19.2515    -0.0026
  629   12.560   2550.36    17.2479     0.0555     0.0861     0.1256    17.2830     0.3161   200.9600    17.0821    -0.0025
  630   12.580   2551.28    14.7255     0.0497     0.0883     0.1258    14.7629     0.3302   201.2800    14.5617    -0.0025
  631   12.600   2552.21    12.3564     0.0456     0.0852     0.1260    12.3916     0.3643   201.6000    12.1900    -0.0035
  632   12.620   2553.26     9.6594     0.0415     0.0922     0.1262     9.6983     0.4180   201.9200     9.4964    -0.0035
  633   12.640   2554.31     7.7912     0.0399     0.0889     0.1264     7.8293     0.4942   202.2400     7.6271    -0.0047
  634   12.660   2555.30     6.0632     0.0421     0.0887     0.1266     6.1015     0.6809   202.5600     5.8989    -0.0060
  635   12.680   2556.31     4.3763     0.0518     0.0877     0.1268     4.4130     1.1593   202.8800     4.2102    -0.0094
  636   12.700   2557.26     3.1436     0.0568     0.0918     0.1270     3.1811     1.7771   203.2000     2.9779    -0.0127
  637   12.720   2558.24     2.2154     0.0586     0.1003     0.1272     2.2557     2.5574   203.5200     2.0522    -0.0152
  638   12.740   2559.25     1.6588     0.0582     0.1136     0.1274     1.7040     3.3955   203.8400     1.5001    -0.0132
  639   12.760   2560.30     1.3676     0.0568     0.1323     0.1276     1.4206     4.0594   204.1600     1.2164    -0.0011
  640   12.780   2561.31     1.1846     0.0515     0.1321     0.1278     1.2407     4.2129   204.4800     1.0362     0.0054
  641   12.800   2562.31     0.9051     0.0424     0.1369     0.1280     0.9616     4.5315   204.8000     0.7568     0.0086
  642   12.820   2563.27     0.7028     0.0320     0.1861     0.1282     0.7684     4.3856   205.1200     0.5632     0.0495
  643   12.840   2564.26     0.6361     0.0218     0.2750     0.1284     0.7401     3.3892   205.4400     0.5346     0.2231
  644   12.860   2565.24     0.6061     0.0155     0.3248     0.1286     0.7371     2.5506   205.7600     0.5313     0.3450
  645   12.880   2566.29     0.5794     0.0137     0.3456     0.1288     0.7225     2.3465   206.0800     0.5165     0.4105
  646   12.900   2567.31     0.5642     0.0138     0.3604     0.1290     0.7133     2.4332   206.4000     0.5069     0.4457
  647   12.920   2568.30     0.5486     0.0137     0.3727     0.1292     0.7039     2.4856   206.7200     0.4972     0.4839
  648   12.940   2569.28     0.5371     0.0140     0.3782     0.1294     0.6952     2.6057   207.0400     0.4882     0.5059
  649   12.960   2570.27     0.5355     0.0152     0.3839     0.1296     0.6961     2.8252   207.3600     0.4887     0.5169
  650   12.980   2571.25     0.5353     0.0161     0.3867     0.1298     0.6972     3.0249   207.6800     0.4896     0.5225
  651   13.000   2572.25     0.5259     0.0176     0.3900     0.1300     0.6893     3.3618   208.0000     0.4813     0.5381
  652   13.020   2573.22     0.5152     0.0191     0.3921     0.1302     0.6794     3.6987   208.3200     0.4711     0.5535
  653   13.040   2574.23     0.5071     0.0194     0.3942     0.1304     0.6723     3.7886   208.6400     0.4637     0.5674
  654   13.060   2575.26     0.4977     0.0190     0.3957     0.1306     0.6639     3.7780   208.9600     0.4550     0.5828
  655   13.080   2576.22     0.4833     0.0186     0.3967     0.1308     0.6500     3.8105   209.2800     0.4407     0.6038
  656   13.100   2592.46     0.4225     0.0194     0.3939     0.1310     0.5884     4.0452   209.6000     0.3788     0.7367
  657   13.120   2610.88     0.3565     0.0186     0.3911     0.1312     0.5212     3.8642   209.9200     0.3112     0.8832
  658   13.140   2625.07     0.3045     0.0179     0.3897     0.1314     0.4684     5.8491   210.2400     0.2581     1.0030
  659   13.160   2626.10     0.3031     0.0168     0.3838     0.1316     0.4645     5.4952   210.5600     0.2540     0.9956
  660   13.180   2627.10     0.2901     0.0168     0.3786     0.1318     0.4506     5.7980   210.8800     0.2397     1.0439
  661   13.200   2628.09     0.2791     0.0171     0.3960     0.1320     0.4416     6.0757   211.2000     0.2304     1.1066
  662   13.220   2629.09     0.2870     0.0170     0.4040     0.1322     0.4558     5.9454   211.5200     0.2442     1.1040
  663   13.240   2630.07     0.2938     0.0161     0.4041     0.1324     0.4640     5.5148   211.8400     0.2522     1.0817
  664   13.260   2631.06     0.3028     0.0163     0.3981     0.1326     0.4707     5.3346   212.1600     0.2585     1.0335
  665   13.280   2632.04     0.2933     0.0162     0.3948     0.1328     0.4591     5.4713   212.4800     0.2466     1.0621
  666   13.300   2633.04     0.2872     0.0165     0.4071     0.1330     0.4566     5.7257   212.8000     0.2438     1.1093
  667   13.320   2634.04     0.2869     0.0166     0.4124     0.1332     0.4595     5.8185   213.1200     0.2464     1.1280
  668   13.340   2635.03     0.2906     0.0164     0.4133     0.1334     0.4642     5.6238   213.4400     0.2508     1.1160
  669   13.360   2636.05     0.2909     0.0168     0.4044     0.1336     0.4618     5.7775   213.7600     0.2481     1.1020
  670   13.380   2637.00     0.2901     0.0173     0.4103     0.1338     0.4619     5.9855   214.0800     0.2478     1.1103
  671   13.400   2637.98     0.2931     0.0172     0.4069     0.1340     0.4650     5.8343   214.4000     0.2506     1.0980
  672   13.420   2639.00     0.2898     0.0172     0.4065     0.1342     0.4605     5.9055   214.7200     0.2458     1.1080
  673   13.440   2639.97     0.2870     0.0174     0.4106     0.1344     0.4587     6.0669   215.0400     0.2437     1.1261
  674   13.460   2640.92     0.2897     0.0173     0.4133     0.1346     0.4623     5.9997   215.3600     0.2470     1.1192
  675   13.480   2641.91     0.2919     0.0179     0.4199     0.1348     0.4675     6.1410   215.6800     0.2518     1.1252
  676   13.500   2642.93     0.2950     0.0174     0.4272     0.1350     0.4735     5.9303   216.0000     0.2575     1.1261
  677   13.520   2643.96     0.2950     0.0177     0.4259     0.1352     0.4746     5.9909   216.3200     0.2582     1.1321
  678   13.540   2644.93     0.2908     0.0177     0.4253     0.1354     0.4692     6.0630   216.6400     0.2525     1.1458
  679   13.560   2645.89     0.2939     0.0184     0.4314     0.1356     0.4742     6.3095   216.9600     0.2573     1.1420
  680   13.580   2646.88     0.2997     0.0179     0.4365     0.1358     0.4834     5.9802   217.2800     0.2661     1.1332
  681   13.600   2647.89     0.3030     0.0182     0.4138     0.1360     0.4858     6.0367   217.6000     0.2682     1.1152
  682   13.620   2648.88     0.3076     0.0184     0.4254     0.1362     0.4838     5.9469   217.9200     0.2659     1.0661
  683   13.640   2649.89     0.3004     0.0191     0.4287     0.1364     0.4798     6.3614   218.2400     0.2616     1.1117
  684   13.660   2650.82     0.3004     0.0194     0.4359     0.1366     0.4819     6.4333   218.5600     0.2634     1.1227
  685   13.680   2651.83     0.3030     0.0197     0.4431     0.1368     0.4884     6.4915   218.8800     0.2695     1.1302
  686   13.700   2652.82     0.2967     0.0197     0.4486     0.1370     0.4849     6.6288   219.2000     0.2657     1.1715
  687   13.720   2653.82     0.2908     0.0201     0.4525     0.1372     0.4801     6.8902   219.5200     0.2606     1.2029
  688   13.740   2654.80     0.2941     0.0209     0.4544     0.1374     0.4848     7.1094   219.8400     0.2650     1.1947
  689   13.760   2655.81     0.3117     0.0205     0.4539     0.1376     0.5019     6.6811   220.1600     0.2817     1.1188
  690   13.780   2656.81     0.3287     0.0207     0.4562     0.1378     0.5197     6.3586   220.4800     0.2993     1.0596
  691   13.800   2657.79     0.3379     0.0210     0.4543     0.1380     0.5299     6.2530   220.8000     0.3091     1.0330
  692   13.820   2658.74     0.3588     0.0216     0.4401     0.1382     0.5427     6.0649   221.1200     0.3216     0.9316
  693   13.840   2659.77     0.3427     0.0213     0.4387     0.1384     0.5268     6.2158   221.4400     0.3054     0.9820
  694   13.860   2660.75     0.3479     0.0212     0.4369     0.1386     0.5315     6.1533   221.7600     0.3098     0.9639
  695   13.880   2661.72     0.3439     0.0206     0.4364     0.1388     0.5278     5.9571   222.0800     0.3057     0.9785
  696   13.900   2662.71     0.3364     0.0205     0.4364     0.1390     0.5189     6.0754   222.4000     0.2965     0.9963
  697   13.920   2663.69     0.3219     0.0207     0.4519     0.1392     0.5098     6.3637   222.7200     0.2871     1.0737
  698   13.940   2664.68     0.3126     0.0205     0.4563     0.1394     0.5040     6.5275   223.0400     0.2810     1.1260
  699   13.960   2665.69     0.3175     0.0204     0.4558     0.1396     0.5093     6.4184   223.3600     0.2860     1.1087
  700   13.980   2666.73     0.3209     0.0209     0.4560     0.1398     0.5120     6.5108   223.6800     0.2884     1.0932
  701   14.000   2667.67     0.3193     0.0207     0.4529     0.1400     0.5105     6.4700   224.0000     0.2865     1.1001
  702   14.020   2668.66     0.3175     0.0206     0.4517     0.1402     0.5072     6.5107   224.3200     0.2829     1.1011
  703   14.040   2669.66     0.3126     0.0205     0.4496     0.1404     0.5016     6.5281   224.6400     0.2770     1.1183
  704   14.060   2670.65     0.3021     0.0202     0.4513     0.1406     0.4915     6.6525   224.9600     0.2665     1.1646
  705   14.080   2671.64     0.2994     0.0199     0.4490     0.1408     0.4881     6.6724   225.2800     0.2629     1.1741
  706   14.100   2672.59     0.2953     0.0200     0.4481     0.1410     0.4837     6.7931   225.6000     0.2581     1.1917
  707   14.120   2673.59     0.3004     0.0197     0.4496     0.1412     0.4890     6.5954   225.9200     0.2630     1.1698
  708   14.140   2674.57     0.3015     0.0198     0.4533     0.1414     0.4914     6.5684   226.2400     0.2651     1.1717
  709   14.160   2675.60     0.3023     0.0192     0.4543     0.1416     0.4931     6.3510   226.5600     0.2666     1.1735
  710   14.180   2676.58     0.3009     0.0193     0.4543     0.1418     0.4915     6.4512   226.8800     0.2646     1.1794
  711   14.200   2677.58     0.3012     0.0190     0.4590     0.1420     0.4928     6.3071   227.2000     0.2656     1.1829
  712   14.220   2678.58     0.3063     0.0193     0.4665     0.1422     0.5016     6.3383   227.5200     0.2740     1.1777
  713   14.240   2679.57     0.3079     0.0194     0.4673     0.1424     0.5037     6.2826   227.8400     0.2758     1.1740
  714   14.260   2680.57     0.3009     0.0197     0.4617     0.1426     0.4965     6.5267   228.1600     0.2683     1.2037
  715   14.280   2681.55     0.3059     0.0197     0.4591     0.1428     0.4987     6.4336   228.4800     0.2702     1.1701
  716   14.300   2682.55     0.3110     0.0191     0.4615     0.1430     0.5046     6.1352   228.8000     0.2758     1.1527
  717   14.320   2683.50     0.3062     0.0194     0.4642     0.1432     0.5008     6.3236   229.1200     0.2717     1.1784
  718   14.340   2684.52     0.3115     0.0190     0.4617     0.1434     0.5058     6.1349   229.4400     0.2764     1.1554
  719   14.360   2685.55     0.3174     0.0198     0.4622     0.1436     0.5116     6.2470   229.7600     0.2818     1.1307
  720   14.380   2686.53     0.3180     0.0200     0.4632     0.1438     0.5124     6.2964   230.0800     0.2823     1.1302
  721   14.400   2687.53     0.3190     0.0185     0.4597     0.1440     0.5128     5.8420   230.4000     0.2824     1.1237
  722   14.420   2688.51     0.3279     0.0199     0.4651     0.1442     0.5221     6.0554   230.7200     0.2914     1.0923
  723   14.440   2689.50     0.3404     0.0203     0.4663     0.1444     0.5361     5.9990   231.0400     0.3051     1.0542
  724   14.460   2690.45     0.3592     0.0205     0.4693     0.1446     0.5561     5.8263   231.3600     0.3247     0.9993
  725   14.480   2691.46     0.3850     0.0206     0.4770     0.1448     0.5847     5.3859   231.6800     0.3531     0.9370
  726   14.500   2692.44     0.4150     0.0207     0.4296     0.1450     0.6022     4.9709   232.0000     0.3702     0.8123
  727   14.520   2693.45     0.3592     0.0207     0.4198     0.1452     0.5367     5.6388   232.3200     0.3044     0.9135
  728   14.540   2694.43     0.3370     0.0206     0.4149     0.1454     0.5086     6.0906   232.6400     0.2759     0.9538
  729   14.560   2695.40     0.3315     0.0204     0.4318     0.1456     0.5105     6.1087   232.9600     0.2775     1.0107
  730   14.580   2696.44     0.3149     0.0193     0.4480     0.1458     0.5015     6.1273   233.2800     0.2682     1.1129
  731   14.600   2697.44     0.3249     0.0185     0.4563     0.1460     0.5152     5.7066   233.6000     0.2816     1.0904
  732   14.620   2698.44     0.3322     0.0184     0.4664     0.1462     0.5266     5.5378   233.9200     0.2927     1.0818
  733   14.640   2699.43     0.3364     0.0187     0.4721     0.1464     0.5338     5.5751   234.2400     0.2995     1.0803
  734   14.660   2700.37     0.3435     0.0186     0.4762     0.1466     0.5431     5.4505   234.5600     0.3086     1.0656
  735   14.680   2701.40     0.3579     0.0189     0.4752     0.1468     0.5580     5.3092   234.8800     0.3231     1.0200
  736   14.700   2702.38     0.3592     0.0192     0.4792     0.1470     0.5594     5.3322   235.2000     0.3242     1.0171
  737   14.720   2703.39     0.3578     0.0191     0.4771     0.1472     0.5594     5.3751   235.5200     0.3239     1.0278
  738   14.740   2704.39     0.3685     0.0194     0.4741     0.1474     0.5677     5.2729   235.8400     0.3319     0.9851
  739   14.760   2705.35     0.3612     0.0189     0.4728     0.1476     0.5604     5.2128   236.1600     0.3242     1.0079
  740   14.780   2706.35     0.3615     0.0183     0.4680     0.1478     0.5583     5.0603   236.4800     0.3218     0.9970
  741   14.800   2707.35     0.3513     0.0179     0.4595     0.1480     0.5464     5.0881   236.8000     0.3096     1.0227
  742   14.820   2708.35     0.3424     0.0177     0.4686     0.1482     0.5381     5.1719   237.1200     0.3010     1.0558
  743   14.840   2709.32     0.3412     0.0177     0.4712     0.1484     0.5390     5.1669   237.4400     0.3015     1.0694
  744   14.860   2710.33     0.3381     0.0171     0.4674     0.1486     0.5355     5.0372   237.7600     0.2978     1.0798
  745   14.880   2711.30     0.3363     0.0166     0.4665     0.1488     0.5321     4.9000   238.0800     0.2940     1.0797
  746   14.900   2712.31     0.3290     0.0165     0.4650     0.1490     0.5250     5.0085   238.4000     0.2866     1.1086
  747   14.920   2713.32     0.3274     0.0163     0.4670     0.1492     0.5230     4.9744   238.7200     0.2843     1.1135
  748   14.940   2714.34     0.3283     0.0160     0.4660     0.1494     0.5247     4.8719   239.0400     0.2857     1.1138
  749   14.960   2715.24     0.3260     0.0153     0.4643     0.1496     0.5207     4.6999   239.3600     0.2813     1.1158
  750   14.980   2716.27     0.3285     0.0149     0.4646     0.1498     0.5238     4.5191   239.6800     0.2841     1.1094
  751   15.000   2717.28     0.3295     0.0145     0.4642     0.1500     0.5243     4.3644   240.0000     0.2843     1.1040
  752   15.020   2718.28     0.3339     0.0140     0.4625     0.1502     0.5292     4.2098   240.3200     0.2889     1.0903
  753   15.040   2719.24     0.3277     0.0136     0.4600     0.1504     0.5205     4.1483   240.6400     0.2799     1.1034
  754   15.060   2720.25     0.3264     0.0134     0.4629     0.1506     0.5207     4.0901   240.9600     0.2798     1.1152
  755   15.080   2721.22     0.3336     0.0133     0.4636     0.1508     0.5287     4.0051   241.2800     0.2874     1.0915
  756   15.100   2736.65     0.3818     0.0134     0.4595     0.1510     0.5754     4.0166   241.6000     0.3338     0.9579
  757   15.120   2752.97     0.4323     0.0128     0.4555     0.1512     0.6242     3.8175   241.9200     0.3823     0.8181
  758   15.140   2762.23     0.4652     0.0123     0.4370     0.1514     0.6523     2.6467   242.2400     0.4100     0.7173
  759   15.160   2763.22     0.4518     0.0116     0.4314     0.1516     0.6328     2.5625   242.5600     0.3903     0.7158
  760   15.180   2764.21     0.4412     0.0114     0.4285     0.1518     0.6214     2.5716   242.8800     0.3785     0.7326
  761   15.200   2765.17     0.4268     0.0115     0.4353     0.1520     0.6080     2.6784   243.2000     0.3648     0.7664
  762   15.220   2766.24     0.4104     0.0122     0.4449     0.1522     0.5962     2.9696   243.5200     0.3527     0.8228
  763   15.240   2767.22     0.4199     0.0122     0.4479     0.1524     0.6067     2.9082   243.8400     0.3629     0.8060
  764   15.260   2768.22     0.4265     0.0123     0.4454     0.1526     0.6155     2.9147   244.1600     0.3713     0.8010
  765   15.280   2769.20     0.4394     0.0119     0.4333     0.1528     0.6223     2.7136   244.4800     0.3778     0.7481
  766   15.300   2770.16     0.4301     0.0122     0.4292     0.1530     0.6100     2.8326   244.8000     0.3652     0.7540
  767   15.320   2771.18     0.4360     0.0122     0.4442     0.1532     0.6200     2.8266   245.1200     0.3748     0.7602
  768   15.340   2772.16     0.4540     0.0121     0.4504     0.1534     0.6437     2.6906   245.4400     0.3983     0.7493
  769   15.360   2773.19     0.4698     0.0118     0.4417     0.1536     0.6570     2.5001   245.7600     0.4112     0.7101
  770   15.380   2774.15     0.4610     0.0117     0.4231     0.1538     0.6415     2.5402   246.0800     0.3955     0.6979
  771   15.400   2775.15     0.4415     0.0122     0.4182     0.1540     0.6165     2.7470   246.4000     0.3701     0.7098
  772   15.420   2776.09     0.4165     0.0120     0.4339     0.1542     0.5965     2.8696   246.7200     0.3498     0.7843
  773   15.440   2777.11     0.4066     0.0116     0.4423     0.1544     0.5914     2.8706   247.0400     0.3443     0.8291
  774   15.460   2778.09     0.4110     0.0105     0.4475     0.1546     0.5984     2.5563   247.3600     0.3511     0.8309
  775   15.480   2779.06     0.4079     0.0114     0.4534     0.1548     0.5970     2.7838   247.6800     0.3493     0.8455
  776   15.500   2780.06     0.4034     0.0110     0.4637     0.1550     0.5972     2.7211   248.0000     0.3492     0.8776
  777   15.520   2781.07     0.4270     0.0115     0.4641     0.1552     0.6214     2.7382   248.3200     0.3730     0.8249
  778   15.540   2782.07     0.4559     0.0111     0.4521     0.1554     0.6487     2.4591   248.6400     0.4001     0.7596
  779   15.560   2783.05     0.4940     0.0122     0.4265     0.1556     0.6756     2.4783   248.9600     0.4267     0.6487
  780   15.580   2784.02     0.4954     0.0129     0.4226     0.1558     0.6726     2.5919   249.2800     0.4233     0.6289
  781   15.600   2785.02     0.5051     0.0133     0.4175     0.1560     0.6821     2.6709   249.6000     0.4325     0.6143
  782   15.620   2785.98     0.5293     0.0133     0.4142     0.1562     0.7036     2.5086   249.9200     0.4537     0.5707
  783   15.640   2787.01     0.5226     0.0128     0.3791     0.1564     0.6850     2.4467   250.2400     0.4347     0.5292
  784   15.660   2788.00     0.4785     0.0127     0.3939     0.1566     0.6401     2.6263   250.5600     0.3895     0.5865
  785   15.680   2789.01     0.4356     0.0130     0.4107     0.1568     0.6050     2.9464   250.8800     0.3541     0.6966
  786   15.700   2789.94     0.4128     0.0118     0.4277     0.1570     0.5906     2.8504   251.2000     0.3394     0.7845
  787   15.720   2790.96     0.4105     0.0117     0.4427     0.1572     0.5944     2.8563   251.5200     0.3429     0.8188
  788   15.740   2791.98     0.4411     0.0114     0.4484     0.1574     0.6292     2.6180   251.8400     0.3774     0.7702
  789   15.760   2792.97     0.4692     0.0115     0.4431     0.1576     0.6566     2.4649   252.1600     0.4044     0.7132
  790   15.780   2793.98     0.4732     0.0117     0.4332     0.1578     0.6539     2.4530   252.4800     0.4015     0.6793
  791   15.800   2794.93     0.4538     0.0124     0.4174     0.1580     0.6305     2.7082   252.8000     0.3777     0.6959
  792   15.820   2795.95     0.4271     0.0127     0.4320     0.1582     0.6070     2.9544   253.1200     0.3539     0.7636
  793   15.840   2796.88     0.4225     0.0125     0.4375     0.1584     0.6061     2.9618   253.4400     0.3526     0.7902
  794   15.860   2797.88     0.4191     0.0124     0.4433     0.1586     0.6044     2.9566   253.7600     0.3507     0.8063
  795   15.880   2798.89     0.4084     0.0112     0.4513     0.1588     0.5970     2.7272   254.0800     0.3429     0.8464
  796   15.900   2799.93     0.3966     0.0111     0.4552     0.1590     0.5869     2.7882   254.4000     0.3325     0.8847
  797   15.920   2800.89     0.3907     0.0114     0.4585     0.1592     0.5830     2.8979   254.7200     0.3283     0.9099
  798   15.940   2801.88     0.3953     0.0114     0.4527     0.1594     0.5865     2.9146   255.0400     0.3314     0.8926
  799   15.960   2802.85     0.4039     0.0106     0.4589     0.1596     0.5964     2.6300   255.3600     0.3410     0.8759
  800   15.980   2803.86     0.4268     0.0105     0.4477     0.1598     0.6154     2.4746   255.6800     0.3597     0.8041
  801   16.000   2804.82     0.4286     0.0096     0.4366     0.1600     0.6157     2.2382   256.0000     0.3597     0.7939
  802   16.020   2805.79     0.4164     0.0097     0.4388     0.1602     0.5991     2.3327   256.3200     0.3428     0.8017
  803   16.040   2806.78     0.4108     0.0115     0.4494     0.1604     0.5985     2.7908   256.6400     0.3419     0.8382
  804   16.060   2807.79     0.4236     0.0132     0.4539     0.1606     0.6130     3.1323   256.9600     0.3560     0.8152
  805   16.080   2808.78     0.4796     0.0142     0.4651     0.1608     0.6732     3.0274   257.2800     0.4159     0.7218
  806   16.100   2809.79     0.6084     0.0158     0.4444     0.1610     0.8004     2.6938   257.6000     0.5428     0.5457
  807   16.120   2810.78     0.6777     0.0171     0.4122     0.1612     0.8530     2.5327   257.9200     0.5951     0.4307
  808   16.140   2811.79     0.6533     0.0168     0.4114     0.1614     0.8251     2.5520   258.2400     0.5669     0.4370
  809   16.160   2812.75     0.6624     0.0161     0.4058     0.1616     0.8340     2.4428   258.5600     0.5755     0.4296
  810   16.180   2813.75     0.6542     0.0161     0.4035     0.1618     0.8230     2.4437   258.8800     0.5641     0.4255
  811   16.200   2814.81     0.6731     0.0171     0.4245     0.1620     0.8479     2.5714   259.2000     0.5887     0.4320
  812   16.220   2815.77     0.6978     0.0216     0.4231     0.1622     0.8774     3.1317   259.5200     0.6179     0.4296
  813   16.240   2816.78     0.7151     0.0219     0.3961     0.1624     0.8876     3.0574   259.8400     0.6277     0.3956
  814   16.260   2817.73     0.7555     0.0229     0.3655     0.1626     0.9107     3.0488   260.1600     0.6505     0.3181
  815   16.280   2818.73     0.7762     0.0289     0.3233     0.1628     0.9196     3.7247   260.4800     0.6591     0.2708
  816   16.300   2819.72     0.8202     0.0376     0.2592     0.1630     0.9367     4.6207   260.8000     0.6759     0.1699
  817   16.320   2820.73     0.9362     0.0485     0.2979     0.1632     1.0546     5.2097   261.1200     0.7934     0.1489
  818   16.340   2821.76     1.2102     0.0615     0.2628     0.1634     1.3342     5.3426   261.4400     1.0728     0.1235
  819   16.360   2822.73     1.4026     0.0745     0.1729     0.1636     1.4835     5.4117   261.7600     1.2217     0.0241
  820   16.380   2823.72     1.5560     0.0909     0.1313     0.1638     1.6114     5.9115   262.0800     1.3493    -0.0236
  821   16.400   2824.77     1.6411     0.0944     0.1146     0.1640     1.7009     5.8313   262.4000     1.4385    -0.0151
  822   16.420   2825.77     1.7334     0.0922     0.0179     0.1642     1.7516     5.4545   262.7200     1.4888    -0.0810
  823   16.440   2826.70     1.6499     0.0845    -0.0976     0.1644     1.6375     5.0501   263.0400     1.3744    -0.1417
  824   16.460   2827.69     1.5132     0.0721    -0.2266     0.1646     1.4259     4.7231   263.3600     1.1626    -0.3216
  825   16.480   2828.68     1.2680     0.0593    -0.2582     0.1648     1.1603     4.5631   263.6800     0.8966    -0.4723
  826   16.500   2829.66     1.1345     0.0470    -0.2392     0.1650     1.0315     4.1054   264.0000     0.7675    -0.5345
  827   16.520   2830.69     1.0676     0.0307    -0.2189     0.1652     0.9724     2.8284   264.3200     0.7080    -0.5539
  828   16.540   2831.71     0.9110     0.0199    -0.1975     0.1654     0.8253     2.1476   264.6400     0.5606    -0.6601
  829   16.560   2832.72     0.8546     0.0173    -0.1805     0.1656     0.7763     2.0151   264.9600     0.5114    -0.6886
  830   16.580   2833.68     0.8154     0.0184    -0.1706     0.1658     0.7430     2.2508   265.2800     0.4777    -0.7078
  831   16.600   2834.65     0.8051     0.0211    -0.1674     0.1660     0.7344     2.6145   265.6000     0.4688    -0.7136
  832   16.620   2835.65     0.8143     0.0235    -0.1646     0.1662     0.7446     2.8842   265.9200     0.4787    -0.6936
  833   16.640   2836.67     0.8367     0.0235    -0.1608     0.1664     0.7687     2.8163   266.2400     0.5024    -0.6537
  834   16.660   2837.66     0.8503     0.0233    -0.1567     0.1666     0.7839     2.7443   266.5600     0.5173    -0.6276
  835   16.680   2838.69     0.8581     0.0236    -0.1528     0.1668     0.7934     2.7549   266.8800     0.5265    -0.6097
  836   16.700   2839.66     0.8884     0.0248    -0.1481     0.1670     0.8254     2.7937   267.2000     0.5582    -0.5680
  837   16.720   2840.68     0.8726     0.0240    -0.1430     0.1672     0.8119     2.7595   267.5200     0.5444    -0.5729
  838   16.740   2841.68     0.8615     0.0208    -0.1390     0.1674     0.8027     2.4102   267.8400     0.5349    -0.5749
  839   16.760   2842.68     0.8951     0.0181    -0.1346     0.1676     0.8378     2.0440   268.1600     0.5697    -0.5340
  840   16.780   2843.66     0.9335     0.0169    -0.1292     0.1678     0.8785     1.8109   268.4800     0.6101    -0.4896
  841   16.800   2844.65     0.9395     0.0160    -0.1236     0.1680     0.8867     1.7071   268.8000     0.6179    -0.4755
  842   16.820   2845.70     0.9160     0.0157    -0.1194     0.1682     0.8654     1.7120   269.1200     0.5963    -0.4839
  843   16.840   2846.67     0.8970     0.0143    -0.1152     0.1684     0.8478     1.5802   269.4400     0.5784    -0.4937
  844   16.860   2847.64     0.8460     0.0130    -0.1118     0.1686     0.7987     1.5281   269.7600     0.5290    -0.5318
  845   16.880   2848.61     0.7715     0.0124    -0.1094     0.1688     0.7252     1.5921   270.0800     0.4551    -0.6136
  846   16.900   2849.60     0.7543     0.0120    -0.1058     0.1690     0.7094     1.5846   270.4000     0.4390    -0.6289
  847   16.920   2850.63     0.7280     0.0113    -0.1020     0.1692     0.6847     1.5304   270.7200     0.4140    -0.6583
  848   16.940   2851.62     0.6818     0.0118    -0.0996     0.1694     0.6397     1.7210   271.0400     0.3686    -0.7321
  849   16.960   2852.62     0.6603     0.0121    -0.0966     0.1696     0.6193     1.8212   271.3600     0.3479    -0.7683
  850   16.980   2853.61     0.6614     0.0129    -0.0934     0.1698     0.6217     1.9467   271.6800     0.3500    -0.7553
  851   17.000   2854.58     0.6683     0.0132    -0.0893     0.1700     0.6301     1.9685   272.0000     0.3581    -0.7282
  852   17.020   2855.57     0.6638     0.0117    -0.0855     0.1702     0.6272     1.7650   272.3200     0.3549    -0.7250
  853   17.040   2856.57     0.6359     0.0119    -0.0822     0.1704     0.6010     1.8645   272.6400     0.3284    -0.7723
  854   17.060   2857.57     0.6155     0.0122    -0.0793     0.1706     0.5817     1.9640   272.9600     0.3087    -0.8135
  855   17.080   2858.57     0.5982     0.0124    -0.0757     0.1708     0.5657     2.0635   273.2800     0.2925    -0.8485
  856   17.100   2859.55     0.5833     0.0128    -0.0726     0.1710     0.5524     2.1856   273.6000     0.2788    -0.8773
  857   17.120   2860.55     0.5701     0.0140    -0.0643     0.1712     0.5405     2.4434   273.9200     0.2665    -0.9073
  858   17.140   2872.20     0.5722     0.0127    -0.0123     0.1714     0.5595     2.2327   274.2400     0.2852    -0.7429
  859   17.160   2887.33     0.5767     0.0121     0.0397     0.1716     0.5858     2.1252   274.5600     0.3113    -0.5266
  860   17.180   2902.45     0.5812     0.0131     0.0917     0.1718     0.6122     2.3014   274.8800     0.3373    -0.3102
  861   17.200   2909.44     0.6056     0.0137     0.1039     0.1720     0.6481     2.2663   275.2000     0.3729    -0.1902
  862   17.220   2910.40     0.6121     0.0149     0.1129     0.1722     0.6581     2.4344   275.5200     0.3826    -0.1636
  863   17.240   2911.38     0.6439     0.0143     0.1220     0.1724     0.6935     2.2357   275.8400     0.4177    -0.1299
  864   17.260   2912.37     0.6461     0.0127     0.1300     0.1726     0.6995     1.9667   276.1600     0.4233    -0.1075
  865   17.280   2913.40     0.6726     0.0127     0.1396     0.1728     0.7297     1.8921   276.4800     0.4533    -0.0813
  866   17.300   2914.42     0.7087     0.0142     0.1525     0.1730     0.7707     2.0085   276.8000     0.4939    -0.0512
  867   17.320   2915.42     0.7023     0.0154     0.1648     0.1732     0.7696     2.1952   277.1200     0.4925    -0.0264
  868   17.340   2916.37     0.7061     0.0148     0.1767     0.1734     0.7787     2.1172   277.4400     0.5013    -0.0009
  869   17.360   2917.37     0.7256     0.0155     0.1864     0.1736     0.8028     2.1436   277.7600     0.5251     0.0195
  870   17.380   2918.40     0.7088     0.0153     0.1940     0.1738     0.7888     2.1478   278.0800     0.5107     0.0325
  871   17.400   2919.34     0.7322     0.0157     0.2045     0.1740     0.8167     2.1484   278.4000     0.5383     0.0504
  872   17.420   2920.33     0.7140     0.0155     0.2126     0.1742     0.8019     2.1699   278.7200     0.5232     0.0673
  873   17.440   2921.32     0.7596     0.0160     0.2269     0.1744     0.8525     2.1285   279.0400     0.5735     0.0815
  874   17.460   2922.29     0.7473     0.0173     0.2393     0.1746     0.8458     2.3077   279.3600     0.5665     0.1059
  875   17.480   2923.30     0.7542     0.0178     0.2506     0.1748     0.8585     2.3568   279.6800     0.5788     0.1271
  876   17.500   2924.34     0.7443     0.0172     0.2607     0.1750     0.8515     2.3293   280.0000     0.5715     0.1403
  877   17.520   2925.27     0.7293     0.0162     0.2706     0.1752     0.8417     2.2189   280.3200     0.5614     0.1647
  878   17.540   2926.30     0.6933     0.0160     0.2751     0.1754     0.8085     2.2937   280.6400     0.5279     0.1873
  879   17.560   2927.28     0.6384     0.0153     0.2813     0.1756     0.7547     2.3638   280.9600     0.4738     0.2139
  880   17.580   2928.24     0.6950     0.0151     0.2980     0.1758     0.8180     2.2081   281.2800     0.5367     0.2182
  881   17.600   2929.23     0.6726     0.0154     0.3045     0.1760     0.8005     2.2679   281.6000     0.5189     0.2477
  882   17.620   2930.27     0.7351     0.0147     0.3166     0.1762     0.8654     2.0496   281.9200     0.5835     0.2299
  883   17.640   2931.24     0.7087     0.0171     0.3219     0.1764     0.8437     2.3865   282.2400     0.5614     0.2582
  884   17.660   2932.24     0.7429     0.0168     0.3339     0.1766     0.8809     2.2881   282.5600     0.5983     0.2542
  885   17.680   2933.23     0.7706     0.0160     0.3422     0.1768     0.9131     2.0818   282.8800     0.6303     0.2579
  886   17.700   2934.20     0.7623     0.0167     0.3521     0.1770     0.9097     2.1939   283.2000     0.6265     0.2776
  887   17.720   2935.23     0.7293     0.0171     0.3579     0.1772     0.8775     2.3513   283.5200     0.5940     0.2960
  888   17.740   2936.22     0.7341     0.0176     0.3666     0.1774     0.8862     2.3842   283.8400     0.6024     0.3068
  889   17.760   2937.23     0.7392     0.0173     0.3812     0.1776     0.8980     2.3350   284.1600     0.6138     0.3264
  890   17.780   2938.24     0.7067     0.0188     0.3862     0.1778     0.8690     2.6147   284.4800     0.5845     0.3570
  891   17.800   2939.27     0.7536     0.0179     0.3982     0.1780     0.9178     2.4237   284.8000     0.6330     0.3362
  892   17.820   2940.28     0.7232     0.0166     0.4089     0.1782     0.8939     2.2500   285.1200     0.6088     0.3750
  893   17.840   2941.21     0.7633     0.0165     0.4205     0.1784     0.9392     2.1742   285.4400     0.6537     0.3677
  894   17.860   2942.21     0.7405     0.0157     0.4271     0.1786     0.9184     2.1449   285.7600     0.6326     0.3874
  895   17.880   2943.19     0.7610     0.0134     0.4341     0.1788     0.9429     1.7535   286.0800     0.6569     0.3873
  896   17.900   2944.19     0.7347     0.0131     0.4282     0.1790     0.9160     1.7816   286.4000     0.6296     0.4013
  897   17.920   2945.21     0.6737     0.0134     0.4086     0.1792     0.8483     1.9728   286.7200     0.5616     0.4212
  898   17.940   2946.20     0.6834     0.0115     0.4104     0.1794     0.8543     1.6984   287.0400     0.5673     0.4012
  899   17.960   2947.18     0.6790     0.0114     0.4134     0.1796     0.8532     1.6710   287.3600     0.5659     0.4157
  900   17.980   2948.19     0.6839     0.0124     0.4078     0.1798     0.8558     1.8226   287.6800     0.5681     0.4040
  901   18.000   2949.19     0.6996     0.0121     0.4127     0.1800     0.8717     1.7387   288.0000     0.5837     0.3933
  902   18.020   2950.17     0.7128     0.0119     0.4232     0.1802     0.8889     1.6700   288.3200     0.6006     0.3982
  903   18.040   2951.18     0.7246     0.0118     0.4324     0.1804     0.9053     1.6578   288.6400     0.6167     0.4053
  904   18.060   2952.18     0.7200     0.0117     0.4425     0.1806     0.9042     1.6665   288.9600     0.6152     0.4194
  905   18.080   2953.16     0.6327     0.0118     0.4308     0.1808     0.8158     1.7233   289.2800     0.5265     0.4878
  906   18.100   2954.14     0.6611     0.0148     0.4351     0.1810     0.8438     2.2831   289.6000     0.5542     0.4584
  907   18.120   2955.13     0.6863     0.0175     0.4396     0.1812     0.8687     2.5670   289.9200     0.5788     0.4374
  908   18.140   2956.14     0.7331     0.0253     0.4481     0.1814     0.9206     3.5426   290.2400     0.6304     0.4227
  909   18.160   2957.16     0.7932     0.0285     0.4528     0.1816     0.9827     3.9928   290.5600     0.6921     0.3941
  910   18.180   2958.17     0.8534     0.0337     0.4574     0.1818     1.0448     4.7167   290.8800     0.7539     0.3654
  911   18.200   2959.17     1.6154     0.0409     0.5678     0.1820     1.8564     2.7325   291.2000     1.5652     0.2503
  912   18.220   2960.19     1.7689     0.0522     0.4705     0.1822     1.9765     3.1347   291.5200     1.6850     0.1868
  913   18.240   2961.20     2.8628     0.0545     0.4543     0.1824     3.0585     2.3741   291.8400     2.7667     0.1039
  914   18.260   2962.18     4.2563     0.0523     0.3659     0.1826     4.4201     1.4592   292.1600     4.1280     0.0514
  915   18.280   2963.26     6.3604     0.0487     0.2875     0.1828     6.4978     0.8880   292.4800     6.2053     0.0235
  916   18.300   2964.27     8.0679     0.0463     0.1273     0.1830     8.1425     0.6154   292.8000     7.8497    -0.0006
  917   18.320   2965.25     9.0445     0.0458     0.0432     0.1832     9.0790     0.5261   293.1200     8.7859    -0.0115
  918   18.340   2966.35     9.4979     0.0501    -0.0210     0.1834     9.4925     0.5384   293.4400     9.1991    -0.0213
  919   18.360   2967.39    10.1856     0.0584    -0.0157     0.1836    10.1701     0.5749   293.7600     9.8764    -0.0223
  920   18.380   2968.40    11.1253     0.0668     0.0012     0.1838    11.1216     0.6045   294.0800    10.8276    -0.0178
  921   18.400   2969.46    11.8491     0.0718    -0.0012     0.1840    11.8508     0.6054   294.4000    11.5564    -0.0156
  922   18.420   2970.45    11.4154     0.0755    -0.0121     0.1842    11.4126     0.6551   294.7200    11.1179    -0.0172
  923   18.440   2971.44    10.4952     0.0774    -0.0341     0.1844    10.4828     0.7355   295.0400    10.1877    -0.0210
  924   18.460   2972.47     9.4813     0.0694    -0.0265     0.1846     9.4692     0.6997   295.3600     9.1739    -0.0233
  925   18.480   2973.45     8.6872     0.0642    -0.0122     0.1848     8.6801     0.7147   295.6800     8.3844    -0.0241
  926   18.500   2974.46     8.3318     0.0596    -0.0019     0.1850     8.3296     0.7073   296.0000     8.0336    -0.0237
  927   18.520   2975.49     8.5578     0.0612     0.0086     0.1852     8.5605     0.7161   296.3200     8.2642    -0.0216
  928   18.540   2976.54     8.9890     0.0651     0.0088     0.1854     8.9937     0.7291   296.6400     8.6971    -0.0200
  929   18.560   2977.59     9.2135     0.0686     0.0137     0.1856     9.2171     0.7492   296.9600     8.9202    -0.0198
  930   18.580   2978.58     9.2836     0.0690     0.0253     0.1858     9.2940     0.7447   297.2800     8.9967    -0.0179
  931   18.600   2979.61     9.1979     0.0720     0.0202     0.1860     9.2064     0.7786   297.6000     8.9088    -0.0186
  932   18.620   2980.60     9.0852     0.0806     0.0256     0.1862     9.0951     0.8843   297.9200     8.7971    -0.0185
  933   18.640   2981.65     8.9281     0.0860     0.0288     0.1864     8.9391     0.9549   298.2400     8.6409    -0.0185
  934   18.660   2982.67     8.7333     0.0833     0.0354     0.1866     8.7478     0.9510   298.5600     8.4492    -0.0180
  935   18.680   2983.71     8.5939     0.0776     0.0406     0.1868     8.6099     0.9007   298.8800     8.3111    -0.0179
  936   18.700   2984.77     8.4568     0.0697     0.0519     0.1870     8.4763     0.8229   299.2000     8.1771    -0.0172
  937   18.720   2985.76     8.3681     0.0695     0.0568     0.1872     8.3922     0.8299   299.5200     8.0927    -0.0160
  938   18.740   2986.76     8.2249     0.0711     0.0626     0.1874     8.2506     0.8643   299.8400     7.9508    -0.0159
  939   18.760   2987.84     8.2274     0.0789     0.0599     0.1876     8.2538     0.9597   300.1600     7.9537    -0.0157
  940   18.780   2988.85     8.1958     0.0870     0.0582     0.1878     8.2204     1.0606   300.4800     7.9199    -0.0163
  941   18.800   2989.83     7.9669     0.0938     0.0620     0.1880     7.9923     1.1599   300.8000     7.6915    -0.0166
  942   18.820   2990.83     7.5634     0.0943     0.0544     0.1882     7.5858     1.2132   301.1200     7.2847    -0.0185
  943   18.840   2991.87     7.2044     0.0862     0.0715     0.1884     7.2325     1.1732   301.4400     6.9311    -0.0175
  944   18.860   2992.90     7.2814     0.0680     0.0780     0.1886     7.3151     0.9209   301.7600     7.0133    -0.0155
  945   18.880   2993.93     7.8724     0.0532     0.0561     0.1888     7.8981     0.6908   302.0800     7.5960    -0.0168
  946   18.900   2994.97     9.6240     0.0455    -0.0028     0.1890     9.6311     0.4954   302.4000     9.3287    -0.0185
  947   18.920   2996.03    12.2085     0.0467    -0.0582     0.1892    12.1927     0.4076   302.7200    11.8900    -0.0191
  948   18.940   2997.24    14.6824     0.0559    -0.0935     0.1894    14.6363     0.3918   303.0400    14.3333    -0.0209
  949   18.960   3020.27    16.4427     0.0717    -0.0243     0.1896    16.4224     0.4826   303.3600    16.1191    -0.0153
  950   18.980   3042.38    18.0972     0.0888     0.0206     0.1898    18.1037     0.5388   303.6800    17.8001    -0.0098
  951   19.000   3043.37    19.3300     0.1023     0.0297     0.1900    19.3383     0.5385   304.0000    19.0343    -0.0089
  952   19.020   3044.33    20.1195     0.1188     0.0631     0.1902    20.1405     0.5979   304.3200    19.8362    -0.0071
  953   19.040   3045.28    20.5167     0.1294     0.0616     0.1904    20.5435     0.6334   304.6400    20.2389    -0.0063
  954   19.060   3046.25    20.7116     0.1343     0.0686     0.1906    20.7379     0.6506   304.9600    20.4330    -0.0063
  955   19.080   3047.24    20.8711     0.1389     0.0874     0.1908    20.9061     0.6666   305.2800    20.6008    -0.0052
  956   19.100   3048.20    20.8174     0.1418     0.1098     0.1910    20.8594     0.6792   305.6000    20.5538    -0.0044
  957   19.120   3049.12    20.6500     0.1446     0.1210     0.1912    20.7010     0.6987   305.9200    20.3950    -0.0034
  958   19.140   3050.07    20.5603     0.1476     0.1143     0.1914    20.6082     0.7172   306.2400    20.3020    -0.0038
  959   19.160   3051.05    20.5825     0.1488     0.1367     0.1916    20.6366     0.7242   306.5600    20.3300    -0.0031
  960   19.180   3051.97    20.7914     0.1539     0.1672     0.1918    20.8552     0.7439   306.8800    20.5483    -0.0019
  961   19.200   3052.93    21.2187     0.1634     0.1595     0.1920    21.2860     0.7752   307.2000    20.9788    -0.0015
  962   19.220   3053.92    21.7446     0.1672     0.1623     0.1922    21.8133     0.7760   307.5200    21.5057    -0.0013
  963   19.240   3054.90    22.3962     0.1697     0.1695     0.1924    22.4649     0.7660   307.8400    22.1571    -0.0013
  964   19.260   3055.84    23.0109     0.1730     0.1725     0.1926    23.0855     0.7577   308.1600    22.7773    -0.0007
  965   19.280   3056.79    23.5942     0.1763     0.1648     0.1928    23.6616     0.7525   308.4800    23.3532    -0.0014
  966   19.300   3057.77    23.7859     0.1775     0.1596     0.1930    23.8559     0.7471   308.8000    23.5471    -0.0011
  967   19.320   3058.72    23.6527     0.1774     0.1626     0.1932    23.7203     0.7476   309.1200    23.4112    -0.0014
  968   19.340   3059.66    23.3303     0.1756     0.1575     0.1934    23.3963     0.7474   309.4400    23.0868    -0.0016
  969   19.360   3060.64    22.9293     0.1733     0.1749     0.1936    23.0002     0.7513   309.7600    22.6905    -0.0011
  970   19.380   3061.60    22.6069     0.1677     0.1831     0.1938    22.6829     0.7384   310.0800    22.3729    -0.0006
  971   19.400   3062.49    22.3578     0.1664     0.1824     0.1940    22.4345     0.7415   310.4000    22.1241    -0.0005
  972   19.420   3063.45    22.0499     0.1652     0.1839     0.1942    22.1285     0.7450   310.7200    21.8178    -0.0003
  973   19.440   3064.38    21.6879     0.1621     0.1673     0.1944    21.7619     0.7426   311.0400    21.4509    -0.0009
  974   19.460   3065.41    21.2855     0.1568     0.1641     0.1946    21.3542     0.7303   311.3600    21.0429    -0.0015
  975   19.480   3066.34    20.8002     0.1483     0.1532     0.1948    20.8636     0.7058   311.6800    20.5519    -0.0021
  976   19.500   3067.28    20.3996     0.1424     0.1559     0.1950    20.4631     0.6921   312.0000    20.1511    -0.0022
  977   19.520   3068.24    20.0113     0.1338     0.1543     0.1952    20.0756     0.6638   312.3200    19.7633    -0.0021
  978   19.540   3069.20    19.5929     0.1264     0.1505     0.1954    19.6563     0.6390   312.6400    19.3436    -0.0023
  979   19.560   3070.13    18.9317     0.1176     0.1494     0.1956    18.9951     0.6129   312.9600    18.6821    -0.0024
  980   19.580   3071.07    18.1737     0.1128     0.1490     0.1958    18.2358     0.6132   313.2800    17.9225    -0.0027
  981   19.600   3072.00    17.4452     0.1074     0.1438     0.1960    17.5077     0.6096   313.6000    17.1941    -0.0027
  982   19.620   3072.99    16.9934     0.0994     0.1462     0.1962    17.0559     0.5814   313.9200    16.7420    -0.0028
  983   19.640   3073.96    17.0362     0.0918     0.1628     0.1964    17.0992     0.5416   314.2400    16.7849    -0.0028
  984   19.660   3074.93    17.6240     0.0874     0.1727     0.1966    17.6942     0.5041   314.5600    17.3797    -0.0017
  985   19.680   3075.89    18.5772     0.0899     0.1849     0.1968    18.6557     0.4942   314.8800    18.3408    -0.0005
  986   19.700   3076.87    19.5288     0.0969     0.1882     0.1970    19.6081     0.5052   315.2000    19.2929    -0.0004
  987   19.720   3077.80    20.4684     0.1054     0.1732     0.1972    20.5453     0.5247   315.5200    20.2298    -0.0007
  988   19.740   3078.74    21.2101     0.1085     0.1572     0.1974    21.2785     0.5178   315.8400    20.9626    -0.0017
  989   19.760   3079.70    21.4308     0.1117     0.1548     0.1976    21.4951     0.5213   316.1600    21.1790    -0.0021
  990   19.780   3080.68    21.1841     0.1141     0.1671     0.1978    21.2522     0.5344   316.4800    20.9357    -0.0017
  991   19.800   3081.61    20.5078     0.1136     0.1757     0.1980    20.5808     0.5439   316.8000    20.2640    -0.0012
  992   19.820   3082.56    19.4988     0.1095     0.1710     0.1982    19.5721     0.5471   317.1200    19.2550    -0.0012
  993   19.840   3083.48    18.4797     0.1029     0.1786     0.1984    18.5538     0.5411   317.4400    18.2364    -0.0012
  994   19.860   3084.42    17.5734     0.0971     0.1802     0.1986    17.6478     0.5411   317.7600    17.3301    -0.0012
  995   19.880   3085.38    16.6172     0.0924     0.1891     0.1988    16.6939     0.5547   318.0800    16.3758    -0.0010
  996   19.900   3086.31    15.7063     0.0929     0.1943     0.1990    15.7868     0.5769   318.4000    15.4684    -0.0005
  997   19.920   3087.22    14.8726     0.0923     0.1878     0.1992    14.9542     0.6102   318.7200    14.6355    -0.0003
  998   19.940   3088.15    13.9652     0.0913     0.1440     0.1994    14.0327     0.6461   319.0400    13.7137    -0.0028
  999   19.960   3089.07    12.9442     0.0916     0.1172     0.1996    12.9956     0.7050   319.3600    12.6763    -0.0061
 1000   19.980   3090.00    11.8073     0.0912     0.1167     0.1998    11.8561     0.7367   319.6800    11.5364    -0.0073
 1001   20.000   3090.97    10.6838     0.0954     0.1346     0.2000    10.7377     0.8562   320.0000    10.4177    -0.0069
 1002   20.020   3092.06     9.9819     0.0934     0.1466     0.2002    10.0414     0.9343   320.3200     9.7211    -0.0060
 1003   20.040   3093.10     9.3987     0.0940     0.1573     0.2004     9.4644     0.9973   320.6400     9.1438    -0.0048
 1004   20.060   3094.12     8.4531     0.1006     0.1572     0.2006     8.5183     1.1833   320.9600     8.1973    -0.0055
 1005   20.080   3095.12     7.6474     0.1042     0.1560     0.2008     7.7139     1.3605   321.2800     7.3926    -0.0058
 1006   20.100   3096.14     6.8150     0.1088     0.1235     0.2010     6.8725     1.5929   321.6000     6.5509    -0.0098
 1007   20.120   3097.15     5.9567     0.0911     0.1098     0.2012     6.0030     1.5189   321.9200     5.6810    -0.0161
 1008   20.140   3098.17     4.9056     0.0714     0.1224     0.2014     4.9560     1.4274   322.2400     4.6338    -0.0176
 1009   20.160   3099.17     4.0920     0.0797     0.0918     0.2016     4.1385     1.9240   322.5600     3.8159    -0.0240
 1010   20.180   3100.22     3.2992     0.0637     0.0771     0.2018     3.3305     1.8792   322.8800     3.0077    -0.0424
 1011   20.200   3101.20     2.7047     0.0404     0.0840     0.2020     2.7381     1.4579   323.2000     2.4149    -0.0508
 1012   20.220   3102.20     2.2072     0.0291     0.1201     0.2022     2.2507     1.2725   323.5200     1.9272    -0.0511
 1013   20.240   3103.17     1.9841     0.0229     0.1614     0.2024     2.0467     1.1460   323.8400     1.7228    -0.0310
 1014   20.260   3104.19     1.9093     0.0167     0.1980     0.2026     1.9872     0.8676   324.1600     1.6630    -0.0102
 1015   20.280   3105.22     1.7007     0.0153     0.2178     0.2028     1.7908     0.8797   324.4800     1.4663     0.0080
 1016   20.300   3106.19     1.4928     0.0150     0.2369     0.2030     1.5882     0.9934   324.8000     1.2634     0.0192
 1017   20.320   3107.17     1.4067     0.0159     0.2722     0.2032     1.5161     1.1270   325.1200     1.1910     0.0481
 1018   20.340   3108.19     1.3600     0.0159     0.3096     0.2034     1.4842     1.1677   325.4400     1.1588     0.0798
 1019   20.360   3109.18     1.3198     0.0176     0.3491     0.2036     1.4611     1.3307   325.7600     1.1353     0.1169
 1020   20.380   3110.18     1.3191     0.0194     0.3872     0.2038     1.4758     1.4700   326.0800     1.1497     0.1472
 1021   20.400   3111.21     1.3508     0.0208     0.4219     0.2040     1.5230     1.5497   326.4000     1.1966     0.1723
 1022   20.420   3112.20     1.3793     0.0247     0.4571     0.2042     1.5661     1.7843   326.7200     1.2394     0.1943
 1023   20.440   3113.21     1.3654     0.0312     0.4975     0.2044     1.5686     2.2853   327.0400     1.2416     0.2250
 1024   20.460   3114.18     1.3863     0.0438     0.5376     0.2046     1.6062     3.1586   327.3600     1.2788     0.2493
 1025   20.480   3115.18     1.4568     0.0610     0.5828     0.2048     1.6943     4.2166   327.6800     1.3666     0.2638
 1026   20.500   3116.19     1.8465     0.0728     0.6275     0.2050     2.1056     4.0500   328.0000     1.7776     0.2329
 1027   20.520   3117.18     2.7563     0.0723     0.5910     0.2052     3.0175     2.7187   328.3200     2.6892     0.1566
 1028   20.540   3118.19     3.5235     0.0662     0.3419     0.2054     3.7170     1.9026   328.6400     3.3884     0.0760
 1029   20.560   3119.26     4.1589     0.0547     0.1927     0.2056     4.2471     1.3346   328.9600     3.9182     0.0012
 1030   20.580   3120.30     4.2453     0.0499     0.0502     0.2058     4.2939     1.1756   329.2800     3.9646    -0.0228
 1031   20.600   3121.24     3.7303     0.0460    -0.0062     0.2060     3.7254     1.2173   329.6000     3.3958    -0.0642
 1032   20.620   3122.22     2.9017     0.0454     0.0105     0.2062     2.9030     1.3944   329.9200     2.5731    -0.0792
 1033   20.640   3123.20     2.4054     0.0456     0.0377     0.2064     2.4169     1.8864   330.2400     2.0867    -0.0857
 1034   20.660   3124.26     2.5961     0.0422     0.0721     0.2066     2.6212     1.6598   330.5600     2.2906    -0.0642
 1035   20.680   3125.30     2.8125     0.0428     0.0924     0.2068     2.8490     1.5235   330.8800     2.5181    -0.0476
 1036   20.700   3126.31     2.6121     0.0448     0.1174     0.2070     2.6570     1.7076   331.2000     2.3258    -0.0430
 1037   20.720   3127.31     2.9850     0.0443     0.1480     0.2072     3.0423     1.5047   331.5200     2.7108    -0.0261
 1038   20.740   3128.30     3.3909     0.0482     0.1452     0.2074     3.4589     1.4265   331.8400     3.1271    -0.0146
 1039   20.760   3129.27     3.5238     0.0508     0.0777     0.2076     3.5589     1.4476   332.1600     3.2267    -0.0385
 1040   20.780   3130.27     3.2202     0.0447     0.0695     0.2078     3.2498     1.3198   332.4800     2.9173    -0.0471
 1041   20.800   3131.34     3.0388     0.0356     0.0783     0.2080     3.0702     1.1715   332.8000     2.7374    -0.0487
 1042   20.820   3132.34     3.2302     0.0284     0.0908     0.2082     3.2662     0.8811   333.1200     2.9331    -0.0418
 1043   20.840   3133.37     3.7505     0.0256     0.0993     0.2084     3.7914     0.6940   333.4400     3.4580    -0.0321
 1044   20.860   3134.40     4.1932     0.0252     0.1054     0.2086     4.2364     0.6065   333.7600     3.9027    -0.0271
 1045   20.880   3135.37     4.4316     0.0335     0.1046     0.2088     4.4760     0.7632   334.0800     4.1419    -0.0249
 1046   20.900   3136.40     4.5010     0.0497     0.1071     0.2090     4.5440     1.1168   334.4000     4.2096    -0.0253
 1047   20.920   3137.41     4.4814     0.0660     0.1126     0.2092     4.5279     1.4704   334.7200     4.1932    -0.0235
 1048   20.940   3138.40     4.2780     0.0754     0.1233     0.2094     4.3283     1.7345   335.0400     3.9933    -0.0224
 1049   20.960   3139.43     3.8846     0.0686     0.1391     0.2096     3.9403     1.7222   335.3600     3.6049    -0.0214
 1050   20.980   3141.90     3.5995     0.0569     0.1590     0.2098     3.6643     1.5914   335.6800     3.3286    -0.0169
 1051   21.000   3154.26     4.0062     0.0499     0.1726     0.2100     4.0767     1.4082   336.0000     3.7407    -0.0121
 1052   21.020   3166.62     4.4129     0.0392     0.1861     0.2102     4.4891     1.1063   336.3200     4.1528    -0.0074
 1053   21.040   3173.31     4.5499     0.0331     0.1145     0.2104     4.6089     0.7265   336.6400     4.2723    -0.0163
 1054   21.060   3174.30     4.3059     0.0320     0.0660     0.2106     4.3384     0.7413   336.9600     4.0014    -0.0333
 1055   21.080   3175.35     4.0172     0.0318     0.0661     0.2108     4.0429     0.7852   337.2800     3.7057    -0.0403
 1056   21.100   3176.38     3.8107     0.0357     0.0741     0.2110     3.8410     0.9315   337.6000     3.5034    -0.0396
 1057   21.120   3177.37     3.5043     0.0385     0.0897     0.2112     3.5388     1.0950   337.9200     3.2009    -0.0403
 1058   21.140   3178.32     3.0069     0.0371     0.1109     0.2114     3.0502     1.2292   338.2400     2.7120    -0.0400
 1059   21.160   3179.30     2.5362     0.0298     0.1345     0.2116     2.5882     1.1711   338.5600     2.2496    -0.0390
 1060   21.180   3180.36     2.5062     0.0191     0.1562     0.2118     2.5687     0.7678   338.8800     2.2299    -0.0283
 1061   21.200   3181.39     2.8807     0.0144     0.1745     0.2120     2.9518     0.5066   339.2000     2.6126    -0.0164
 1062   21.220   3182.42     3.3033     0.0182     0.1787     0.2122     3.3775     0.5553   339.5200     3.0380    -0.0117
 1063   21.240   3183.39     3.4278     0.0251     0.1612     0.2124     3.4991     0.7319   339.8400     3.1592    -0.0135
 1064   21.260   3184.41     3.1929     0.0253     0.1666     0.2126     3.2602     0.7865   340.1600     2.9200    -0.0180
 1065   21.280   3185.44     2.9026     0.0200     0.1889     0.2128     2.9788     0.6880   340.4800     2.6384    -0.0118
 1066   21.300   3186.45     3.0399     0.0179     0.2093     0.2130     3.1252     0.5965   340.8000     2.7844    -0.0036
 1067   21.320   3187.44     3.5199     0.0192     0.2201     0.2132     3.6116     0.5479   341.1200     3.2705     0.0015
 1068   21.340   3188.45     4.1028     0.0214     0.2147     0.2134     4.1954     0.5277   341.4400     3.8540     0.0019
 1069   21.360   3189.51     4.7516     0.0244     0.1658     0.2136     4.8244     0.5171   341.7600     4.4826    -0.0089
 1070   21.380   3190.52     5.1372     0.0259     0.1544     0.2138     5.2016     0.5085   342.0800     4.8596    -0.0124
 1071   21.400   3191.52     5.3263     0.0333     0.1570     0.2140     5.3915     0.6267   342.4000     5.0491    -0.0116
 1072   21.420   3192.49     5.2189     0.0526     0.1554     0.2142     5.2844     1.0038   342.7200     4.9417    -0.0118
 1073   21.440   3193.50     4.5808     0.0687     0.1384     0.2144     4.6396     1.4643   343.0400     4.2965    -0.0174
 1074   21.460   3194.52     3.5598     0.0646     0.1424     0.2146     3.6186     1.7196   343.3600     3.2752    -0.0229
 1075   21.480   3195.50     2.6770     0.0648     0.1563     0.2148     2.7409     2.3855   343.6800     2.3972    -0.0262
 1076   21.500   3196.51     2.1521     0.0604     0.1928     0.2150     2.2262     2.7749   344.0000     1.8822    -0.0203
 1077   21.520   3197.51     1.8310     0.0570     0.2203     0.2152     1.9215     3.0925   344.3200     1.5771     0.0002
 1078   21.540   3198.48     1.6024     0.0515     0.2586     0.2154     1.7034     3.1947   344.6400     1.3587     0.0185
 1079   21.560   3199.48     1.5055     0.0361     0.3087     0.2156     1.6273     2.3736   344.9600     1.2823     0.0581
 1080   21.580   3200.53     1.5770     0.0257     0.3527     0.2158     1.7201     1.6374   345.2800     1.3748     0.0907
 1081   21.600   3201.53     1.6459     0.0225     0.3610     0.2160     1.7976     1.3675   345.6000     1.4520     0.1000
 1082   21.620   3202.54     1.5501     0.0215     0.3527     0.2162     1.7005     1.3840   345.9200     1.3545     0.1048
 1083   21.640   3203.55     1.3938     0.0229     0.3544     0.2164     1.5415     1.6261   346.2400     1.1952     0.1132
 1084   21.660   3204.55     1.2133     0.0215     0.3905     0.2166     1.3714     1.7454   346.5600     1.0248     0.1568
 1085   21.680   3205.56     1.0747     0.0208     0.4129     0.2168     1.2450     1.9281   346.8800     0.8981     0.2104
 1086   21.700   3206.57     1.0060     0.0238     0.4360     0.2170     1.1856     2.3577   347.2000     0.8384     0.2515
 1087   21.720   3207.57     0.9774     0.0264     0.4688     0.2172     1.1695     2.7024   347.5200     0.8219     0.2920
 1088   21.740   3208.56     1.0059     0.0275     0.4972     0.2174     1.2108     2.7447   347.8400     0.8630     0.3134
 1089   21.760   3209.57     1.0798     0.0271     0.5189     0.2176     1.2957     2.5162   348.1600     0.9475     0.3129
 1090   21.780   3210.56     1.0870     0.0269     0.5005     0.2178     1.3037     2.4666   348.4800     0.9552     0.3122
 1091   21.800   3211.59     1.0120     0.0274     0.4627     0.2180     1.2061     2.6734   348.8000     0.8573     0.2851
 1092   21.820   3212.56     0.8386     0.0280     0.5007     0.2182     1.0441     3.2992   349.1200     0.6950     0.3904
 1093   21.840   3213.61     0.7975     0.0272     0.5351     0.2184     1.0183     3.3978   349.4400     0.6688     0.4592
 1094   21.860   3214.57     0.7875     0.0255     0.5604     0.2186     1.0195     3.2357   349.7600     0.6698     0.4983
 1095   21.880   3215.54     0.7863     0.0317     0.5794     0.2188     1.0262     4.0672   350.0800     0.6761     0.5212
 1096   21.900   3216.57     0.7775     0.0360     0.5975     0.2190     1.0259     4.6378   350.4000     0.6755     0.5515
 1097   21.920   3217.58     0.7731     0.0360     0.6104     0.2192     1.0281     4.6521   350.7200     0.6773     0.5725
 1098   21.940   3218.58     0.7702     0.0395     0.6199     0.2194     1.0291     5.1192   351.0400     0.6780     0.5853
 1099   21.960   3219.57     0.7631     0.0420     0.6107     0.2196     1.0256     5.4955   351.3600     0.6742     0.6011
 1100   21.980   5230.68     0.9499     0.0395     0.4362     0.2198     1.1584     5.2067   351.6800     0.8067     0.4010
 1101   22.000   7929.86     1.2067     0.0354     0.2828     0.2200     1.3419     3.9092   352.0000     0.9899     0.1245
 1102   22.020   8585.99     1.1637     0.0327     0.3221     0.2202     1.2930     2.7704   352.3200     0.9407     0.0935
 1103   22.040   8587.00     1.0464     0.0320     0.3684     0.2204     1.1936     3.0081   352.6400     0.8410     0.1551
 1104   22.060   8588.00     0.9392     0.0293     0.4320     0.2206     1.1108     3.0598   352.9600     0.7578     0.2486
 1105   22.080   8589.03     0.8700     0.0253     0.4791     0.2208     1.0666     2.8940   353.2800     0.7133     0.3468
 1106   22.100   8590.02     0.8601     0.0251     0.5021     0.2210     1.0678     2.9131   353.6000     0.7142     0.3829
 1107   22.120   8591.00     0.8678     0.0215     0.5212     0.2212     1.0840     2.4813   353.9200     0.7301     0.4020
 1108   22.140   8591.99     0.8961     0.0180     0.5461     0.2214     1.1213     2.0132   354.2400     0.7670     0.4104
 1109   22.160   8592.96     0.9769     0.0238     0.5700     0.2216     1.2132     2.4393   354.5600     0.8586     0.3973
 1110   22.180   8593.94     1.2182     0.0282     0.5982     0.2218     1.4626     2.4618   354.8800     1.1077     0.3299
 1111   22.200   8594.96     2.1772     0.0286     0.6178     0.2220     2.4434     1.3943   355.2000     2.0882     0.2026
 1112   22.220   8596.03     4.4836     0.0255     0.4646     0.2222     4.7119     0.6235   355.5200     4.3564     0.0756
 1113   22.240   8597.06     6.5341     0.0330     0.2148     0.2224     6.6431     0.5249   355.8400     6.2873     0.0063
 1114   22.260   8598.07     7.2454     0.0537     0.1552     0.2226     7.3175     0.7444   356.1600     6.9613    -0.0073
 1115   22.280   8599.04     7.1629     0.0726     0.1144     0.2228     7.2174     1.0100   356.4800     6.8609    -0.0136
 1116   22.300   8600.02     6.7462     0.0973     0.0802     0.2230     6.7819     1.4320   356.8000     6.4251    -0.0215
 1117   22.320   8601.00     5.9977     0.1314     0.0835     0.2232     6.0339     2.1618   357.1200     5.6768    -0.0242
 1118   22.340   8602.01     4.9142     0.1377     0.0935     0.2234     4.9508     2.7475   357.4400     4.5933    -0.0297
 1119   22.360   8603.07     3.7093     0.1269     0.0969     0.2236     3.7491     3.2500   357.7600     3.3914    -0.0382
 1120   22.380   8604.05     2.8469     0.1092     0.1258     0.2238     2.8935     3.7107   358.0800     2.5354    -0.0445
 1121   22.400   8605.02     2.2927     0.0903     0.1889     0.2240     2.3624     3.8072   358.4000     2.0040    -0.0285
 1122   22.420   8606.03     1.8552     0.0783     0.2640     0.2242     1.9556     4.0726   358.7200     1.5969     0.0099
 1123   22.440   8607.02     1.5557     0.0611     0.3249     0.2244     1.6823     3.8624   359.0400     1.3232     0.0585
 1124   22.460   8608.01     1.4379     0.0447     0.4244     0.2246     1.6007     3.0899   359.3600     1.2413     0.1314
 1125   22.480   8608.98     1.4101     0.0319     0.5159     0.2248     1.6139     2.2550   359.6800     1.2542     0.2076
 1126   22.500   8609.96     1.3815     0.0278     0.5892     0.2250     1.6189     2.0040   360.0000     1.2589     0.2703
 1127   22.520   8610.93     1.3422     0.0287     0.6231     0.2252     1.6003     2.1239   360.3200     1.2400     0.3141
 1128   22.540   8612.00     1.3058     0.0294     0.6721     0.2254     1.5807     2.2389   360.6400     1.2200     0.3517
 1129   22.560   8612.98     1.2778     0.0302     0.7126     0.2256     1.5719     2.3528   360.9600     1.2109     0.3919
 1130   22.580   8614.00     1.2798     0.0300     0.7326     0.2258     1.5857     2.3476   361.2800     1.2245     0.4105
 1131   22.600   8614.93     1.3181     0.0292     0.7166     0.2260     1.6232     2.2191   361.6000     1.2616     0.3968
 1132   22.620   8615.91     1.3014     0.0287     0.7013     0.2262     1.5962     2.1972   361.9200     1.2342     0.3853
 1133   22.640   8616.90     1.2503     0.0300     0.7492     0.2264     1.5598     2.3917   362.2400     1.1976     0.4264
 1134   22.660   8617.94     1.2360     0.0301     0.7739     0.2266     1.5580     2.4444   362.5600     1.1954     0.4517
 1135   22.680   8618.94     1.2544     0.0302     0.7962     0.2268     1.5862     2.4078   362.8800     1.2233     0.4604
 1136   22.700   8619.93     1.2575     0.0310     0.8012     0.2270     1.5930     2.4585   363.2000     1.2298     0.4649
 1137   22.720   8620.91     1.2441     0.0310     0.8190     0.2272     1.5869     2.4960   363.5200     1.2233     0.4814
 1138   22.740   8621.90     1.2390     0.0307     0.8387     0.2274     1.5885     2.4758   363.8400     1.2246     0.4938
 1139   22.760   8622.91     1.2075     0.0309     0.8515     0.2276     1.5633     2.5575   364.1600     1.1992     0.5166
 1140   22.780   8623.93     1.2031     0.0309     0.8529     0.2278     1.5604     2.5751   364.4800     1.1960     0.5210
 1141   22.800   8624.93     1.2097     0.0306     0.8695     0.2280     1.5727     2.5308   364.8000     1.2079     0.5268
 1142   22.820   8625.93     1.2049     0.0308     0.8709     0.2282     1.5707     2.5519   365.1200     1.2055     0.5332
 1143   22.840   8626.91     1.2070     0.0315     0.8662     0.2284     1.5700     2.6199   365.4400     1.2045     0.5279
 1144   22.860   8627.90     1.2207     0.0320     0.8773     0.2286     1.5875     2.6269   365.7600     1.2218     0.5278
 1145   22.880   8628.89     1.2223     0.0312     0.8837     0.2288     1.5938     2.5535   366.0800     1.2277     0.5341
 1146   22.900   8629.87     1.2231     0.0308     0.8665     0.2290     1.5902     2.5200   366.4000     1.2238     0.5270
 1147   22.920   8631.48     1.2246     0.0315     0.8659     0.2292     1.5882     2.5804   366.7200     1.2215     0.5211
 1148   22.940   8634.92     1.2386     0.0315     0.8665     0.2294     1.6024     2.5809   367.0400     1.2354     0.5156
 1149   22.960   8637.16     1.2383     0.0321     0.8836     0.2296     1.6084     2.5940   367.3600     1.2410     0.5251
 1150   22.980   8638.22     1.2145     0.0305     0.8962     0.2298     1.5889     2.5019   367.6800     1.2212     0.5417
 1151   23.000   8639.22     1.2295     0.0305     0.8974     0.2300     1.6070     2.4852   368.0000     1.2390     0.5397
 1152   23.020   8640.23     1.2405     0.0305     0.9209     0.2302     1.6238     2.4572   368.3200     1.2555     0.5437
 1153   23.040   8641.22     1.2466     0.0308     0.9253     0.2304     1.6365     2.4760   368.6400     1.2679     0.5504
 1154   23.060   8642.22     1.2469     0.0306     0.9281     0.2306     1.6374     2.4517   368.9600     1.2684     0.5511
 1155   23.080   8643.20     1.2391     0.0313     0.9153     0.2308     1.6245     2.5294   369.2800     1.2552     0.5472
 1156   23.100   8644.20     1.2315     0.0312     0.9172     0.2310     1.6166     2.5313   369.6000     1.2470     0.5500
 1157   23.120   8645.21     1.2085     0.0316     0.9136     0.2312     1.5938     2.5912   369.9200     1.2239     0.5607
 1158   23.140   8646.21     1.2010     0.0321     0.9178     0.2314     1.5854     2.6564   370.2400     1.2152     0.5629
 1159   23.160   8647.19     1.2284     0.0319     0.9137     0.2316     1.6134     2.6288   370.5600     1.2429     0.5513
 1160   23.180   8648.19     1.2278     0.0312     0.9173     0.2318     1.6115     2.5367   370.8800     1.2406     0.5496
 1161   23.200   8649.23     1.2111     0.0306     0.9251     0.2320     1.5973     2.5195   371.2000     1.2261     0.5608
 1162   23.220   8658.78     1.1995     0.0303     0.9260     0.2322     1.5886     2.5171   371.5200     1.2171     0.5705
 1163   23.240   8676.44     1.1940     0.0295     0.9245     0.2324     1.5825     2.4570   371.8400     1.2106     0.5721
 1164   23.260   8692.80     1.1871     0.0289     0.9307     0.2326     1.5756     2.4294   372.1600     1.2034     0.5753
 1165   23.280   8693.80     1.1877     0.0282     0.9293     0.2328     1.5778     2.3754   372.4800     1.2053     0.5774
 1166   23.300   8694.78     1.1856     0.0273     0.9359     0.2330     1.5764     2.3023   372.8000     1.2036     0.5795
 1167   23.320   8695.74     1.1692     0.0268     0.9548     0.2332     1.5676     2.2947   373.1200     1.1945     0.5988
 1168   23.340   8696.77     1.1659     0.0279     0.9645     0.2334     1.5686     2.3978   373.4400     1.1952     0.6069
 1169   23.360   8697.78     1.1683     0.0276     0.9705     0.2336     1.5744     2.3606   373.7600     1.2006     0.6107
 1170   23.380   8698.78     1.1910     0.0280     0.9673     0.2338     1.5986     2.3648   374.0800     1.2245     0.6017
 1171   23.400   8699.77     1.1997     0.0282     0.9598     0.2340     1.6051     2.3476   374.4000     1.2307     0.5941
 1172   23.420   8700.79     1.2046     0.0277     0.9646     0.2342     1.6083     2.2986   374.7200     1.2336     0.5894
 1173   23.440   8701.75     1.1941     0.0280     0.9763     0.2344     1.6015     2.3366   375.0400     1.2264     0.5998
 1174   23.460   8702.74     1.1734     0.0274     0.9883     0.2346     1.5876     2.3336   375.3600     1.2122     0.6199
 1175   23.480   8703.70     1.1495     0.0269     0.9936     0.2348     1.5659     2.3348   375.6800     1.1903     0.6357
 1176   23.500   8704.72     1.1687     0.0274     0.9844     0.2350     1.5834     2.3438   376.0000     1.2074     0.6232
 1177   23.520   8705.77     1.1626     0.0279     0.9776     0.2352     1.5745     2.4003   376.3200     1.1982     0.6222
 1178   23.540   8706.76     1.1435     0.0280     0.9825     0.2354     1.5542     2.4416   376.6400     1.1775     0.6304
 1179   23.560   8707.69     1.1506     0.0273     0.9846     0.2356     1.5645     2.3859   376.9600     1.1875     0.6315
 1180   23.580   8708.66     1.1673     0.0273     0.9711     0.2358     1.5787     2.3425   377.2800     1.2014     0.6190
 1181   23.600   8709.72     1.1681     0.0265     0.9659     0.2360     1.5743     2.2648   377.6000     1.1967     0.6109
 1182   23.620   8710.70     1.1583     0.0258     0.9763     0.2362     1.5680     2.2240   377.9200     1.1901     0.6211
 1183   23.640   8711.72     1.1471     0.0258     0.9811     0.2364     1.5585     2.2442   378.2400     1.1803     0.6296
 1184   23.660   8712.67     1.1514     0.0252     0.9809     0.2366     1.5638     2.1883   378.5600     1.1853     0.6288
 1185   23.680   8713.67     1.1611     0.0250     0.9762     0.2368     1.5705     2.1558   378.8800     1.1916     0.6192
 1186   23.700   8714.70     1.1712     0.0250     0.9725     0.2370     1.5812     2.1358   379.2000     1.2020     0.6148
 1187   23.720   8715.71     1.1899     0.0247     0.9647     0.2372     1.5964     2.0803   379.5200     1.2169     0.6004
 1188   23.740   8716.74     1.1975     0.0225     0.9674     0.2374     1.6041     1.8843   379.8400     1.2243     0.5968
 1189   23.760   8717.65     1.2247     0.0229     0.9630     0.2376     1.6300     1.8710   380.1600     1.2499     0.5819
 1190   23.780   8718.60     1.2599     0.0249     0.9517     0.2378     1.6610     1.9835   380.4800     1.2805     0.5601
 1191   23.800   8719.63     1.3032     0.0268     0.9358     0.2380     1.7003     2.0591   380.8000     1.3195     0.5362
 1192   23.820   8720.68     1.4037     0.0292     0.9249     0.2382     1.7933     2.1116   381.1200     1.4122     0.4882
 1193   23.840   8721.69     1.5618     0.0306     0.8503     0.2384     1.9331     2.0073   381.4400     1.5517     0.4161
 1194   23.860   8722.69     1.6099     0.0340     0.8283     0.2386     1.9607     2.1076   381.7600     1.5789     0.3778
 1195   23.880   8723.66     1.7012     0.0386     0.8344     0.2388     2.0475     2.2777   382.0800     1.6654     0.3517
 1196   23.900   8724.61     1.9979     0.0390     0.8055     0.2390     2.3454     1.9983   382.4000     1.9630     0.3003
 1197   23.920   8725.65     2.5990     0.0334     0.7216     0.2392     2.9176     1.3399   382.7200     2.5349     0.2057
 1198   23.940   8726.64     3.4958     0.0281     0.5593     0.2394     3.7540     0.9275   383.0400     3.3710     0.1122
 1199   23.960   8727.65     4.4841     0.0252     0.4414     0.2396     4.6881     0.6178   383.3600     4.3047     0.0574
 1200   23.980   8728.71     5.3582     0.0221     0.3654     0.2398     5.5220     0.4428   383.6800     5.1384     0.0293
 1201   24.000   8729.73     6.0465     0.0263     0.3118     0.2400     6.1786     0.4376   384.0000     5.7946     0.0129
 1202   24.020   8730.74     6.4709     0.0319     0.2952     0.2402     6.5954     0.4977   384.3200     6.2111     0.0090
 1203   24.040   8731.73     6.6009     0.0357     0.2856     0.2404     6.7265     0.5420   384.6400     6.3418     0.0093
 1204   24.060   8732.73     6.6766     0.0323     0.2686     0.2406     6.7903     0.4834   384.9600     6.4053     0.0047
 1205   24.080   8733.79     6.4402     0.0351     0.2894     0.2408     6.5574     0.5430   385.2800     6.1721     0.0062
 1206   24.100   8734.79     6.1887     0.0535     0.3042     0.2410     6.3124     0.8617   385.6000     5.9268     0.0090
 1207   24.120   8735.75     5.8628     0.0702     0.3029     0.2412     5.9914     1.1908   385.9200     5.6055     0.0116
 1208   24.140   8736.75     5.3307     0.0693     0.2882     0.2414     5.4530     1.2832   386.2400     5.0667     0.0098
 1209   24.160   8737.76     4.3647     0.0633     0.3143     0.2416     4.4889     1.4054   386.5600     4.1023     0.0133
 1210   24.180   8738.81     3.2867     0.0627     0.3655     0.2418     3.4332     1.8537   386.8800     3.0463     0.0353
 1211   24.200   8739.82     2.6565     0.0581     0.4455     0.2420     2.8305     2.1368   387.2000     2.4433     0.0709
 1212   24.220   8740.81     2.1538     0.0500     0.5086     0.2422     2.3624     2.2834   387.5200     1.9749     0.1291
 1213   24.240   8741.75     1.8850     0.0447     0.5754     0.2424     2.1157     2.3663   387.8400     1.7278     0.1775
 1214   24.260   8742.74     1.9169     0.0442     0.6293     0.2426     2.1768     2.3052   388.1600     1.7886     0.2103
 1215   24.280   8743.77     1.9506     0.0415     0.6744     0.2428     2.2277     2.1657   388.4800     1.8392     0.2267
 1216   24.300   8744.85     1.8922     0.0401     0.7091     0.2430     2.1822     2.0826   388.8000     1.7934     0.2495
 1217   24.320   8745.76     1.9193     0.0407     0.7836     0.2432     2.2318     2.1663   389.1200     1.8427     0.2718
 1218   24.340   8746.76     2.2311     0.0440     0.7955     0.2434     2.5652     2.0947   389.4400     2.1758     0.2540
 1219   24.360   8747.82     3.0338     0.0440     0.8015     0.2436     3.3714     1.5999   389.7600     2.9816     0.1901
 1220   24.380   8748.89     5.7523     0.0443     0.6852     0.2438     6.0630     0.8111   390.0800     5.6729     0.0909
 1221   24.400   8750.00    10.1491     0.0459     0.5184     0.2440    10.4039     0.4863   390.4000    10.0135     0.0374
 1222   24.420   8751.06    14.9471     0.0581     0.1540     0.2442    15.0599     0.4233   390.7200    14.6692     0.0021
 1223   24.440   8752.06    17.7068     0.0743    -0.0243     0.2444    17.7093     0.4340   391.0400    17.3183    -0.0137
 1224   24.460   8752.98    18.2740     0.0819    -0.0643     0.2446    18.2536     0.4482   391.3600    17.8622    -0.0164
 1225   24.480   8753.94    18.0466     0.0954    -0.0629     0.2448    18.0146     0.5254   391.6800    17.6229    -0.0182
 1226   24.500   8754.95    17.2748     0.1126     0.0092     0.2450    17.2718     0.6377   392.0000    16.8798    -0.0149
 1227   24.520   8755.90    16.2904     0.1339     0.0444     0.2452    16.3053     0.8040   392.3200    15.9130    -0.0132
 1228   24.540   8756.87    15.6541     0.1348     0.0724     0.2454    15.6792     0.8513   392.6400    15.2866    -0.0121
 1229   24.560   8757.84    15.4668     0.1180     0.1145     0.2456    15.5056     0.7617   392.9600    15.1126    -0.0101
 1230   24.580   8758.76    15.6417     0.0959     0.0883     0.2458    15.6859     0.6159   393.2800    15.2927    -0.0092
 1231   24.600   8759.71    15.8432     0.0927    -0.0089     0.2460    15.8610     0.5877   393.6000    15.4674    -0.0132
 1232   24.620   8760.66    16.1136     0.1003    -0.1055     0.2462    16.0806     0.6271   393.9200    15.6866    -0.0207
 1233   24.640   8761.62    15.9982     0.1158    -0.1610     0.2464    15.9354     0.7194   394.2400    15.5411    -0.0255
 1234   24.660   8762.56    15.5500     0.1367    -0.1739     0.2466    15.4779     0.8695   394.5600    15.0833    -0.0277
 1235   24.680   8763.55    15.1013     0.1618    -0.1350     0.2468    15.0375     1.0702   394.8800    14.6426    -0.0272
 1236   24.700   8764.51    15.1035     0.1627    -0.1273     0.2470    15.0512     1.0801   395.2000    14.6560    -0.0254
 1237   24.720   8765.44    15.6244     0.1676    -0.1249     0.2472    15.5666     1.0901   395.5200    15.1710    -0.0254
 1238   24.740   8766.39    16.8926     0.1364    -0.0813     0.2474    16.8532     0.8238   395.8400    16.4574    -0.0208
 1239   24.760   8767.37    19.6651     0.1196    -0.0946     0.2476    19.6276     0.6442   396.1600    19.2314    -0.0175
 1240   24.780   8768.52    24.7052               -0.1769     0.2478    24.6397              396.4800    24.2432    -0.0167
 1241   24.800   8769.61    30.8800               -0.2100     0.2480    30.7948              396.8000    30.3980    -0.0148
 1242   24.820   8770.78    37.8786               -0.1740     0.2482    37.7986              397.1200    37.4014    -0.0117
 1243   24.840   8771.87    45.0307               -0.1704     0.2484    44.9570              397.4400    44.5595    -0.0095
 1244   24.860   8773.06    52.0515               -0.1285     0.2486    51.9893              397.7600    51.5915    -0.0077
 1245   24.870   8773.72    55.8012                           0.2487    55.7510              397.9193    55.3531    -0.0066
 
 
