

 Program UNIPLOT                         version 05.36.02
 _______________
 (c) Fugro Netherlands Marine, Nootdorp, The Netherlands


 ASCII representation of data plotted on a graph.

 This ASCII file presents data interpolated to values per fixed depth interval.
 The data are corrected for the depth-offset differences between the various 
 transducers in the penetrometer.

 The records at the start of penetration may include no values or anomalous
 values where a depth offset implies incomplete penetration of a particular
 sensor into the ground.

 The records at the end of penetration may include no values for data channels
 where the transducer did not reach this depth.

 The reference level for test values is (1) the ground surface for onshore tests and (2) the seafloor for nearshore and offshore tests.

 UNICAS data file          : CPT-1034.000                            
 Output using command file : PlotASCII.cmd

 ASCII file created at : date          :20-Apr-2022
                         time          :10:19:33
 Project number                        :20024805                                                                                            
 Date of testing                       :11-Apr-2022                                                                                         
 Location                              :Hong Kong Offshore Wind Farm Project                                                                
 Test name                             :CPT-1034
 Penetrometer                          :F7.5CKE2HAW2/B/3342
 Serial no                             :1701-3342

 Table description:
 Column ID                             :Parameter name
 ___________________________________________________________________________________
 Rec                                   :Record ID, Record ID [-]
 Depth                                 :Depth, Depth [m]
 Time                                  :Time, Time [s]
 Cone                                  :Cone Resistance, Cone Resistance [MPa]
 Friction                              :Sleeve Friction, Sleeve Friction [MPa]
 Pore 2                                :Porewater Pressure, Porewater Pressure at Shoulder [MPa]
 HydroPress                            :Hydrostatic Pressure, Hydrostatic Pressure [MPa]
 qt                                    :Total Cone Resistance, Total Cone Resistance [MPa]
 Fric_ratio                            :Friction Ratio, Friction Ratio [%]
 SigmaVert                             :Vertical stress, Vertical stress [kPa] as specified in ground model
 Qnet                                  :Net Cone Resistance, Net Cone Resistance [MPa], unit weight as specified in ground model
 Bq                                    :Porewater Pressure Ratio, Porewater Pressure Ratio [-], unit weight as specified in ground model


 Data table:
  Rec    Depth      Time       Cone   Friction     Pore 2 HydroPress         qt Fric_ratio  SigmaVert       Qnet         Bq
   No        m         s        MPa        MPa        MPa        MPa        MPa          %        kPa        MPa          -
    1    0.000   1817.78     0.0000                           0.0000     0.0000                0.0000     0.0000           
    2    0.020   1818.77     0.0020                0.0004     0.0002     0.0023                0.3200     0.0019     0.1763
    3    0.040   1819.80     0.0055                0.0003     0.0004     0.0056                0.6400     0.0049    -0.0560
    4    0.060   1826.66     0.0035                0.0005     0.0006     0.0039                0.9600     0.0029     0.1459
    5    0.080   1827.75     0.0071     0.0003    -0.0006     0.0008     0.0069     4.2324     1.2800     0.0056    -0.2405
    6    0.100   1828.79     0.0047     0.0005    -0.0002     0.0010     0.0045     6.7046     1.6000     0.0029    -0.5371
    7    0.120   1829.88     0.0097     0.0009    -0.0005     0.0012     0.0095     9.9161     1.9200     0.0076    -0.2130
    8    0.140   1830.89     0.0085     0.0006     0.0002     0.0014     0.0085     9.1061     2.2400     0.0063    -0.1990
    9    0.160   1831.91     0.0081     0.0006     0.0013     0.0016     0.0085     7.1750     2.5600     0.0059    -0.1016
   10    0.180   1832.95     0.0077     0.0006     0.0018     0.0018     0.0083     6.7576     2.8800     0.0054    -0.0727
   11    0.200   1833.96     0.0074     0.0007     0.0022     0.0020     0.0083     8.7665     3.2000     0.0051     0.0539
   12    0.220   1834.98     0.0090     0.0010     0.0028     0.0022     0.0100    10.4958     3.5200     0.0065     0.0509
   13    0.240   1836.00     0.0103     0.0011     0.0026     0.0024     0.0114    13.2703     3.8400     0.0076     0.0206
   14    0.260   1837.08     0.0088     0.0012     0.0006     0.0026     0.0095    11.4976     4.1600     0.0053    -0.3275
   15    0.280   1838.10     0.0097     0.0012     0.0012     0.0028     0.0099    14.6870     4.4800     0.0054    -0.4265
   16    0.300   1839.14     0.0094     0.0012     0.0027     0.0030     0.0104    10.5443     4.8000     0.0056    -0.1162
   17    0.320   1840.15     0.0113     0.0009     0.0035     0.0032     0.0125     9.3204     5.1200     0.0074    -0.0371
   18    0.340   1841.19     0.0081     0.0008     0.0040     0.0034     0.0097     8.6144     5.4400     0.0043     0.1286
   19    0.360   1842.21     0.0055     0.0010     0.0045     0.0036     0.0073    15.6726     5.7600     0.0016     0.5397
   20    0.380   1843.25     0.0051     0.0010     0.0049     0.0038     0.0072    20.2607     6.0800     0.0011     1.0992
   21    0.400   1844.26     0.0031     0.0012     0.0059     0.0040     0.0050    48.9764     6.4000    -0.0014    -0.5087
   22    0.420   1845.32     0.0063     0.0011     0.0079     0.0042     0.0094    20.2631     6.7200     0.0027     1.2143
   23    0.440   1846.33     0.0088     0.0010     0.0075     0.0044     0.0120    18.6016     7.0400     0.0049     0.6596
   24    0.460   1847.32     0.0039     0.0013     0.0077     0.0046     0.0072    28.7009     7.3600    -0.0001           
   25    0.480   1848.39     0.0084     0.0011     0.0062     0.0048     0.0111    22.7374     7.6800     0.0034     0.5174
   26    0.500   1849.39     0.0047     0.0013     0.0070     0.0050     0.0074    21.0070     8.0000    -0.0006    -3.9552
   27    0.520   1850.40     0.0026     0.0009     0.0072     0.0052     0.0056    38.9362     8.3200    -0.0028    -0.6781
   28    0.540   1851.47     0.0050     0.0010     0.0078     0.0054     0.0081    21.0458     8.6400    -0.0005    -0.3671
   29    0.560   1852.48     0.0032     0.0013     0.0074     0.0056     0.0065    32.4191     8.9600    -0.0024    -1.4453
   30    0.580   1853.52     0.0067     0.0019     0.0082     0.0058     0.0102    92.6093     9.2800     0.0009     6.2718
   31    0.600   1854.53     0.0091     0.0015     0.0078     0.0060     0.0122    16.5614     9.6000     0.0026     0.6730
   32    0.620   1855.56     0.0099     0.0019     0.0066     0.0062     0.0129    22.2266     9.9200     0.0030     0.3407
   33    0.640   1856.59     0.0113     0.0019     0.0077     0.0064     0.0145    15.7405    10.2400     0.0043     0.3172
   34    0.660   1857.58     0.0106     0.0017     0.0069     0.0066     0.0137    16.6443    10.5600     0.0031     0.2463
   35    0.680   1858.60     0.0073     0.0020     0.0069     0.0068     0.0102    20.4122    10.8800    -0.0007    -0.0570
   36    0.700   1859.64     0.0089     0.0020     0.0081     0.0070     0.0121    27.3207    11.2000     0.0009     0.4193
   37    0.720   1860.67     0.0065     0.0022     0.0088     0.0072     0.0104    28.5538    11.5200    -0.0011    -2.5619
   38    0.740   1861.73     0.0092     0.0018     0.0092     0.0074     0.0126    24.5348    11.8400     0.0008     0.4806
   39    0.760   1862.76     0.0075     0.0020     0.0131     0.0076     0.0127    25.3444    12.1600     0.0005     6.9170
   40    0.780   1863.80     0.0077     0.0020     0.0127     0.0078     0.0131    35.8779    12.4800     0.0006     7.3372
   41    0.800   1864.77     0.0065     0.0018     0.0125     0.0080     0.0113    32.2464    12.8000    -0.0015    -2.2765
   42    0.820   1865.79     0.0079     0.0017     0.0132     0.0082     0.0136    26.5315    13.1200     0.0005     6.0586
   43    0.840   1866.87     0.0096     0.0019     0.0130     0.0084     0.0152    23.5079    13.4400     0.0017     3.7972
   44    0.860   1867.90     0.0143     0.0020     0.0140     0.0086     0.0199    14.0271    13.7600     0.0062     0.7930
   45    0.880   1869.27     0.0154     0.0019     0.0136     0.0088     0.0214    20.3366    14.0800     0.0073     0.7782
   46    0.900   1888.68     0.0204     0.0021     0.0109     0.0090     0.0254    26.4696    14.4000     0.0110     0.3667
   47    0.920   1910.45     0.0252     0.0021     0.0085     0.0092     0.0291    27.4612    14.7200     0.0143     0.0291
   48    0.940   1916.11     0.0230     0.0024     0.0085     0.0094     0.0266    10.7094    15.0400     0.0115    -0.0786
   49    0.960   1917.14     0.0174     0.0024     0.0077     0.0096     0.0207    13.9698    15.3600     0.0054    -0.3066
   50    0.980   1918.23     0.0187     0.0022     0.0070     0.0098     0.0215    11.9301    15.6800     0.0058    -0.5551
   51    1.000   1919.21     0.0158     0.0018     0.0093     0.0100     0.0194    10.5037    16.0000     0.0034    -0.4350
   52    1.020   1920.23     0.0135     0.0015     0.0122     0.0102     0.0181    10.9218    16.3200     0.0018     0.4374
   53    1.040   1921.26     0.0125     0.0015     0.0153     0.0104     0.0184    11.6786    16.6400     0.0018     2.1368
   54    1.060   1922.27     0.0143     0.0013     0.0181     0.0106     0.0217    11.1839    16.9600     0.0047     1.7301
   55    1.080   1923.29     0.0111     0.0013     0.0192     0.0108     0.0190    11.8646    17.2800     0.0018     4.6509
   56    1.100   1924.29     0.0133     0.0016     0.0189     0.0110     0.0213    11.5911    17.6000     0.0037     2.2036
   57    1.120   1925.33     0.0209     0.0016     0.0188     0.0112     0.0287     7.6697    17.9200     0.0108     0.6704
   58    1.140   1926.34     0.0167     0.0014     0.0189     0.0114     0.0246     8.2716    18.2400     0.0064     1.1776
   59    1.160   1927.36     0.0198     0.0015     0.0184     0.0116     0.0275     7.3327    18.5600     0.0089     0.7666
   60    1.180   1928.37     0.0180     0.0015     0.0194     0.0118     0.0261     8.5791    18.8800     0.0072     1.0258
   61    1.200   1929.40     0.0184     0.0018     0.0197     0.0120     0.0267     9.7191    19.2000     0.0075     1.0656
   62    1.220   1930.43     0.0205     0.0018     0.0196     0.0122     0.0288     8.8792    19.5200     0.0093     0.8251
   63    1.240   1931.43     0.0236     0.0019     0.0210     0.0124     0.0321     7.8569    19.8400     0.0123     0.6498
   64    1.260   1932.42     0.0221     0.0020     0.0214     0.0126     0.0311     8.6850    20.1600     0.0110     0.8321
   65    1.280   1933.46     0.0225     0.0019     0.0195     0.0128     0.0310     8.6162    20.4800     0.0105     0.7100
   66    1.300   1934.45     0.0233     0.0020     0.0209     0.0130     0.0317     9.4988    20.8000     0.0109     0.6645
   67    1.320   1935.49     0.0254     0.0023     0.0222     0.0132     0.0346    10.9164    21.1200     0.0135     0.6557
   68    1.340   1936.50     0.0312     0.0025     0.0228     0.0134     0.0408     8.8456    21.4400     0.0194     0.4872
   69    1.360   1937.54     0.0374     0.0023     0.0285     0.0136     0.0487     6.3159    21.7600     0.0269     0.4935
   70    1.380   1938.54     0.0402     0.0022     0.0241     0.0138     0.0512     5.5946    22.0800     0.0291     0.4220
   71    1.400   1939.55     0.0440     0.0023     0.0233     0.0140     0.0538     5.4363    22.4000     0.0314     0.2991
   72    1.420   1940.58     0.0449     0.0025     0.0259     0.0142     0.0554     5.5541    22.7200     0.0327     0.3257
   73    1.440   1941.60     0.0475     0.0026     0.0256     0.0144     0.0584     5.4586    23.0400     0.0353     0.3244
   74    1.460   1942.63     0.0518     0.0031     0.0251     0.0146     0.0624     5.9151    23.3600     0.0390     0.2724
   75    1.480   1943.65     0.0549     0.0028     0.0218     0.0148     0.0648     5.2386    23.6800     0.0411     0.2146
   76    1.500   1944.66     0.0516     0.0031     0.0200     0.0150     0.0601     6.0031    24.0000     0.0361     0.1447
   77    1.520   1945.66     0.0491     0.0029     0.0218     0.0152     0.0579     5.7563    24.3200     0.0336     0.1753
   78    1.540   1946.68     0.0468     0.0034     0.0207     0.0154     0.0560     7.2186    24.6400     0.0314     0.2109
   79    1.560   1947.71     0.0490     0.0032     0.0241     0.0156     0.0581     6.4689    24.9600     0.0332     0.1897
   80    1.580   1948.69     0.0566     0.0032     0.0289     0.0158     0.0685     5.7272    25.2800     0.0433     0.2931
   81    1.600   1949.72     0.0622     0.0031     0.0292     0.0160     0.0745     5.1723    25.6000     0.0489     0.2716
   82    1.620   1950.75     0.0594     0.0030     0.0256     0.0162     0.0706     5.1110    25.9200     0.0447     0.2348
   83    1.640   1951.73     0.0557     0.0030     0.0258     0.0164     0.0663     5.4086    26.2400     0.0401     0.2189
   84    1.660   1952.77     0.0517     0.0031     0.0259     0.0166     0.0623     6.0522    26.5600     0.0357     0.2393
   85    1.680   1953.80     0.0501     0.0026     0.0300     0.0168     0.0621     5.2044    26.8800     0.0353     0.3357
   86    1.700   1954.83     0.0500     0.0028     0.0364     0.0170     0.0643     5.6882    27.2000     0.0371     0.4559
   87    1.720   1955.81     0.0519     0.0028     0.0414     0.0172     0.0686     5.3411    27.5200     0.0411     0.5530
   88    1.740   1956.82     0.0526     0.0025     0.0440     0.0174     0.0709     4.6588    27.8400     0.0430     0.6058
   89    1.760   1957.83     0.0515     0.0022     0.0439     0.0176     0.0702     4.2950    28.1600     0.0421     0.6385
   90    1.780   1958.84     0.0501     0.0025     0.0417     0.0178     0.0679     5.1191    28.4800     0.0394     0.6210
   91    1.800   1959.86     0.0466     0.0018     0.0407     0.0180     0.0634     3.9341    28.8000     0.0346     0.6332
   92    1.820   1960.89     0.0429     0.0019     0.0432     0.0182     0.0608     4.4722    29.1200     0.0317     0.7712
   93    1.840   1961.92     0.0457     0.0019     0.0451     0.0184     0.0644     4.0566    29.4400     0.0350     0.7486
   94    1.860   1962.90     0.0477     0.0022     0.0445     0.0186     0.0665     4.8388    29.7600     0.0368     0.7125
   95    1.880   1963.94     0.0455     0.0024     0.0437     0.0188     0.0638     5.3018    30.0800     0.0338     0.7383
   96    1.900   1964.96     0.0526     0.0025     0.0419     0.0190     0.0700     5.0665    30.4000     0.0396     0.5708
   97    1.920   1966.01     0.0542     0.0024     0.0353     0.0192     0.0705     4.4625    30.7200     0.0397     0.4932
   98    1.940   1967.00     0.0521     0.0028     0.0313     0.0194     0.0663     5.2826    31.0400     0.0353     0.4055
   99    1.960   1968.05     0.0524     0.0024     0.0388     0.0196     0.0677     4.6020    31.3600     0.0363     0.4638
  100    1.980   1969.06     0.0554     0.0025     0.0437     0.0198     0.0732     4.6938    31.6800     0.0415     0.5440
  101    2.000   1970.06     0.0607     0.0029     0.0453     0.0200     0.0788     4.8216    32.0000     0.0468     0.4965
  102    2.020   1971.08     0.0640     0.0029     0.0476     0.0202     0.0841     4.6180    32.3200     0.0518     0.5335
  103    2.040   1972.09     0.0679     0.0027     0.0465     0.0204     0.0876     3.9658    32.6400     0.0549     0.4835
  104    2.060   1973.09     0.0698     0.0028     0.0466     0.0206     0.0891     4.1811    32.9600     0.0561     0.4515
  105    2.080   1974.16     0.0740     0.0026     0.0477     0.0208     0.0940     3.4844    33.2800     0.0607     0.4404
  106    2.100   1975.18     0.0704     0.0030     0.0493     0.0210     0.0907     4.3177    33.6000     0.0571     0.4794
  107    2.120   1976.19     0.0725     0.0033     0.0496     0.0212     0.0936     4.6604    33.9200     0.0597     0.4842
  108    2.140   1977.22     0.0795     0.0037     0.0479     0.0214     0.1000     4.6596    34.2400     0.0658     0.4183
  109    2.160   1978.22     0.0822     0.0038     0.0453     0.0216     0.1020     4.7050    34.5600     0.0674     0.3785
  110    2.180   1979.26     0.0760     0.0037     0.0418     0.0218     0.0937     4.8829    34.8800     0.0588     0.3465
  111    2.200   1980.27     0.0810     0.0040     0.0452     0.0220     0.0991     4.8691    35.2000     0.0639     0.3311
  112    2.220   1981.29     0.0753     0.0042     0.0494     0.0222     0.0958     5.4749    35.5200     0.0603     0.4425
  113    2.240   1982.33     0.0807     0.0036     0.0520     0.0224     0.1024     4.4768    35.8400     0.0665     0.4373
  114    2.260   1983.39     0.0872     0.0035     0.0551     0.0226     0.1095     4.1677    36.1600     0.0733     0.4168
  115    2.280   1984.41     0.0907     0.0034     0.0619     0.0228     0.1155     3.8673    36.4800     0.0790     0.4590
  116    2.300   1985.42     0.0934     0.0033     0.0649     0.0230     0.1203     3.5886    36.8000     0.0835     0.4929
  117    2.320   1986.40     0.0957     0.0037     0.0657     0.0232     0.1231     3.9720    37.1200     0.0860     0.4884
  118    2.340   1987.43     0.0993     0.0038     0.0656     0.0234     0.1275     3.9063    37.4400     0.0900     0.4859
  119    2.360   1988.48     0.0984     0.0036     0.0601     0.0236     0.1243     3.6030    37.7600     0.0865     0.4390
  120    2.380   1989.53     0.0955     0.0037     0.0579     0.0238     0.1200     3.8423    38.0800     0.0819     0.4213
  121    2.400   1990.55     0.0908     0.0037     0.0612     0.0240     0.1159     4.0910    38.4000     0.0775     0.4623
  122    2.420   1991.57     0.0853     0.0036     0.0680     0.0242     0.1128     4.0325    38.7200     0.0740     0.5572
  123    2.440   1992.57     0.0833     0.0033     0.0723     0.0244     0.1131     3.9844    39.0400     0.0740     0.6278
  124    2.460   1993.61     0.0886     0.0033     0.0737     0.0246     0.1193     3.7221    39.3600     0.0800     0.6078
  125    2.480   1994.65     0.0895     0.0030     0.0761     0.0248     0.1213     3.3532    39.6800     0.0816     0.6247
  126    2.500   1995.63     0.0935     0.0030     0.0765     0.0250     0.1255     3.1995    40.0000     0.0855     0.5993
  127    2.520   1996.65     0.0937     0.0030     0.0751     0.0252     0.1260     3.2527    40.3200     0.0857     0.6034
  128    2.540   1997.69     0.0957     0.0032     0.0730     0.0254     0.1263     3.2844    40.6400     0.0857     0.5540
  129    2.560   1998.68     0.0958     0.0030     0.0750     0.0256     0.1270     3.0724    40.9600     0.0860     0.5652
  130    2.580   1999.74     0.0955     0.0031     0.0720     0.0258     0.1263     3.2785    41.2800     0.0851     0.5613
  131    2.600   2000.74     0.0979     0.0029     0.0712     0.0260     0.1277     2.9342    41.6000     0.0861     0.5221
  132    2.620   2001.79     0.0964     0.0030     0.0723     0.0262     0.1262     3.0071    41.9200     0.0843     0.5308
  133    2.640   2002.80     0.0978     0.0034     0.0771     0.0264     0.1296     3.5182    42.2400     0.0874     0.5643
  134    2.660   2003.83     0.1008     0.0035     0.0787     0.0266     0.1336     3.5443    42.5600     0.0910     0.5649
  135    2.680   2004.83     0.1033     0.0032     0.0783     0.0268     0.1362     3.0252    42.8800     0.0933     0.5510
  136    2.700   2005.82     0.1039     0.0032     0.0775     0.0270     0.1365     3.1290    43.2000     0.0933     0.5446
  137    2.720   2006.85     0.1055     0.0033     0.0777     0.0272     0.1378     3.1082    43.5200     0.0943     0.5266
  138    2.740   2007.89     0.1104     0.0034     0.0772     0.0274     0.1430     3.1324    43.8400     0.0992     0.5071
  139    2.760   2008.94     0.1117     0.0038     0.0790     0.0276     0.1440     3.4620    44.1600     0.0999     0.4942
  140    2.780   2009.96     0.1163     0.0040     0.0705     0.0278     0.1488     3.5198    44.4800     0.1044     0.4758
  141    2.800   2011.00     0.1244     0.0042     0.0649     0.0280     0.1520     3.5732    44.8000     0.1072     0.3522
  142    2.820   2012.01     0.1254     0.0047     0.0671     0.0282     0.1535     3.8135    45.1200     0.1084     0.3573
  143    2.840   2013.05     0.1228     0.0049     0.0611     0.0284     0.1490     3.9054    45.4400     0.1035     0.3285
  144    2.860   2014.08     0.1087     0.0045     0.0615     0.0286     0.1348     4.0824    45.7600     0.0890     0.3778
  145    2.880   2015.09     0.1053     0.0046     0.0630     0.0288     0.1312     4.2777    46.0800     0.0851     0.3859
  146    2.900   2022.74     0.1093     0.0041     0.0648     0.0290     0.1362     5.2265    46.4000     0.0898     0.3918
  147    2.920   2040.68     0.1134     0.0041     0.0665     0.0292     0.1411     5.1844    46.7200     0.0943     0.3892
  148    2.940   2049.36     0.1141     0.0040     0.0683     0.0294     0.1428     3.4319    47.0400     0.0957     0.4059
  149    2.960   2050.34     0.1138     0.0037     0.0673     0.0296     0.1418     3.2990    47.3600     0.0945     0.3935
  150    2.980   2051.38     0.1056     0.0035     0.0686     0.0298     0.1346     3.1609    47.6800     0.0869     0.4514
  151    3.000   2052.42     0.1026     0.0030     0.0653     0.0300     0.1295     2.8831    48.0000     0.0815     0.4187
  152    3.020   2053.42     0.1036     0.0031     0.0661     0.0302     0.1322     2.9606    48.3200     0.0839     0.4529
  153    3.040   2054.48     0.1032     0.0029     0.0658     0.0304     0.1301     2.7547    48.6400     0.0815     0.4155
  154    3.060   2055.53     0.1022     0.0027     0.0689     0.0306     0.1307     2.6448    48.9600     0.0817     0.4553
  155    3.080   2056.49     0.1071     0.0026     0.0683     0.0308     0.1368     2.5177    49.2800     0.0875     0.4564
  156    3.100   2057.53     0.1092     0.0029     0.0692     0.0310     0.1388     2.7129    49.6000     0.0892     0.4410
  157    3.120   2058.53     0.1112     0.0031     0.0715     0.0312     0.1411     2.7990    49.9200     0.0911     0.4385
  158    3.140   2059.54     0.1068     0.0032     0.0646     0.0314     0.1351     2.9319    50.2400     0.0848     0.4246
  159    3.160   2060.57     0.1123     0.0031     0.0564     0.0316     0.1359     2.7654    50.5600     0.0854     0.2905
  160    3.180   2061.60     0.1106     0.0031     0.0618     0.0318     0.1358     2.8198    50.8800     0.0849     0.3334
  161    3.200   2062.64     0.1201     0.0033     0.0664     0.0320     0.1469     2.8313    51.2000     0.0957     0.3307
  162    3.220   2063.69     0.1077     0.0031     0.0746     0.0322     0.1382     2.7779    51.5200     0.0867     0.4647
  163    3.240   2064.66     0.1060     0.0028     0.0793     0.0324     0.1390     2.6214    51.8400     0.0872     0.5305
  164    3.260   2065.69     0.1018     0.0028     0.0810     0.0326     0.1355     2.7444    52.1600     0.0833     0.5699
  165    3.280   2066.74     0.1077     0.0025     0.0841     0.0328     0.1427     2.2966    52.4800     0.0902     0.5600
  166    3.300   2067.76     0.1118     0.0028     0.0846     0.0330     0.1476     2.4617    52.8000     0.0948     0.5514
  167    3.320   2068.81     0.1207     0.0027     0.0893     0.0332     0.1573     2.2841    53.1200     0.1042     0.5181
  168    3.340   2069.82     0.1267     0.0031     0.0876     0.0334     0.1646     2.5440    53.4400     0.1111     0.5103
  169    3.360   2070.83     0.1292     0.0032     0.0874     0.0336     0.1662     2.4273    53.7600     0.1124     0.4849
  170    3.380   2071.80     0.1344     0.0035     0.0800     0.0338     0.1690     2.6462    54.0800     0.1149     0.4234
  171    3.400   2072.83     0.1316     0.0033     0.0796     0.0340     0.1653     2.5068    54.4000     0.1109     0.4159
  172    3.420   2073.84     0.1385     0.0039     0.0802     0.0342     0.1726     2.8112    54.7200     0.1179     0.3998
  173    3.440   2074.87     0.1471     0.0042     0.0809     0.0344     0.1806     2.8695    55.0400     0.1255     0.3615
  174    3.460   2075.92     0.1481     0.0042     0.0834     0.0346     0.1822     2.8729    55.3600     0.1269     0.3680
  175    3.480   2076.95     0.1488     0.0041     0.0857     0.0348     0.1847     2.7263    55.6800     0.1290     0.3938
  176    3.500   2077.97     0.1553     0.0044     0.0840     0.0350     0.1903     2.8323    56.0000     0.1343     0.3597
  177    3.520   2078.94     0.1472     0.0040     0.0878     0.0352     0.1834     2.7300    56.3200     0.1271     0.4015
  178    3.540   2079.97     0.1521     0.0041     0.0860     0.0354     0.1887     2.6717    56.6400     0.1320     0.3908
  179    3.560   2080.96     0.1508     0.0038     0.0813     0.0356     0.1857     2.5306    56.9600     0.1288     0.3695
  180    3.580   2081.98     0.1506     0.0036     0.0835     0.0358     0.1858     2.4048    57.2800     0.1286     0.3743
  181    3.600   2083.02     0.1449     0.0038     0.0816     0.0360     0.1798     2.6137    57.6000     0.1222     0.3860
  182    3.620   2084.04     0.1560     0.0046     0.0726     0.0362     0.1883     2.9772    57.9200     0.1304     0.3142
  183    3.640   2085.06     0.1690     0.0046     0.0696     0.0364     0.1985     2.7523    58.2400     0.1403     0.2421
  184    3.660   2086.06     0.1731     0.0046     0.0634     0.0366     0.2006     2.6604    58.5600     0.1420     0.2027
  185    3.680   2087.08     0.1679     0.0047     0.0607     0.0368     0.1935     2.7626    58.8800     0.1347     0.1795
  186    3.700   2088.09     0.1595     0.0053     0.0601     0.0370     0.1850     3.2866    59.2000     0.1258     0.1883
  187    3.720   2089.07     0.1567     0.0052     0.0641     0.0372     0.1827     3.2229    59.5200     0.1232     0.2010
  188    3.740   2090.08     0.1451     0.0053     0.0696     0.0374     0.1744     3.5441    59.8400     0.1146     0.2830
  189    3.760   2091.10     0.1463     0.0047     0.0697     0.0376     0.1755     3.2364    60.1600     0.1153     0.2771
  190    3.780   2092.17     0.1461     0.0047     0.0738     0.0378     0.1768     3.2025    60.4800     0.1164     0.3044
  191    3.800   2093.20     0.1408     0.0042     0.0766     0.0380     0.1725     2.9518    60.8000     0.1117     0.3354
  192    3.820   2094.22     0.1426     0.0042     0.0752     0.0382     0.1744     2.9695    61.1200     0.1133     0.3312
  193    3.840   2095.22     0.1371     0.0038     0.0763     0.0384     0.1691     2.6959    61.4400     0.1077     0.3509
  194    3.860   2096.23     0.1377     0.0040     0.0750     0.0386     0.1694     2.9576    61.7600     0.1076     0.3431
  195    3.880   2097.24     0.1311     0.0039     0.0740     0.0388     0.1623     2.8600    62.0800     0.1002     0.3536
  196    3.900   2098.24     0.1286     0.0034     0.0734     0.0390     0.1592     2.5461    62.4000     0.0968     0.3506
  197    3.920   2099.25     0.1225     0.0034     0.0769     0.0392     0.1540     2.7331    62.7200     0.0912     0.3903
  198    3.940   2100.32     0.1227     0.0034     0.0827     0.0394     0.1570     2.7441    63.0400     0.0939     0.4499
  199    3.960   2101.33     0.1247     0.0033     0.0886     0.0396     0.1611     2.6173    63.3600     0.0978     0.4814
  200    3.980   2102.37     0.1291     0.0031     0.0916     0.0398     0.1669     2.4312    63.6800     0.1032     0.4878
  201    4.000   2103.37     0.1397     0.0025     0.0921     0.0400     0.1783     1.8154    64.0000     0.1143     0.4527
  202    4.020   2104.35     0.1442     0.0028     0.0906     0.0402     0.1829     1.9690    64.3200     0.1186     0.4393
  203    4.040   2105.34     0.1445     0.0031     0.0856     0.0404     0.1805     2.1453    64.6400     0.1159     0.3910
  204    4.060   2106.37     0.1461     0.0034     0.0849     0.0406     0.1814     2.3006    64.9600     0.1165     0.3736
  205    4.080   2107.40     0.1396     0.0038     0.0880     0.0408     0.1759     2.6603    65.2800     0.1107     0.4139
  206    4.100   2108.43     0.1452     0.0038     0.0865     0.0410     0.1822     2.6272    65.6000     0.1166     0.4031
  207    4.120   2109.45     0.1477     0.0038     0.0860     0.0412     0.1836     2.5639    65.9200     0.1177     0.3766
  208    4.140   2110.44     0.1473     0.0034     0.0911     0.0414     0.1848     2.3405    66.2400     0.1186     0.4047
  209    4.160   2111.44     0.1454     0.0037     0.0893     0.0416     0.1833     2.5090    66.5600     0.1168     0.4161
  210    4.180   2112.49     0.1395     0.0033     0.0904     0.0418     0.1774     2.2895    66.8800     0.1105     0.4395
  211    4.200   2113.51     0.1381     0.0035     0.0961     0.0420     0.1776     2.5229    67.2000     0.1104     0.4708
  212    4.220   2114.52     0.1404     0.0035     0.0990     0.0422     0.1820     2.5077    67.5200     0.1144     0.4950
  213    4.240   2115.55     0.1398     0.0034     0.1049     0.0424     0.1830     2.4219    67.8400     0.1152     0.5255
  214    4.260   2116.56     0.1494     0.0035     0.1047     0.0426     0.1934     2.4247    68.1600     0.1253     0.4976
  215    4.280   2117.61     0.1579     0.0034     0.0993     0.0428     0.2001     2.1841    68.4800     0.1316     0.4388
  216    4.300   2118.63     0.1575     0.0034     0.1004     0.0430     0.1995     2.1469    68.8000     0.1307     0.4367
  217    4.320   2119.63     0.1564     0.0035     0.1004     0.0432     0.1985     2.2447    69.1200     0.1294     0.4400
  218    4.340   2120.69     0.1580     0.0036     0.1000     0.0434     0.2001     2.2707    69.4400     0.1307     0.4353
  219    4.360   2121.70     0.1557     0.0037     0.0977     0.0436     0.1968     2.3008    69.7600     0.1270     0.4279
  220    4.380   2122.74     0.1579     0.0034     0.1037     0.0438     0.2008     2.1532    70.0800     0.1307     0.4473
  221    4.400   2123.72     0.1667     0.0042     0.1013     0.0440     0.2109     2.6468    70.4000     0.1405     0.4357
  222    4.420   2124.76     0.1733     0.0043     0.0974     0.0442     0.2143     2.5462    70.7200     0.1436     0.3728
  223    4.440   2125.81     0.1847     0.0043     0.0986     0.0444     0.2261     2.3944    71.0400     0.1551     0.3501
  224    4.460   2126.84     0.1921     0.0052     0.0926     0.0446     0.2318     2.7197    71.3600     0.1604     0.3114
  225    4.480   2127.88     0.2050     0.0062     0.0899     0.0448     0.2436     3.1272    71.6800     0.1719     0.2742
  226    4.500   2128.90     0.2148     0.0063     0.0870     0.0450     0.2507     2.9278    72.0000     0.1787     0.2268
  227    4.520   2129.88     0.2198     0.0065     0.0879     0.0452     0.2566     2.9436    72.3200     0.1843     0.2306
  228    4.540   2130.92     0.2248     0.0069     0.0857     0.0454     0.2602     3.0557    72.6400     0.1876     0.2077
  229    4.560   2131.95     0.2267     0.0070     0.0867     0.0456     0.2634     3.0783    72.9600     0.1904     0.2201
  230    4.580   2132.98     0.2187     0.0069     0.0827     0.0458     0.2540     3.1613    73.2800     0.1807     0.2117
  231    4.600   2133.99     0.2115     0.0070     0.0861     0.0460     0.2468     3.3291    73.6000     0.1732     0.2191
  232    4.620   2135.01     0.2145     0.0069     0.0835     0.0462     0.2500     3.2127    73.9200     0.1761     0.2173
  233    4.640   2136.03     0.2153     0.0064     0.0833     0.0464     0.2500     2.9828    74.2400     0.1757     0.2063
  234    4.660   2137.06     0.2091     0.0060     0.0849     0.0466     0.2446     2.8682    74.5600     0.1701     0.2229
  235    4.680   2138.07     0.2045     0.0064     0.0894     0.0468     0.2412     3.0920    74.8800     0.1663     0.2435
  236    4.700   2139.08     0.2031     0.0060     0.0930     0.0470     0.2420     2.9884    75.2000     0.1668     0.2740
  237    4.720   2140.10     0.2000     0.0062     0.0931     0.0472     0.2389     3.0897    75.5200     0.1634     0.2784
  238    4.740   2141.15     0.2031     0.0064     0.0944     0.0474     0.2431     3.1910    75.8400     0.1672     0.2862
  239    4.760   2142.18     0.2041     0.0066     0.0977     0.0476     0.2445     3.1882    76.1600     0.1684     0.2892
  240    4.780   2143.21     0.2020     0.0062     0.0954     0.0478     0.2431     3.0363    76.4800     0.1667     0.3008
  241    4.800   2144.24     0.1994     0.0061     0.0968     0.0480     0.2395     3.0252    76.8000     0.1627     0.2923
  242    4.820   2157.22     0.1953     0.0063     0.0993     0.0482     0.2367     3.1714    77.1200     0.1596     0.3156
  243    4.840   2171.06     0.1916     0.0059     0.1018     0.0484     0.2339     2.9636    77.4400     0.1565     0.3363
  244    4.860   2182.97     0.1884     0.0059     0.1047     0.0486     0.2319     3.0196    77.7600     0.1541     0.3563
  245    4.880   2184.00     0.1892     0.0057     0.1089     0.0488     0.2350     2.9892    78.0800     0.1569     0.3843
  246    4.900   2185.01     0.1844     0.0055     0.1124     0.0490     0.2314     2.9237    78.4000     0.1530     0.4124
  247    4.920   2186.03     0.1797     0.0054     0.1165     0.0492     0.2280     2.9851    78.7200     0.1493     0.4404
  248    4.940   2187.10     0.1714     0.0048     0.1166     0.0494     0.2207     2.7783    79.0400     0.1417     0.4793
  249    4.960   2188.10     0.1692     0.0044     0.1176     0.0496     0.2180     2.6218    79.3600     0.1387     0.4816
  250    4.980   2189.13     0.1727     0.0043     0.1148     0.0498     0.2214     2.4984    79.6800     0.1418     0.4685
  251    5.000   2190.14     0.1693     0.0043     0.1099     0.0500     0.2162     2.5255    80.0000     0.1362     0.4522
  252    5.020   2191.12     0.1730     0.0046     0.1098     0.0502     0.2191     2.6538    80.3200     0.1388     0.4302
  253    5.040   2192.14     0.1782     0.0052     0.1048     0.0504     0.2232     2.9079    80.6400     0.1426     0.3986
  254    5.060   2193.15     0.1772     0.0050     0.0986     0.0506     0.2195     2.7940    80.9600     0.1385     0.3619
  255    5.080   2194.13     0.1753     0.0048     0.0936     0.0508     0.2149     2.7410    81.2800     0.1336     0.3258
  256    5.100   2195.16     0.1663     0.0048     0.0943     0.0510     0.2056     2.8839    81.6000     0.1240     0.3426
  257    5.120   2196.17     0.1610     0.0049     0.0996     0.0512     0.2020     3.0316    81.9200     0.1200     0.3863
  258    5.140   2197.18     0.1596     0.0043     0.1046     0.0514     0.2029     2.6941    82.2400     0.1207     0.4281
  259    5.160   2198.17     0.1569     0.0046     0.1104     0.0516     0.2023     2.9680    82.5600     0.1198     0.4732
  260    5.180   2199.20     0.1588     0.0043     0.1097     0.0518     0.2053     2.7176    82.8800     0.1224     0.4817
  261    5.200   2200.22     0.1641     0.0044     0.1070     0.0520     0.2093     2.6857    83.2000     0.1261     0.4421
  262    5.220   2201.21     0.1607     0.0043     0.1042     0.0522     0.2056     2.6152    83.5200     0.1221     0.4474
  263    5.240   2202.23     0.1590     0.0039     0.1005     0.0524     0.2001     2.4692    83.8400     0.1162     0.3907
  264    5.260   2203.27     0.1559     0.0038     0.1075     0.0526     0.2002     2.3890    84.1600     0.1161     0.4566
  265    5.280   2204.30     0.1558     0.0042     0.1111     0.0528     0.2021     2.7245    84.4800     0.1176     0.4892
  266    5.300   2205.29     0.1509     0.0043     0.1132     0.0530     0.1982     2.8192    84.8000     0.1134     0.5244
  267    5.320   2206.31     0.1542     0.0042     0.1134     0.0532     0.2026     2.7540    85.1200     0.1175     0.5282
  268    5.340   2207.32     0.1568     0.0043     0.1045     0.0534     0.2008     2.7317    85.4400     0.1154     0.4464
  269    5.360   2208.38     0.1528     0.0041     0.1050     0.0536     0.1967     2.6411    85.7600     0.1110     0.4594
  270    5.380   2209.36     0.1501     0.0041     0.1064     0.0538     0.1946     2.7418    86.0800     0.1086     0.4823
  271    5.400   2210.39     0.1455     0.0040     0.1100     0.0540     0.1907     2.7003    86.4000     0.1043     0.5152
  272    5.420   2211.42     0.1420     0.0045     0.1122     0.0542     0.1893     3.1642    86.7200     0.1026     0.5695
  273    5.440   2212.34     0.1443     0.0046     0.1124     0.0544     0.1913     3.2075    87.0400     0.1043     0.5519
  274    5.460   2213.24     0.1433     0.0041     0.1115     0.0546     0.1900     2.8936    87.3600     0.1026     0.5510
  275    5.480   2214.24     0.1447     0.0039     0.1150     0.0548     0.1927     2.6964    87.6800     0.1050     0.5652
  276    5.500   2215.22     0.1451     0.0039     0.1145     0.0550     0.1932     2.7081    88.0000     0.1052     0.5653
  277    5.520   2216.25     0.1491     0.0041     0.1168     0.0552     0.1980     2.7706    88.3200     0.1097     0.5573
  278    5.540   2217.28     0.1543     0.0044     0.1187     0.0554     0.2042     2.9129    88.6400     0.1156     0.5496
  279    5.560   2218.32     0.1580     0.0042     0.1175     0.0556     0.2077     2.7222    88.9600     0.1187     0.5286
  280    5.580   2219.29     0.1616     0.0043     0.1149     0.0558     0.2107     2.6740    89.2800     0.1214     0.5035
  281    5.600   2220.33     0.1589     0.0045     0.1106     0.0560     0.2060     2.8451    89.6000     0.1164     0.4840
  282    5.620   2221.36     0.1646     0.0047     0.1184     0.0562     0.2127     2.8900    89.9200     0.1228     0.4754
  283    5.640   2222.39     0.1746     0.0050     0.1267     0.0564     0.2262     2.9845    90.2400     0.1360     0.4887
  284    5.660   2223.42     0.1823     0.0050     0.1212     0.0566     0.2353     2.7264    90.5600     0.1447     0.4812
  285    5.680   2224.46     0.1904     0.0051     0.1206     0.0568     0.2410     2.7584    90.8800     0.1501     0.4238
  286    5.700   2225.37     0.1882     0.0050     0.1205     0.0570     0.2385     2.6443    91.2000     0.1473     0.4255
  287    5.720   2226.20     0.1880     0.0049     0.1182     0.0572     0.2378     2.6142    91.5200     0.1463     0.4194
  288    5.740   2227.04     0.1846     0.0050     0.1238     0.0574     0.2357     2.6793    91.8400     0.1439     0.4469
  289    5.760   2227.99     0.1847     0.0049     0.1217     0.0576     0.2355     2.6729    92.1600     0.1434     0.4424
  290    5.780   2229.07     0.1838     0.0050     0.1190     0.0578     0.2327     2.6682    92.4800     0.1402     0.4178
  291    5.800   2230.05     0.1808     0.0050     0.1234     0.0580     0.2313     2.7369    92.8000     0.1385     0.4493
  292    5.820   2231.08     0.1765     0.0050     0.1288     0.0582     0.2301     2.8073    93.1200     0.1370     0.5062
  293    5.840   2232.12     0.1759     0.0049     0.1314     0.0584     0.2312     2.7680    93.4400     0.1377     0.5323
  294    5.860   2233.17     0.1844     0.0051     0.1296     0.0586     0.2388     2.8335    93.7600     0.1451     0.4888
  295    5.880   2234.21     0.1786     0.0049     0.1333     0.0588     0.2337     2.7460    94.0800     0.1396     0.5186
  296    5.900   2235.22     0.1789     0.0051     0.1350     0.0590     0.2355     2.8434    94.4000     0.1411     0.5377
  297    5.920   2236.25     0.1816     0.0052     0.1359     0.0592     0.2388     2.8993    94.7200     0.1441     0.5340
  298    5.940   2237.28     0.1774     0.0049     0.1353     0.0594     0.2345     2.7546    95.0400     0.1395     0.5486
  299    5.960   2238.31     0.1739     0.0052     0.1322     0.0596     0.2307     2.9755    95.3600     0.1353     0.5593
  300    5.980   2239.30     0.1744     0.0051     0.1340     0.0598     0.2309     2.9236    95.6800     0.1353     0.5529
  301    6.000   2240.32     0.1769     0.0051     0.1364     0.0600     0.2339     2.8758    96.0000     0.1379     0.5492
  302    6.020   2241.36     0.1792     0.0051     0.1344     0.0602     0.2358     2.8748    96.3200     0.1395     0.5349
  303    6.040   2242.37     0.1782     0.0051     0.1346     0.0604     0.2337     2.8750    96.6400     0.1370     0.5236
  304    6.060   2243.37     0.1787     0.0051     0.1382     0.0606     0.2368     2.8631    96.9600     0.1398     0.5565
  305    6.080   2244.40     0.1806     0.0049     0.1405     0.0608     0.2393     2.7380    97.2800     0.1420     0.5560
  306    6.100   2245.43     0.1823     0.0049     0.1381     0.0610     0.2409     2.6798    97.6000     0.1433     0.5482
  307    6.120   2246.44     0.1856     0.0050     0.1339     0.0612     0.2418     2.6923    97.9200     0.1439     0.5054
  308    6.140   2247.45     0.1896     0.0053     0.1335     0.0614     0.2453     2.8526    98.2400     0.1471     0.4855
  309    6.160   2248.46     0.2037     0.0056     0.1360     0.0616     0.2599     2.7213    98.5600     0.1614     0.4486
  310    6.180   2249.48     0.1990     0.0053     0.1376     0.0618     0.2561     2.6726    98.8800     0.1572     0.4721
  311    6.200   2250.48     0.1991     0.0055     0.1385     0.0620     0.2576     2.7769    99.2000     0.1584     0.4880
  312    6.220   2251.47     0.1992     0.0056     0.1363     0.0622     0.2553     2.8093    99.5200     0.1558     0.4576
  313    6.240   2252.50     0.2003     0.0055     0.1371     0.0624     0.2573     2.7646    99.8400     0.1575     0.4666
  314    6.260   2253.54     0.1992     0.0055     0.1371     0.0626     0.2572     2.7470   100.1600     0.1570     0.4810
  315    6.280   2254.55     0.2047     0.0054     0.1327     0.0628     0.2614     2.6602   100.4800     0.1609     0.4491
  316    6.300   2255.58     0.2056     0.0057     0.1342     0.0630     0.2617     2.7597   100.8000     0.1609     0.4393
  317    6.320   2256.59     0.2051     0.0058     0.1359     0.0632     0.2617     2.8481   101.1200     0.1605     0.4446
  318    6.340   2257.62     0.2042     0.0062     0.1328     0.0634     0.2614     3.0398   101.4400     0.1600     0.4554
  319    6.360   2258.63     0.2037     0.0058     0.1319     0.0636     0.2580     2.8365   101.7600     0.1562     0.4202
  320    6.380   2259.60     0.2034     0.0058     0.1377     0.0638     0.2605     2.9057   102.0800     0.1584     0.4550
  321    6.400   2260.63     0.1990     0.0058     0.1424     0.0640     0.2583     2.9416   102.4000     0.1559     0.4941
  322    6.420   2261.65     0.1966     0.0056     0.1476     0.0642     0.2581     2.8688   102.7200     0.1554     0.5285
  323    6.440   2262.66     0.1959     0.0054     0.1498     0.0644     0.2585     2.7695   103.0400     0.1555     0.5454
  324    6.460   2263.65     0.1961     0.0054     0.1494     0.0646     0.2589     2.7756   103.3600     0.1555     0.5457
  325    6.480   2264.67     0.1981     0.0054     0.1517     0.0648     0.2616     2.7095   103.6800     0.1579     0.5463
  326    6.500   2265.73     0.2002     0.0052     0.1511     0.0650     0.2641     2.6202   104.0000     0.1601     0.5436
  327    6.520   2266.71     0.2031     0.0060     0.1516     0.0652     0.2661     2.9760   104.3200     0.1618     0.5239
  328    6.540   2267.74     0.2008     0.0067     0.1507     0.0654     0.2644     3.3318   104.6400     0.1598     0.5396
  329    6.560   2268.77     0.2023     0.0066     0.1516     0.0656     0.2655     3.2673   104.9600     0.1605     0.5279
  330    6.580   2269.80     0.1989     0.0064     0.1531     0.0658     0.2635     3.1623   105.2800     0.1582     0.5559
  331    6.600   2270.79     0.1980     0.0064     0.1502     0.0660     0.2616     3.1994   105.6000     0.1560     0.5474
  332    6.620   2297.54     0.1962     0.0063     0.1466     0.0662     0.2583     3.1916   105.9200     0.1524     0.5351
  333    6.640   2325.80     0.1946     0.0063     0.1430     0.0664     0.2551     3.1719   106.2400     0.1489     0.5220
  334    6.660   2350.94     0.1933     0.0059     0.1448     0.0666     0.2529     3.0627   106.5600     0.1463     0.5147
  335    6.680   2351.56     0.1926     0.0057     0.1539     0.0668     0.2558     2.9647   106.8800     0.1489     0.5629
  336    6.700   2352.20     0.1868     0.0062     0.1526     0.0670     0.2514     3.2452   107.2000     0.1442     0.6023
  337    6.720   2352.86     0.1833     0.0064     0.1442     0.0672     0.2449     3.4384   107.5200     0.1374     0.5775
  338    6.740   2353.49     0.1804     0.0062     0.1402     0.0674     0.2396     3.4291   107.8400     0.1318     0.5586
  339    6.760   2354.14     0.1774     0.0065     0.1408     0.0676     0.2363     3.6173   108.1600     0.1282     0.5674
  340    6.780   2354.75     0.1762     0.0065     0.1464     0.0678     0.2371     3.6683   108.4800     0.1287     0.6011
  341    6.800   2355.45     0.1687     0.0062     0.1522     0.0680     0.2313     3.6448   108.8000     0.1225     0.6617
  342    6.820   2356.10     0.1623     0.0060     0.1561     0.0682     0.2275     3.4730   109.1200     0.1184     0.7354
  343    6.840   2356.76     0.1632     0.0057     0.1436     0.0684     0.2249     3.3012   109.4400     0.1155     0.6791
  344    6.860   2357.36     0.1756     0.0055     0.1448     0.0686     0.2351     3.1295   109.7600     0.1254     0.5824
  345    6.880   2358.02     0.1811     0.0054     0.1544     0.0688     0.2446     2.9524   110.0800     0.1345     0.6118
  346    6.900   2358.65     0.1816     0.0057     0.1558     0.0690     0.2471     3.1932   110.4000     0.1367     0.6362
  347    6.920   2368.01     0.1872     0.0062     0.1549     0.0692     0.2524     3.3491   110.7200     0.1417     0.6084
  348    6.940   2381.31     0.1923     0.0064     0.1540     0.0694     0.2571     3.4969   111.0400     0.1461     0.5830
  349    6.960   2394.61     0.1974     0.0065     0.1530     0.0696     0.2618     3.5318   111.3600     0.1504     0.5576
  350    6.980   2400.49     0.2028     0.0067     0.1487     0.0698     0.2666     3.3457   111.6800     0.1549     0.5291
  351    7.000   2401.51     0.1992     0.0069     0.1548     0.0700     0.2634     3.4407   112.0000     0.1514     0.5471
  352    7.020   2402.55     0.1960     0.0067     0.1597     0.0702     0.2623     3.3778   112.3200     0.1500     0.5844
  353    7.040   2403.59     0.1936     0.0063     0.1626     0.0704     0.2612     3.2424   112.6400     0.1486     0.6107
  354    7.060   2404.65     0.1892     0.0059     0.1664     0.0706     0.2588     3.0179   112.9600     0.1459     0.6539
  355    7.080   2405.66     0.1876     0.0060     0.1703     0.0708     0.2588     3.1991   113.2800     0.1455     0.6785
  356    7.100   2406.69     0.1956     0.0054     0.1693     0.0710     0.2668     2.8077   113.6000     0.1532     0.6430
  357    7.120   2407.67     0.2003     0.0055     0.1734     0.0712     0.2723     2.7756   113.9200     0.1584     0.6335
  358    7.140   2408.66     0.2045     0.0053     0.1751     0.0714     0.2780     2.6118   114.2400     0.1638     0.6335
  359    7.160   2409.70     0.2113     0.0048     0.1744     0.0716     0.2851     2.2921   114.5600     0.1705     0.6107
  360    7.180   2410.79     0.2116     0.0052     0.1694     0.0718     0.2828     2.4499   114.8800     0.1679     0.5821
  361    7.200   2411.77     0.2140     0.0058     0.1650     0.0720     0.2841     2.7717   115.2000     0.1689     0.5618
  362    7.220   2412.83     0.2077     0.0064     0.1669     0.0722     0.2776     3.0340   115.5200     0.1621     0.5817
  363    7.240   2413.79     0.2040     0.0067     0.1644     0.0724     0.2738     3.2598   115.8400     0.1580     0.5936
  364    7.260   2414.82     0.2079     0.0067     0.1598     0.0726     0.2759     3.2446   116.1600     0.1597     0.5588
  365    7.280   2415.85     0.2002     0.0061     0.1638     0.0728     0.2675     2.9596   116.4800     0.1510     0.5794
  366    7.300   2416.90     0.1890     0.0065     0.1741     0.0730     0.2601     3.3351   116.8000     0.1433     0.6729
  367    7.320   2417.93     0.1831     0.0064     0.1760     0.0732     0.2574     3.5134   117.1200     0.1402     0.7386
  368    7.340   2418.97     0.1914     0.0060     0.1733     0.0734     0.2637     3.1561   117.4400     0.1463     0.6747
  369    7.360   2419.92     0.1977     0.0060     0.1830     0.0736     0.2729     3.0866   117.7600     0.1551     0.6798
  370    7.380   2420.99     0.2040     0.0058     0.1885     0.0738     0.2828     2.8609   118.0800     0.1648     0.6914
  371    7.400   2422.05     0.2058     0.0058     0.1897     0.0740     0.2851     2.8297   118.4000     0.1667     0.6886
  372    7.420   2423.05     0.2116     0.0059     0.1889     0.0742     0.2915     2.8086   118.7200     0.1728     0.6716
  373    7.440   2424.03     0.2208     0.0061     0.1872     0.0744     0.2992     2.8033   119.0400     0.1802     0.6240
  374    7.460   2425.05     0.2205     0.0068     0.1924     0.0746     0.3005     3.0960   119.3600     0.1811     0.6391
  375    7.480   2426.09     0.2274     0.0071     0.1958     0.0748     0.3090     3.1280   119.6800     0.1893     0.6309
  376    7.500   2427.13     0.2351     0.0069     0.1952     0.0750     0.3172     2.9776   120.0000     0.1972     0.6109
  377    7.520   2428.14     0.2380     0.0070     0.1969     0.0752     0.3203     2.9696   120.3200     0.1999     0.6036
  378    7.540   2429.19     0.2475     0.0071     0.2001     0.0754     0.3310     2.8576   120.6400     0.2104     0.5868
  379    7.560   2430.17     0.2594     0.0072     0.2028     0.0756     0.3447     2.7824   120.9600     0.2237     0.5701
  380    7.580   2431.16     0.2717     0.0079     0.1894     0.0758     0.3535     2.9646   121.2800     0.2322     0.5124
  381    7.600   2432.22     0.2800     0.0081     0.1732     0.0760     0.3555     2.9099   121.6000     0.2339     0.4437
  382    7.620   2433.25     0.2680     0.0078     0.1624     0.0762     0.3375     2.8875   121.9200     0.2155     0.4137
  383    7.640   2434.28     0.2485     0.0084     0.1612     0.0764     0.3157     3.3040   122.2400     0.1934     0.4314
  384    7.660   2435.30     0.2499     0.0085     0.1635     0.0766     0.3182     3.4448   122.5600     0.1956     0.4392
  385    7.680   2436.32     0.2464     0.0084     0.1711     0.0768     0.3173     3.3789   122.8800     0.1945     0.4735
  386    7.700   2437.32     0.2350     0.0080     0.1736     0.0770     0.3079     3.3378   123.2000     0.1847     0.5236
  387    7.720   2438.33     0.2456     0.0079     0.1701     0.0772     0.3174     3.2705   123.5200     0.1939     0.4840
  388    7.740   2439.37     0.2449     0.0075     0.1741     0.0774     0.3171     2.9925   123.8400     0.1933     0.4888
  389    7.760   2440.45     0.2494     0.0078     0.1790     0.0776     0.3233     3.1219   124.1600     0.1991     0.4936
  390    7.780   2441.51     0.2666     0.0078     0.1738     0.0778     0.3408     3.0315   124.4800     0.2164     0.4579
  391    7.800   2442.52     0.2880     0.0080     0.1802     0.0780     0.3627     2.7303   124.8000     0.2379     0.4197
  392    7.820   2443.50     0.2942     0.0084     0.1768     0.0782     0.3693     2.9379   125.1200     0.2442     0.4126
  393    7.840   2444.52     0.3028     0.0084     0.1871     0.0784     0.3800     2.8650   125.4400     0.2546     0.4142
  394    7.860   2445.52     0.2977     0.0083     0.1886     0.0786     0.3774     2.7413   125.7600     0.2516     0.4415
  395    7.880   2446.58     0.3009     0.0083     0.1896     0.0788     0.3807     2.7819   126.0800     0.2546     0.4363
  396    7.900   2447.62     0.2996     0.0081     0.1970     0.0790     0.3809     2.7138   126.4000     0.2545     0.4498
  397    7.920   2448.64     0.2962     0.0086     0.2015     0.0792     0.3809     2.8787   126.7200     0.2542     0.4822
  398    7.940   2449.67     0.3007     0.0089     0.2018     0.0794     0.3857     2.9578   127.0400     0.2587     0.4756
  399    7.960   2450.70     0.3031     0.0093     0.1989     0.0796     0.3873     3.0936   127.3600     0.2599     0.4648
  400    7.980   2451.67     0.3135     0.0088     0.1963     0.0798     0.3962     2.8331   127.6800     0.2685     0.4364
  401    8.000   2452.68     0.3179     0.0091     0.1893     0.0800     0.3979     2.9090   128.0000     0.2699     0.4094
  402    8.020   2453.76     0.3152     0.0090     0.1909     0.0802     0.3951     2.8263   128.3200     0.2668     0.4128
  403    8.040   2454.78     0.3116     0.0086     0.1927     0.0804     0.3926     2.7457   128.6400     0.2640     0.4260
  404    8.060   2455.80     0.3015     0.0091     0.1895     0.0806     0.3834     2.9971   128.9600     0.2544     0.4490
  405    8.080   2456.84     0.3003     0.0083     0.1959     0.0808     0.3817     2.7702   129.2800     0.2524     0.4475
  406    8.100   2457.81     0.2885     0.0075     0.2062     0.0810     0.3748     2.5364   129.6000     0.2452     0.5079
  407    8.120   2458.87     0.2751     0.0071     0.2162     0.0812     0.3631     2.4815   129.9200     0.2332     0.5506
  408    8.140   2459.90     0.2751     0.0070     0.1903     0.0814     0.3606     2.5935   130.2400     0.2304     0.5312
  409    8.160   2460.91     0.2651     0.0067     0.2239     0.0816     0.3574     2.4020   130.5600     0.2269     0.6091
  410    8.180   2461.93     0.2708     0.0066     0.2286     0.0818     0.3667     2.4658   130.8800     0.2358     0.6217
  411    8.200   2462.96     0.2817     0.0066     0.2279     0.0820     0.3779     2.4022   131.2000     0.2467     0.5962
  412    8.220   2464.03     0.3000     0.0066     0.2240     0.0822     0.3950     2.1884   131.5200     0.2635     0.5464
  413    8.240   2465.06     0.2963     0.0058     0.2215     0.0824     0.3903     1.9606   131.8400     0.2584     0.5464
  414    8.260   2466.08     0.3062     0.0064     0.2100     0.0826     0.3943     2.0996   132.1600     0.2621     0.4849
  415    8.280   2467.09     0.2966     0.0066     0.2252     0.0828     0.3900     2.2005   132.4800     0.2575     0.5418
  416    8.300   2468.11     0.2992     0.0068     0.2270     0.0830     0.3942     2.2894   132.8000     0.2614     0.5479
  417    8.320   2469.10     0.3129     0.0066     0.2264     0.0832     0.4080     2.1417   133.1200     0.2749     0.5215
  418    8.340   2470.15     0.3151     0.0065     0.2135     0.0834     0.4076     2.0701   133.4400     0.2742     0.4992
  419    8.360   2471.18     0.3063     0.0062     0.2090     0.0836     0.3933     2.0016   133.7600     0.2595     0.4762
  420    8.380   2472.21     0.3027     0.0067     0.2194     0.0838     0.3933     2.2011   134.0800     0.2592     0.5088
  421    8.400   2473.25     0.2894     0.0065     0.2286     0.0840     0.3849     2.2174   134.4000     0.2505     0.5723
  422    8.420   2474.29     0.2834     0.0066     0.2325     0.0842     0.3803     2.3000   134.7200     0.2456     0.5972
  423    8.440   2475.33     0.2780     0.0058     0.2318     0.0844     0.3769     2.0541   135.0400     0.2419     0.6245
  424    8.460   2476.33     0.2754     0.0061     0.2317     0.0846     0.3722     2.1652   135.3600     0.2368     0.6161
  425    8.480   2477.31     0.2749     0.0062     0.2387     0.0848     0.3741     2.2185   135.6800     0.2384     0.6353
  426    8.500   2478.34     0.2880     0.0063     0.2455     0.0850     0.3904     2.1856   136.0000     0.2544     0.6239
  427    8.520   2479.40     0.2932     0.0064     0.2457     0.0852     0.3971     2.1739   136.3200     0.2608     0.6221
  428    8.540   2480.46     0.3038     0.0059     0.2244     0.0854     0.4044     1.9984   136.6400     0.2678     0.5754
  429    8.560   2481.46     0.3104     0.0065     0.2404     0.0856     0.4093     2.1024   136.9600     0.2723     0.5507
  430    8.580   2482.49     0.3324     0.0075     0.2448     0.0858     0.4361     2.3098   137.2800     0.2988     0.5393
  431    8.600   2483.49     0.3700     0.0058     0.2398     0.0860     0.4724     1.7461   137.6000     0.3348     0.4716
  432    8.620   2484.51     0.3997     0.0024     0.2224     0.0862     0.4952     0.6232   137.9200     0.3573     0.3948
  433    8.640   2485.57     0.3844    -0.0001     0.2270     0.0864     0.4795    -0.0123   138.2400     0.3413     0.4108
  434    8.660   2486.60     0.3802     0.0031     0.2273     0.0866     0.4750     0.8347   138.5600     0.3365     0.4139
  435    8.680   2487.60     0.3690     0.0082     0.2492     0.0868     0.4698     2.2264   138.8800     0.3309     0.4629
  436    8.700   2493.42     0.6313     0.0121     0.2456     0.0870     0.7378     3.2898   139.2000     0.5986     0.4500
  437    8.720   2514.97     1.7629     0.0148     0.2232     0.0872     1.8599     4.0491   139.5200     1.7204     0.1894
  438    8.740   2526.40     3.7828     0.0220     0.1156     0.0874     3.8470     0.8091   139.8400     3.7071     0.0185
  439    8.760   2527.87     6.9277     0.0312     0.0691     0.0876     6.9544     0.6368   140.1600     6.8142    -0.0036
  440    8.780   2534.39     7.4899     0.0406     0.0856     0.0878     7.5235     0.5862   140.4800     7.3830    -0.0012
  441    8.800   2539.98     8.0220     0.0530     0.0979     0.0880     8.0619     0.6940   140.8000     7.9211     0.0009
  442    8.820   2541.03     8.4681     0.0621     0.1010     0.0882     8.5099     0.7447   141.1200     8.3688     0.0013
  443    8.840   2542.11     8.9629     0.0618     0.0929     0.0884     9.0038     0.7051   141.4400     8.8624     0.0010
  444    8.860   2543.18     9.7282     0.0606     0.0755     0.0886     9.7633     0.6355   141.7600     9.6216    -0.0005
  445    8.880   2544.23    10.4296     0.0716     0.0742     0.0888    10.4597     0.6943   142.0800    10.3176    -0.0017
  446    8.900   2545.29    10.7437     0.0767     0.0702     0.0890    10.7740     0.7160   142.4000    10.6316    -0.0016
  447    8.920   2546.33    10.7832     0.0738     0.0679     0.0892    10.8109     0.6853   142.7200    10.6682    -0.0022
  448    8.940   2547.41    11.3192     0.0743     0.0663     0.0894    11.3508     0.6680   143.0400    11.2077    -0.0013
  449    8.960   2548.51    13.3079     0.0752     0.0738     0.0896    13.3335     0.5793   143.3600    13.1902    -0.0022
  450    8.980   2549.62    15.0206     0.0781     0.0669     0.0898    15.0511     0.5294   143.6800    14.9074    -0.0012
  451    9.000   2550.69    15.5553     0.0801     0.0507     0.0900    15.5775     0.5117   144.0000    15.4335    -0.0024
  452    9.020   2551.73    16.3087     0.0821    -0.0008     0.0902    16.3165     0.5063   144.3200    16.1722    -0.0044
  453    9.040   2552.79    16.6576     0.0812    -0.0143     0.0904    16.6506     0.4889   144.6400    16.5059    -0.0065
  454    9.060   2553.88    16.8618     0.0847     0.0030     0.0906    16.8609     0.5026   144.9600    16.7159    -0.0055
  455    9.080   2555.00    17.0675     0.0864     0.0234     0.0908    17.0757     0.5071   145.2800    16.9304    -0.0042
  456    9.100   2556.04    17.2607     0.0839     0.0289     0.0910    17.2714     0.4872   145.6000    17.1258    -0.0038
  457    9.120   2557.10    17.4756     0.0819     0.0157     0.0912    17.4850     0.4694   145.9200    17.3391    -0.0040
  458    9.140   2558.20    17.6728     0.0787     0.0169     0.0914    17.6785     0.4461   146.2400    17.5323    -0.0044
  459    9.160   2559.30    18.0540     0.0716     0.0315     0.0916    18.0699     0.3996   146.5600    17.9233    -0.0030
  460    9.180   2560.37    18.5195     0.0714    -0.0087     0.0918    18.5250     0.3882   146.8800    18.3781    -0.0043
  461    9.200   2561.47    19.1508     0.0757     0.0010     0.0920    19.1490     0.3974   147.2000    19.0018    -0.0051
  462    9.220   2562.51    19.4668     0.0787    -0.0001     0.0922    19.4653     0.4047   147.5200    19.3178    -0.0049
  463    9.240   2563.60    19.5462     0.0744     0.0105     0.0924    19.5492     0.3806   147.8400    19.4014    -0.0044
  464    9.260   2564.64    19.5727     0.0662     0.0064     0.0926    19.5747     0.3383   148.1600    19.4266    -0.0045
  465    9.280   2565.73    19.5714     0.0561     0.0054     0.0928    19.5748     0.2867   148.4800    19.4263    -0.0044
  466    9.300   2566.81    19.8864     0.0514     0.0059     0.0930    19.8878     0.2602   148.8000    19.7390    -0.0045
  467    9.320   2567.97    20.9516     0.0473     0.0127     0.0932    20.9572     0.2266   149.1200    20.8080    -0.0038
  468    9.340   2569.00    22.3173     0.0445     0.0275     0.0934    22.3274     0.2006   149.4400    22.1780    -0.0031
  469    9.360   2570.05    23.9952     0.0486     0.0451     0.0936    24.0123     0.2037   149.7600    23.8625    -0.0022
  470    9.380   2571.10    25.2396     0.0540     0.0258     0.0938    25.2560     0.2147   150.0800    25.1059    -0.0022
  471    9.400   2572.07    25.8726     0.0520    -0.0020     0.0940    25.8710     0.2009   150.4000    25.7206    -0.0038
  472    9.420   2573.04    26.1978     0.0521     0.0185     0.0942    26.2024     0.1991   150.7200    26.0516    -0.0032
  473    9.440   2574.03    26.5773     0.0562     0.0116     0.0944    26.5824     0.2131   151.0400    26.4313    -0.0031
  474    9.460   2575.06    27.2860     0.0591     0.0374     0.0946    27.2963     0.2168   151.3600    27.1449    -0.0026
  475    9.480   2576.08    28.1612     0.0612     0.0210     0.0948    28.1704     0.2192   151.6800    28.0187    -0.0026
  476    9.500   2577.12    29.0711     0.0651     0.0281     0.0950    29.0824     0.2246   152.0000    28.9304    -0.0024
  477    9.520   2578.14    29.8125     0.0683     0.0440     0.0952    29.8284     0.2297   152.3200    29.6761    -0.0019
  478    9.540   2579.14    29.9591     0.0699     0.0388     0.0954    29.9760     0.2334   152.6400    29.8234    -0.0019
  479    9.560   2580.16    29.8606     0.0682     0.0422     0.0956    29.8772     0.2284   152.9600    29.7242    -0.0019
  480    9.580   2581.17    29.7208     0.0676     0.0537     0.0958    29.7429     0.2274   153.2800    29.5896    -0.0015
  481    9.600   2582.15    29.5923     0.0702     0.0673     0.0960    29.6194     0.2372   153.6000    29.4658    -0.0011
  482    9.620   2583.18    29.4248     0.0693     0.0524     0.0962    29.4487     0.2355   153.9200    29.2947    -0.0013
  483    9.640   2584.16    29.2025     0.0682     0.0645     0.0964    29.2253     0.2333   154.2400    29.0710    -0.0015
  484    9.660   2585.16    28.9854     0.0692     0.0650     0.0966    29.0139     0.2385   154.5600    28.8594    -0.0010
  485    9.680   2586.17    28.7507     0.0709     0.0755     0.0968    28.7812     0.2463   154.8800    28.6263    -0.0008
  486    9.700   2587.18    28.2391     0.0705     0.0733     0.0970    28.2713     0.2491   155.2000    28.1161    -0.0007
  487    9.720   2588.17    27.5657     0.0688     0.0834     0.0972    27.5984     0.2488   155.5200    27.4428    -0.0007
  488    9.740   2589.18    26.9129     0.0657     0.0754     0.0974    26.9432     0.2437   155.8400    26.7873    -0.0010
  489    9.760   2590.15    26.4671     0.0641     0.0843     0.0976    26.5038     0.2419   156.1600    26.3476    -0.0004
  490    9.780   2591.19    26.1072     0.0691     0.0885     0.0978    26.1431     0.2645   156.4800    25.9866    -0.0005
  491    9.800   2592.20    26.1069     0.0700     0.0822     0.0980    26.1427     0.2681   156.8000    25.9859    -0.0005
  492    9.820   2593.19    26.1550     0.0684     0.0926     0.0982    26.1930     0.2615   157.1200    26.0358    -0.0003
  493    9.840   2594.17    26.2121     0.0686     0.0883     0.0984    26.2481     0.2619   157.4400    26.0906    -0.0005
  494    9.860   2595.21    26.2227     0.0642     0.0896     0.0986    26.2602     0.2446   157.7600    26.1024    -0.0004
  495    9.880   2596.20    26.1081     0.0611     0.0883     0.0988    26.1453     0.2338   158.0800    25.9872    -0.0004
  496    9.900   2597.24    25.6138     0.0568     0.0888     0.0990    25.6524     0.2215   158.4000    25.4940    -0.0003
  497    9.920   2598.21    25.1688     0.0574     0.0874     0.0992    25.2047     0.2267   158.7200    25.0460    -0.0006
  498    9.940   2599.20    24.8456     0.0526     0.0764     0.0994    24.8805     0.2106   159.0400    24.7214    -0.0007
  499    9.960   2600.20    25.0454     0.0452     0.0427     0.0996    25.0666     0.1814   159.3600    24.9072    -0.0020
  500    9.980   2601.22    25.6580     0.0429     0.0250     0.0998    25.6732     0.1677   159.6800    25.5135    -0.0025
  501   10.000   2602.28    26.9281     0.0460     0.0476     0.1000    26.9442     0.1717   160.0000    26.7842    -0.0023
  502   10.020   2603.30    29.0509     0.0529     0.0679     0.1002    29.0747     0.1833   160.3200    28.9144    -0.0015
  503   10.040   2604.36    30.9682     0.0602     0.0834     0.1004    31.0009     0.1952   160.6400    30.8402    -0.0007
  504   10.060   2605.35    31.4911     0.0631     0.0926     0.1006    31.5300     0.2005   160.9600    31.3690    -0.0003
  505   10.080   2606.36    31.2517     0.0657     0.0859     0.1008    31.2911     0.2101   161.2800    31.1298    -0.0002
  506   10.100   2607.33    30.6821     0.0719     0.0995     0.1010    30.7187     0.2340   161.6000    30.5571    -0.0005
  507   10.120   2608.35    30.4868     0.0820     0.1014     0.1012    30.5249     0.2691   161.9200    30.3630    -0.0003
  508   10.140   2609.38    30.5159     0.0869     0.0989     0.1014    30.5531     0.2849   162.2400    30.3908    -0.0004
  509   10.160   2610.37    30.4846     0.0754     0.0872     0.1016    30.5269     0.2475   162.5600    30.3643     0.0000
  510   10.180   2611.39    29.8601     0.0785     0.0966     0.1018    29.8996     0.2624   162.8800    29.7367    -0.0003
  511   10.200   2612.40    29.6556     0.0766     0.0900     0.1020    29.6972     0.2586   163.2000    29.5340    -0.0001
  512   10.220   2613.43    30.4405     0.0769     0.0889     0.1022    30.4788     0.2532   163.5200    30.3153    -0.0004
  513   10.240   2614.46    31.1704     0.0717     0.0941     0.1024    31.2112     0.2303   163.8400    31.0474    -0.0002
  514   10.260   2615.42    31.1229     0.0655     0.1002     0.1026    31.1601     0.2101   164.1600    30.9959    -0.0005
  515   10.280   2616.40    30.3327     0.0645     0.0912     0.1028    30.3740     0.2117   164.4800    30.2095    -0.0001
  516   10.300   2617.39    29.2574     0.0620     0.0857     0.1030    29.2897     0.2110   164.8000    29.1249    -0.0009
  517   10.320   2618.44    28.3460     0.0601     0.0960     0.1032    28.3833     0.2103   165.1200    28.2182    -0.0005
  518   10.340   2619.43    27.0443     0.0614     0.0949     0.1034    27.0864     0.2252   165.4400    26.9210    -0.0001
  519   10.360   2620.45    25.4521     0.0589     0.0945     0.1036    25.4912     0.2298   165.7600    25.3255    -0.0004
  520   10.380   2621.41    24.7740     0.0534     0.0990     0.1038    24.8154     0.2148   166.0800    24.6493    -0.0002
  521   10.400   2622.35    23.9026     0.0517     0.0993     0.1040    23.9426     0.2162   166.4000    23.7762    -0.0004
  522   10.420   2623.36    23.6065     0.0488     0.0981     0.1042    23.6505     0.2067   166.7200    23.4838     0.0000
  523   10.440   2624.39    24.3177     0.0436     0.1049     0.1044    24.3601     0.1796   167.0400    24.1930    -0.0001
  524   10.460   2625.41    25.3499     0.0437     0.1030     0.1046    25.3901     0.1729   167.3600    25.2227    -0.0004
  525   10.480   2626.42    25.9993     0.0514     0.0999     0.1048    26.0407     0.1981   167.6800    25.8730    -0.0002
  526   10.500   2627.45    26.5767     0.0672     0.0979     0.1050    26.6204     0.2532   168.0000    26.4524     0.0000
  527   10.520   2628.44    26.8966     0.0748     0.0987     0.1052    26.9379     0.2785   168.3200    26.7696    -0.0003
  528   10.540   2629.41    27.3633     0.0768     0.1058     0.1054    27.4063     0.2835   168.6400    27.2377    -0.0001
  529   10.560   2630.44    28.6142     0.0702     0.0931     0.1056    28.6534     0.2504   168.9600    28.4845    -0.0004
  530   10.580   2631.47    29.9867     0.0591     0.0928     0.1058    30.0255     0.2013   169.2800    29.8562    -0.0004
  531   10.600   2632.52    31.1876     0.0575     0.0723     0.1060    31.2230     0.1875   169.6000    31.0534    -0.0007
  532   10.620   2633.54    32.0053     0.0647     0.0481     0.1062    32.0341     0.2041   169.9200    31.8642    -0.0012
  533   10.640   2634.58    32.6921     0.0719     0.0526     0.1064    32.7139     0.2207   170.2400    32.5436    -0.0017
  534   10.660   2635.60    33.7295     0.0708     0.0521     0.1066    33.7517     0.2106   170.5600    33.5812    -0.0016
  535   10.680   2636.63    34.4570     0.0769     0.0588     0.1068    34.4772     0.2235   170.8800    34.3063    -0.0017
  536   10.700   2637.67    34.9182     0.0846     0.0675     0.1070    34.9491     0.2425   171.2000    34.7779    -0.0010
  537   10.720   2648.15    35.1047     0.0927     0.0808     0.1072    35.1367     0.2649   171.5200    34.9652    -0.0009
  538   10.740   2661.12    35.2150     0.0971     0.0941     0.1074    35.2526     0.2774   171.8400    35.0808    -0.0005
  539   10.760   2671.58    35.4668     0.0960     0.0698     0.1076    35.5031     0.2726   172.1600    35.3309    -0.0006
  540   10.780   2672.63    35.9353     0.0917     0.0702     0.1078    35.9645     0.2565   172.4800    35.7920    -0.0011
  541   10.800   2673.62    37.0342     0.0911     0.0548     0.1080    37.0594     0.2494   172.8000    36.8865    -0.0013
  542   10.820   2674.64    37.9991     0.0906     0.0665     0.1082    38.0231     0.2405   173.1200    37.8500    -0.0013
  543   10.840   2675.68    38.6437     0.0946     0.0735     0.1084    38.6727     0.2467   173.4400    38.4993    -0.0010
  544   10.860   2676.77    38.6950     0.1012     0.0827     0.1086    38.7284     0.2614   173.7600    38.5546    -0.0008
  545   10.880   2677.80    38.9336     0.1024     0.0641     0.1088    38.9596     0.2633   174.0800    38.7856    -0.0012
  546   10.900   2678.81    38.8298     0.1006     0.0598     0.1090    38.8538     0.2589   174.4000    38.6794    -0.0013
  547   10.920   2679.82    38.0857     0.1011     0.0726     0.1092    38.1150     0.2653   174.7200    37.9403    -0.0010
  548   10.940   2680.86    37.7270     0.1047     0.0500     0.1094    37.7457     0.2775   175.0400    37.5706    -0.0017
  549   10.960   2681.83    37.1884     0.1011     0.0767     0.1096    37.2202     0.2717   175.3600    37.0448    -0.0009
  550   10.980   2682.80    37.0290     0.1014     0.0869     0.1098    37.0676     0.2747   175.6800    36.8920    -0.0005
  551   11.000   2683.80    37.4451     0.1010     0.0891     0.1100    37.4840     0.2715   176.0000    37.3080    -0.0005
  552   11.020   2684.86    37.8568     0.1079     0.0874     0.1102    37.8985     0.2860   176.3200    37.7222    -0.0003
  553   11.040   2685.94    38.1269     0.1144     0.0866     0.1104    38.1636     0.2991   176.6400    37.9869    -0.0006
  554   11.060   2686.97    38.1120     0.1155     0.0923     0.1106    38.1509     0.3030   176.9600    37.9740    -0.0005
  555   11.080   2687.96    37.7889     0.1180     0.0982     0.1108    37.8314     0.3123   177.2800    37.6541    -0.0003
  556   11.100   2689.00    37.3909     0.1168     0.1083     0.1110    37.4360     0.3110   177.6000    37.2584    -0.0001
  557   11.120   2690.01    37.1273     0.1201     0.1100     0.1112    37.1755     0.3220   177.9200    36.9975     0.0001
  558   11.140   2691.04    36.4127     0.1194     0.1200     0.1114    36.4638     0.3258   178.2400    36.2856     0.0003
  559   11.160   2692.05    36.0403     0.1170     0.1013     0.1116    36.0834     0.3239   178.5600    35.9049    -0.0002
  560   11.180   2693.06    36.1622     0.1123     0.1059     0.1118    36.2083     0.3111   178.8800    36.0294    -0.0001
  561   11.200   2694.13    36.9788     0.1108     0.1002     0.1120    37.0237     0.3008   179.2000    36.8445    -0.0001
  562   11.220   2695.23    38.0124     0.1117     0.1037     0.1122    38.0550     0.2945   179.5200    37.8754    -0.0003
  563   11.240   2696.28    39.0846     0.1178     0.0993     0.1124    39.1262     0.3018   179.8400    38.9464    -0.0003
  564   11.260   2697.36    40.7123     0.1246     0.1098     0.1126    40.7562     0.3069   180.1600    40.5761    -0.0002
  565   11.280   2698.40    43.0631     0.1319     0.0870     0.1128    43.1038     0.3099   180.4800    42.9233    -0.0004
  566   11.300   2699.54    45.8764     0.1414     0.0888     0.1130    45.9107     0.3127   180.8000    45.7299    -0.0007
  567   11.320   2700.71    48.0262     0.1522     0.0959     0.1132    48.0657     0.3177   181.1200    47.8846    -0.0004
  568   11.340   2701.81    48.9322     0.1604     0.0944     0.1134    48.9712     0.3286   181.4400    48.7898    -0.0004
  569   11.360   2702.85    49.1144     0.1705     0.0742     0.1136    49.1495     0.3472   181.7600    48.9677    -0.0006
  570   11.380   2703.98    48.8251     0.1795     0.0890     0.1138    48.8623     0.3664   182.0800    48.6802    -0.0005
  571   11.400   2705.13    47.8353     0.1910     0.0879     0.1140    47.8710     0.3968   182.4000    47.6886    -0.0006
  572   11.420   2706.22    46.7137     0.1952     0.0908     0.1142    46.7437     0.4157   182.7200    46.5610    -0.0009
  573   11.440   2707.25    45.6895     0.1878     0.1017     0.1144    45.7308     0.4093   183.0400    45.5478    -0.0004
  574   11.460   2708.31    45.3724     0.1821     0.1136     0.1146    45.4256     0.4010   183.3600    45.2422     0.0003
  575   11.480   2709.35    45.4766     0.1814     0.1522     0.1148    45.5395     0.3993   183.6800    45.3558     0.0008
  576   11.500   2710.39    46.3036     0.1786     0.1047     0.1150    46.3570     0.3872   184.0000    46.1730     0.0003
  577   11.520   2711.53    47.3911     0.1827     0.1169     0.1152    47.4372     0.3874   184.3200    47.2529    -0.0001
  578   11.540   2712.64    48.0477     0.1863     0.1101     0.1154    48.0967     0.3885   184.6400    47.9121     0.0000
  579   11.560   2713.71    47.9562     0.2004     0.0769     0.1156    47.9865     0.4181   184.9600    47.8015    -0.0009
  580   11.580   2714.71    47.5406     0.2136     0.0709     0.1158    47.5722     0.4482   185.2800    47.3869    -0.0009
  581   11.600   2715.75    46.7867     0.2205     0.0870     0.1160    46.8244     0.4696   185.6000    46.6388    -0.0006
  582   11.620   2716.84    46.1534     0.2286     0.1022     0.1162    46.1916     0.4943   185.9200    46.0057    -0.0005
  583   11.640   2717.93    45.6107     0.2386     0.1336     0.1164    45.6610     0.5229   186.2400    45.4748     0.0001
  584   11.660   2718.98    45.8465                0.1893     0.1166    45.9185              186.5600    45.7319     0.0012
  585   11.680   2720.08    46.2544                0.1465     0.1168    46.3203              186.8800    46.1334     0.0009
  586   11.700   2721.13    47.1010                0.1242     0.1170    47.1558              187.2000    46.9686     0.0003
  587   11.720   2722.25    48.4150                0.0900     0.1172    48.4415              187.5200    48.2539    -0.0011
  588   11.740   2723.32    49.6698                0.0714     0.1174    49.7122              187.8400    49.5243    -0.0003
  589   11.754   2724.31    50.4092                           0.1175    50.4449              188.0685    50.2568    -0.0007
 
 
