

 Program UNIPLOT                         version 05.36.02
 _______________
 (c) Fugro Netherlands Marine, Nootdorp, The Netherlands


 ASCII representation of data plotted on a graph.

 This ASCII file presents data interpolated to values per fixed depth interval.
 The data are corrected for the depth-offset differences between the various 
 transducers in the penetrometer.

 The records at the start of penetration may include no values or anomalous
 values where a depth offset implies incomplete penetration of a particular
 sensor into the ground.

 The records at the end of penetration may include no values for data channels
 where the transducer did not reach this depth.

 The reference level for test values is (1) the ground surface for onshore tests and (2) the seafloor for nearshore and offshore tests.

 UNICAS data file          : CPT-2016.000                            
 Output using command file : PlotASCII.cmd

 ASCII file created at : date          :28-Apr-2022
                         time          :17:01:52
 Project number                        :20024805
 Date of testing                       :27-Apr-2022
 Location                              :Hong Kong Offshore Wind Farm Project
 Test name                             :CPT-2016
 Penetrometer                          :F7.5CKE2HAW2/B/3342
 Serial no                             :1701-3342

 Table description:
 Column ID                             :Parameter name
 ___________________________________________________________________________________
 Rec                                   :Record ID, Record ID [-]
 Depth                                 :Depth, Depth [m]
 Time                                  :Time, Time [s]
 Cone                                  :Cone Resistance, Cone Resistance [MPa]
 Friction                              :Sleeve Friction, Sleeve Friction [MPa]
 Pore 2                                :Porewater Pressure, Porewater Pressure at Shoulder [MPa]
 HydroPress                            :Hydrostatic Pressure, Hydrostatic Pressure [MPa]
 qt                                    :Total Cone Resistance, Total Cone Resistance [MPa]
 Fric_ratio                            :Friction Ratio, Friction Ratio [%]
 SigmaVert                             :Vertical stress, Vertical stress [kPa] as specified in ground model
 Qnet                                  :Net Cone Resistance, Net Cone Resistance [MPa], unit weight as specified in ground model
 Bq                                    :Porewater Pressure Ratio, Porewater Pressure Ratio [-], unit weight as specified in ground model


 Data table:
  Rec    Depth      Time       Cone   Friction     Pore 2 HydroPress         qt Fric_ratio  SigmaVert       Qnet         Bq
   No        m         s        MPa        MPa        MPa        MPa        MPa          %        kPa        MPa          -
    1    0.000   1504.28     0.0000                           0.0000     0.0000                0.0000     0.0000           
    2    0.020   1505.24     0.0021                0.0002     0.0002     0.0021                0.3200     0.0018    -0.0328
    3    0.040   1506.23     0.0053                0.0004     0.0004     0.0054                0.6400     0.0047    -0.0364
    4    0.060   1507.24     0.0038     0.0005     0.0007     0.0006     0.0040    15.8579     0.9600     0.0031     0.0163
    5    0.080   1508.21     0.0059     0.0004     0.0007     0.0008     0.0062     8.5016     1.2800     0.0049    -0.0166
    6    0.100   1509.17     0.0059     0.0006     0.0008     0.0010     0.0062    14.4523     1.6000     0.0046    -0.0681
    7    0.120   1510.16     0.0089     0.0007     0.0009     0.0012     0.0093    12.3115     1.9200     0.0074    -0.0390
    8    0.140   1511.14     0.0086     0.0008     0.0012     0.0014     0.0090    10.1707     2.2400     0.0068    -0.0565
    9    0.160   1512.10     0.0077     0.0007     0.0019     0.0016     0.0084    10.2805     2.5600     0.0059    -0.0018
   10    0.180   1513.08     0.0073     0.0006     0.0023     0.0018     0.0082    10.1877     2.8800     0.0053     0.0756
   11    0.200   1514.04     0.0115     0.0007     0.0027     0.0020     0.0126     5.7293     3.2000     0.0094     0.0727
   12    0.220   1516.90     0.0088     0.0012     0.0028     0.0022     0.0100    14.6663     3.5200     0.0065     0.0930
   13    0.240   1520.40     0.0100     0.0012     0.0028     0.0024     0.0112    15.3769     3.8400     0.0074     0.0629
   14    0.260   1523.49     0.0111     0.0010     0.0032     0.0026     0.0124     9.3540     4.1600     0.0082     0.0492
   15    0.280   1524.48     0.0114     0.0013     0.0035     0.0028     0.0128    13.3685     4.4800     0.0083     0.0568
   16    0.300   1525.45     0.0142     0.0015     0.0038     0.0030     0.0156    10.9701     4.8000     0.0108     0.0363
   17    0.320   1526.46     0.0152     0.0012     0.0045     0.0032     0.0170     7.3358     5.1200     0.0119     0.0953
   18    0.340   1527.41     0.0139     0.0017     0.0044     0.0034     0.0158    12.6637     5.4400     0.0103     0.1038
   19    0.360   1528.37     0.0169     0.0013     0.0031     0.0036     0.0185     7.9349     5.7600     0.0127     0.0168
   20    0.380   1529.36     0.0174     0.0015     0.0027     0.0038     0.0185     8.4823     6.0800     0.0124    -0.1006
   21    0.400   1530.36     0.0165     0.0012     0.0036     0.0040     0.0179     7.6685     6.4000     0.0115    -0.0451
   22    0.420   1531.37     0.0166     0.0012     0.0052     0.0042     0.0186     7.9217     6.7200     0.0118     0.0362
   23    0.440   1532.33     0.0153     0.0014     0.0058     0.0044     0.0176     8.3026     7.0400     0.0106     0.1151
   24    0.460   1533.32     0.0177     0.0014     0.0064     0.0046     0.0203     8.8454     7.3600     0.0130     0.1367
   25    0.480   1534.33     0.0159     0.0012     0.0067     0.0048     0.0186     7.2806     7.6800     0.0110     0.1590
   26    0.500   1535.27     0.0147     0.0016     0.0071     0.0050     0.0176    10.0691     8.0000     0.0096     0.2196
   27    0.520   1536.27     0.0196     0.0017     0.0065     0.0052     0.0225     8.7738     8.3200     0.0141     0.1121
   28    0.540   1537.23     0.0197     0.0018     0.0060     0.0054     0.0222     8.9926     8.6400     0.0136     0.0481
   29    0.560   1538.19     0.0191     0.0019     0.0059     0.0056     0.0216    11.0932     8.9600     0.0126     0.0348
   30    0.580   1539.20     0.0207     0.0020     0.0058     0.0058     0.0232    10.5074     9.2800     0.0139     0.0121
   31    0.600   1540.16     0.0195     0.0021     0.0039     0.0060     0.0214    10.8848     9.6000     0.0118    -0.1295
   32    0.620   1541.15     0.0212     0.0023     0.0045     0.0062     0.0229    11.8733     9.9200     0.0130    -0.1816
   33    0.640   1542.11     0.0189     0.0024     0.0058     0.0064     0.0211    12.9341    10.2400     0.0109    -0.0877
   34    0.660   1543.07     0.0184     0.0026     0.0057     0.0066     0.0209    13.9628    10.5600     0.0103    -0.0725
   35    0.680   1544.03     0.0181     0.0025     0.0064     0.0068     0.0208    13.0489    10.8800     0.0099    -0.0552
   36    0.700   1545.07     0.0172     0.0026     0.0069     0.0070     0.0200    15.2168    11.2000     0.0088    -0.0329
   37    0.720   1546.05     0.0172     0.0026     0.0067     0.0072     0.0201    13.7517    11.5200     0.0086    -0.0445
   38    0.740   1547.01     0.0157     0.0024     0.0068     0.0074     0.0185    14.5316    11.8400     0.0067    -0.1200
   39    0.760   1548.02     0.0177     0.0025     0.0081     0.0076     0.0210    14.8412    12.1600     0.0089     0.0379
   40    0.780   1548.98     0.0166     0.0024     0.0095     0.0078     0.0203    14.4638    12.4800     0.0079     0.1529
   41    0.800   1549.94     0.0196     0.0027     0.0094     0.0080     0.0236    13.6657    12.8000     0.0108     0.1418
   42    0.820   1550.90     0.0188     0.0026     0.0062     0.0082     0.0218    14.0418    13.1200     0.0087    -0.1340
   43    0.840   1551.91     0.0177     0.0028     0.0039     0.0084     0.0197    16.5041    13.4400     0.0062    -0.6104
   44    0.860   1552.88     0.0150     0.0029     0.0059     0.0086     0.0170    18.8776    13.7600     0.0032    -1.1756
   45    0.880   1553.88     0.0161     0.0029     0.0088     0.0088     0.0195    18.0076    14.0800     0.0054    -0.1400
   46    0.900   1554.88     0.0149     0.0030     0.0100     0.0090     0.0189    19.5821    14.4000     0.0045     0.1492
   47    0.920   1555.88     0.0121     0.0032     0.0111     0.0092     0.0166    24.5263    14.7200     0.0018     0.7892
   48    0.940   1556.84     0.0149     0.0031     0.0116     0.0094     0.0195    22.7274    15.0400     0.0045     0.3936
   49    0.960   1557.80     0.0098     0.0034     0.0122     0.0096     0.0149    31.8626    15.3600    -0.0005    -4.1647
   50    0.980   1558.77     0.0111     0.0029     0.0128     0.0098     0.0164    26.7793    15.6800     0.0007     4.6514
   51    1.000   1559.77     0.0094     0.0033     0.0132     0.0100     0.0149    32.7767    16.0000    -0.0011    -2.1360
   52    1.020   1560.73     0.0066     0.0031     0.0130     0.0102     0.0120    42.3572    16.3200    -0.0043    -0.7843
   53    1.040   1561.74     0.0097     0.0032     0.0134     0.0104     0.0152    30.5620    16.6400    -0.0014     0.2040
   54    1.060   1562.70     0.0055     0.0034     0.0147     0.0106     0.0115    58.1425    16.9600    -0.0055    -0.6533
   55    1.080   1563.71     0.0084     0.0029     0.0150     0.0108     0.0146    52.6773    17.2800    -0.0027    -1.7572
   56    1.100   1564.69     0.0085     0.0034     0.0151     0.0110     0.0146    39.4207    17.6000    -0.0030    -1.2846
   57    1.120   1565.65     0.0089     0.0031     0.0168     0.0112     0.0158    39.0546    17.9200    -0.0021    -3.0756
   58    1.140   1566.64     0.0054     0.0030     0.0166     0.0114     0.0125    43.0084    18.2400    -0.0058    -0.9786
   59    1.160   1567.63     0.0062     0.0031     0.0166     0.0116     0.0131    50.0273    18.5600    -0.0055    -0.9083
   60    1.180   1568.59     0.0054     0.0030     0.0170     0.0118     0.0124    77.0731    18.8800    -0.0065    -0.8067
   61    1.200   1569.56     0.0042     0.0033     0.0181     0.0120     0.0115    48.4325    19.2000    -0.0077    -0.7771
   62    1.220   1570.53     0.0034     0.0029     0.0184     0.0122     0.0111   119.1417    19.5200    -0.0084    -0.7311
   63    1.240   1571.53     0.0044     0.0033     0.0189     0.0124     0.0123    68.0473    19.8400    -0.0076    -0.8347
   64    1.260   1576.08     0.0034     0.0028     0.0181     0.0126     0.0112    70.8395    20.1600    -0.0090    -0.6656
   65    1.280   1581.88     0.0028     0.0028     0.0175     0.0128     0.0101    95.0453    20.4800    -0.0104    -0.4545
   66    1.300   1582.91     0.0028     0.0030     0.0197     0.0130     0.0107   131.3789    20.8000    -0.0101    -0.5954
   67    1.320   1583.90     0.0041     0.0029     0.0213     0.0132     0.0129    80.0055    21.1200    -0.0082    -0.9748
   68    1.340   1584.85     0.0015     0.0028     0.0225     0.0134     0.0108   205.4019    21.4400    -0.0106    -0.8481
   69    1.360   1585.82     0.0054     0.0029     0.0235     0.0136     0.0152    63.9295    21.7600    -0.0066    -1.4775
   70    1.380   1586.80     0.0024     0.0031     0.0236     0.0138     0.0123   103.5955    22.0800    -0.0098    -1.0002
   71    1.400   1587.81     0.0033     0.0031     0.0235     0.0140     0.0132    77.8410    22.4000    -0.0092    -1.0508
   72    1.420   1588.79     0.0070     0.0029     0.0237     0.0142     0.0170    46.5316    22.7200    -0.0057    -1.6736
   73    1.440   1589.80     0.0060     0.0029     0.0245     0.0144     0.0161    50.1221    23.0400    -0.0069    -1.4206
   74    1.460   1590.76     0.0079     0.0028     0.0255     0.0146     0.0185    37.9373    23.3600    -0.0048    -2.2517
   75    1.480   1591.77     0.0062     0.0027     0.0262     0.0148     0.0171    35.0368    23.6800    -0.0066    -1.7228
   76    1.500   1592.72     0.0090     0.0026     0.0268     0.0150     0.0201    29.4929    24.0000    -0.0039    -2.9053
   77    1.520   1593.72     0.0117     0.0027     0.0281     0.0152     0.0233    25.6524    24.3200    -0.0011   -17.9148
   78    1.540   1594.68     0.0129     0.0028     0.0279     0.0154     0.0247    21.8118    24.6400     0.0000           
   79    1.560   1595.68     0.0160     0.0025     0.0277     0.0156     0.0276    18.0772    24.9600     0.0027     7.5110
   80    1.580   1596.65     0.0161     0.0030     0.0273     0.0158     0.0276    21.2175    25.2800     0.0023    15.4250
   81    1.600   1597.61     0.0212     0.0025     0.0272     0.0160     0.0327    12.8742    25.6000     0.0071     1.6466
   82    1.620   1607.99     0.0229     0.0027     0.0253     0.0162     0.0338    12.5588    25.9200     0.0079     1.2398
   83    1.640   1620.77     0.0243     0.0027     0.0233     0.0164     0.0344    12.3118    26.2400     0.0081     0.9362
   84    1.660   1626.84     0.0289     0.0030     0.0246     0.0166     0.0389    10.9420    26.5600     0.0124     0.5967
   85    1.680   1627.85     0.0294     0.0029     0.0259     0.0168     0.0401     9.6101    26.8800     0.0132     0.6499
   86    1.700   1628.81     0.0309     0.0027     0.0266     0.0170     0.0419     9.3925    27.2000     0.0147     0.6351
   87    1.720   1629.82     0.0308     0.0030     0.0262     0.0172     0.0419     9.3290    27.5200     0.0144     0.6392
   88    1.740   1630.81     0.0292     0.0028     0.0259     0.0174     0.0402     8.6960    27.8400     0.0124     0.7197
   89    1.760   1631.77     0.0318     0.0027     0.0254     0.0176     0.0425     8.0194    28.1600     0.0144     0.5599
   90    1.780   1632.68     0.0317     0.0025     0.0256     0.0178     0.0422     8.0604    28.4800     0.0137     0.5295
   91    1.800   1633.52     0.0315     0.0028     0.0272     0.0180     0.0428     9.0335    28.8000     0.0140     0.6361
   92    1.820   1634.48     0.0323     0.0030     0.0290     0.0182     0.0445     9.0049    29.1200     0.0154     0.7070
   93    1.840   1635.49     0.0346     0.0026     0.0300     0.0184     0.0472     7.6647    29.4400     0.0177     0.6466
   94    1.860   1636.41     0.0356     0.0029     0.0311     0.0186     0.0484     8.1490    29.7600     0.0186     0.6400
   95    1.880   1637.44     0.0339     0.0024     0.0319     0.0188     0.0472     7.2000    30.0800     0.0171     0.7563
   96    1.900   1638.42     0.0380     0.0029     0.0321     0.0190     0.0513     7.4333    30.4000     0.0209     0.6125
   97    1.920   1639.39     0.0378     0.0026     0.0327     0.0192     0.0515     6.7572    30.7200     0.0207     0.6493
   98    1.940   1640.41     0.0367     0.0030     0.0331     0.0194     0.0506     8.4821    31.0400     0.0196     0.7025
   99    1.960   1641.37     0.0396     0.0028     0.0331     0.0196     0.0534     7.1372    31.3600     0.0221     0.6042
  100    1.980   1642.37     0.0389     0.0031     0.0334     0.0198     0.0528     8.0584    31.6800     0.0212     0.6320
  101    2.000   1643.37     0.0387     0.0031     0.0343     0.0200     0.0531     7.8902    32.0000     0.0211     0.6762
  102    2.020   1644.37     0.0385     0.0032     0.0356     0.0202     0.0530     8.4277    32.3200     0.0207     0.6969
  103    2.040   1645.29     0.0375     0.0034     0.0367     0.0204     0.0529     8.7354    32.6400     0.0202     0.8009
  104    2.060   1646.09     0.0412     0.0031     0.0377     0.0206     0.0569     7.6654    32.9600     0.0239     0.6971
  105    2.080   1646.89     0.0427     0.0031     0.0391     0.0208     0.0590     7.3782    33.2800     0.0257     0.7007
  106    2.100   1649.09     0.0445     0.0030     0.0404     0.0210     0.0616     6.7216    33.6000     0.0280     0.7057
  107    2.120   1654.27     0.0474     0.0033     0.0395     0.0212     0.0641     7.4969    33.9200     0.0302     0.6220
  108    2.140   1658.09     0.0467     0.0033     0.0395     0.0214     0.0633     6.8259    34.2400     0.0291     0.6274
  109    2.160   1659.08     0.0484     0.0031     0.0390     0.0216     0.0647     6.3900    34.5600     0.0301     0.5747
  110    2.180   1660.02     0.0467     0.0031     0.0392     0.0218     0.0631     6.4711    34.8800     0.0283     0.6159
  111    2.200   1661.01     0.0481     0.0033     0.0415     0.0220     0.0649     7.0586    35.2000     0.0297     0.6038
  112    2.220   1662.04     0.0494     0.0028     0.0450     0.0222     0.0679     5.5499    35.5200     0.0323     0.6725
  113    2.240   1663.03     0.0476     0.0027     0.0468     0.0224     0.0670     5.7292    35.8400     0.0311     0.7661
  114    2.260   1664.01     0.0500     0.0031     0.0465     0.0226     0.0695     6.1825    36.1600     0.0333     0.7128
  115    2.280   1665.01     0.0511     0.0030     0.0495     0.0228     0.0715     5.8551    36.4800     0.0351     0.7343
  116    2.300   1665.95     0.0543     0.0032     0.0484     0.0230     0.0750     5.8430    36.8000     0.0382     0.6860
  117    2.320   1666.91     0.0553     0.0030     0.0480     0.0232     0.0755     5.3134    37.1200     0.0383     0.6500
  118    2.340   1667.92     0.0559     0.0031     0.0473     0.0234     0.0758     5.5356    37.4400     0.0384     0.6230
  119    2.360   1668.91     0.0544     0.0030     0.0487     0.0236     0.0745     5.5381    37.7600     0.0367     0.6604
  120    2.380   1669.87     0.0554     0.0032     0.0499     0.0238     0.0761     5.7171    38.0800     0.0380     0.6734
  121    2.400   1670.94     0.0568     0.0032     0.0508     0.0240     0.0779     5.6620    38.4000     0.0395     0.6637
  122    2.420   1671.90     0.0553     0.0032     0.0533     0.0242     0.0775     5.7301    38.7200     0.0388     0.7402
  123    2.440   1672.88     0.0578     0.0031     0.0541     0.0244     0.0802     5.4011    39.0400     0.0412     0.7050
  124    2.460   1673.86     0.0581     0.0035     0.0562     0.0246     0.0814     5.9652    39.3600     0.0420     0.7344
  125    2.480   1674.85     0.0687     0.0037     0.0581     0.0248     0.0928     5.6103    39.6800     0.0531     0.6131
  126    2.500   1675.82     0.0751     0.0035     0.0572     0.0250     0.0995     4.7369    40.0000     0.0595     0.5548
  127    2.520   1676.79     0.0815     0.0034     0.0470     0.0252     0.1015     4.1550    40.3200     0.0611     0.3667
  128    2.540   1677.74     0.0748     0.0037     0.0485     0.0254     0.0947     4.7935    40.6400     0.0540     0.4080
  129    2.560   1678.69     0.0688     0.0036     0.0525     0.0256     0.0901     5.1805    40.9600     0.0492     0.5134
  130    2.580   1679.68     0.0628     0.0036     0.0576     0.0258     0.0863     5.4654    41.2800     0.0450     0.6735
  131    2.600   1680.71     0.0622     0.0032     0.0595     0.0260     0.0870     5.1157    41.6000     0.0454     0.7279
  132    2.620   1681.74     0.0640     0.0035     0.0605     0.0262     0.0893     5.3755    41.9200     0.0474     0.7206
  133    2.640   1682.71     0.0663     0.0034     0.0595     0.0264     0.0917     5.0823    42.2400     0.0494     0.6877
  134    2.660   1683.68     0.0669     0.0032     0.0578     0.0266     0.0913     4.6846    42.5600     0.0487     0.6487
  135    2.680   1684.60     0.0651     0.0033     0.0584     0.0268     0.0894     5.0668    42.8800     0.0465     0.6685
  136    2.700   1685.53     0.0679     0.0033     0.0593     0.0270     0.0927     4.9442    43.2000     0.0495     0.6460
  137    2.720   1686.51     0.0655     0.0033     0.0615     0.0272     0.0910     5.0365    43.5200     0.0475     0.7086
  138    2.740   1687.53     0.0648     0.0032     0.0620     0.0274     0.0908     4.9753    43.8400     0.0470     0.7361
  139    2.760   1688.54     0.0652     0.0036     0.0616     0.0276     0.0912     5.5570    44.1600     0.0471     0.7297
  140    2.780   1689.53     0.0658     0.0033     0.0620     0.0278     0.0916     5.0676    44.4800     0.0472     0.7175
  141    2.800   1690.50     0.0651     0.0032     0.0624     0.0280     0.0914     5.0426    44.8000     0.0466     0.7423
  142    2.820   1691.48     0.0683     0.0023     0.0634     0.0282     0.0951     3.3695    45.1200     0.0500     0.7108
  143    2.840   1692.41     0.0712     0.0031     0.0619     0.0284     0.0973     4.6952    45.4400     0.0518     0.6497
  144    2.860   1693.40     0.0676     0.0040     0.0651     0.0286     0.0944     6.0209    45.7600     0.0486     0.7256
  145    2.880   1694.36     0.0754     0.0047     0.0653     0.0288     0.1025     6.6123    46.0800     0.0565     0.6402
  146    2.900   1695.43     0.1021     0.0049     0.0654     0.0290     0.1296     4.9112    46.4000     0.0832     0.4384
  147    2.920   1696.49     0.1253     0.0047     0.0483     0.0292     0.1512     3.7457    46.7200     0.1045     0.3121
  148    2.940   1708.45     0.0931     0.0039     0.0483     0.0294     0.1133     4.3343    47.0400     0.0663     0.2858
  149    2.960   1722.93     0.0964     0.0037     0.0483     0.0296     0.1167     4.0358    47.3600     0.0693     0.2708
  150    2.980   1737.41     0.0998     0.0035     0.0494     0.0298     0.1200     3.6089    47.6800     0.0724     0.2558
  151    3.000   1740.37     0.0962     0.0031     0.0565     0.0300     0.1189     3.1747    48.0000     0.0709     0.3368
  152    3.020   1741.01     0.0927     0.0031     0.0602     0.0302     0.1179     3.3405    48.3200     0.0695     0.4271
  153    3.040   1741.66     0.0923     0.0030     0.0618     0.0304     0.1181     3.2427    48.6400     0.0695     0.4455
  154    3.060   1742.30     0.0890     0.0028     0.0629     0.0306     0.1151     2.9943    48.9600     0.0661     0.4788
  155    3.080   1742.90     0.0893     0.0027     0.0639     0.0308     0.1161     3.0375    49.2800     0.0668     0.4947
  156    3.100   1743.58     0.0889     0.0028     0.0637     0.0310     0.1157     3.1197    49.6000     0.0661     0.4960
  157    3.120   1744.22     0.0884     0.0029     0.0622     0.0312     0.1147     3.3079    49.9200     0.0648     0.4839
  158    3.140   1744.92     0.0862     0.0034     0.0615     0.0314     0.1122     4.0037    50.2400     0.0619     0.4934
  159    3.160   1745.58     0.0897     0.0035     0.0609     0.0316     0.1153     4.0000    50.5600     0.0648     0.4544
  160    3.180   1746.21     0.0889     0.0035     0.0619     0.0318     0.1148     3.9964    50.8800     0.0639     0.4687
  161    3.200   1746.82     0.0889     0.0034     0.0617     0.0320     0.1148     3.8431    51.2000     0.0636     0.4664
  162    3.220   1747.48     0.0858     0.0036     0.0620     0.0322     0.1118     4.0589    51.5200     0.0602     0.4910
  163    3.240   1748.13     0.0815     0.0034     0.0636     0.0324     0.1079     4.0940    51.8400     0.0561     0.5461
  164    3.260   1760.92     0.0833     0.0037     0.0644     0.0326     0.1102     4.6354    52.1600     0.0580     0.5457
  165    3.280   1778.29     0.0876     0.0034     0.0653     0.0328     0.1149     4.2449    52.4800     0.0624     0.5172
  166    3.300   1788.25     0.0948     0.0034     0.0655     0.0330     0.1217     3.8272    52.8000     0.0689     0.4519
  167    3.320   1789.23     0.0953     0.0033     0.0678     0.0332     0.1237     3.4267    53.1200     0.0705     0.4884
  168    3.340   1790.18     0.0940     0.0034     0.0670     0.0334     0.1225     3.6080    53.4400     0.0691     0.4990
  169    3.360   1791.10     0.0944     0.0031     0.0669     0.0336     0.1223     3.2935    53.7600     0.0686     0.4808
  170    3.380   1792.04     0.0924     0.0030     0.0665     0.0338     0.1202     3.3090    54.0800     0.0662     0.4912
  171    3.400   1792.93     0.0919     0.0031     0.0674     0.0340     0.1201     3.3192    54.4000     0.0657     0.5032
  172    3.420   1793.88     0.0949     0.0037     0.0677     0.0342     0.1232     3.8966    54.7200     0.0685     0.4868
  173    3.440   1794.80     0.0909     0.0037     0.0676     0.0344     0.1193     3.9928    55.0400     0.0643     0.5184
  174    3.460   1795.84     0.0941     0.0034     0.0672     0.0346     0.1225     3.7152    55.3600     0.0671     0.4915
  175    3.480   1796.75     0.0971     0.0036     0.0658     0.0348     0.1245     3.7244    55.6800     0.0689     0.4432
  176    3.500   1800.51     0.0791     0.0032     0.0690     0.0350     0.1087     4.1695    56.0000     0.0527     0.6736
  177    3.520   1810.10     0.0898     0.0035     0.0653     0.0352     0.1178     4.6388    56.3200     0.0614     0.5294
  178    3.540   1818.50     0.0992     0.0035     0.0635     0.0354     0.1258     3.5617    56.6400     0.0692     0.4043
  179    3.560   1819.51     0.1004     0.0038     0.0649     0.0356     0.1275     3.8684    56.9600     0.0706     0.4101
  180    3.580   1820.50     0.1012     0.0035     0.0656     0.0358     0.1284     3.4494    57.2800     0.0711     0.4083
  181    3.600   1821.49     0.1030     0.0036     0.0660     0.0360     0.1305     3.5500    57.6000     0.0729     0.4042
  182    3.620   1822.47     0.1040     0.0037     0.0665     0.0362     0.1317     3.5466    57.9200     0.0738     0.4043
  183    3.640   1823.47     0.1006     0.0037     0.0672     0.0364     0.1286     3.7481    58.2400     0.0704     0.4303
  184    3.660   1824.47     0.1017     0.0035     0.0704     0.0366     0.1311     3.4683    58.5600     0.0726     0.4610
  185    3.680   1825.48     0.1053     0.0037     0.0722     0.0368     0.1354     3.4648    58.8800     0.0765     0.4569
  186    3.700   1826.44     0.1022     0.0036     0.0728     0.0370     0.1328     3.4689    59.2000     0.0736     0.4850
  187    3.720   1827.46     0.0993     0.0036     0.0741     0.0372     0.1303     3.6496    59.5200     0.0708     0.5158
  188    3.740   1828.46     0.1006     0.0038     0.0758     0.0374     0.1322     3.7691    59.8400     0.0724     0.5225
  189    3.760   1829.46     0.1008     0.0037     0.0765     0.0376     0.1328     3.6703    60.1600     0.0727     0.5302
  190    3.780   1830.42     0.1005     0.0038     0.0779     0.0378     0.1330     3.7606    60.4800     0.0725     0.5458
  191    3.800   1831.40     0.0994     0.0039     0.0794     0.0380     0.1325     3.9356    60.8000     0.0717     0.5691
  192    3.820   1832.39     0.1028     0.0034     0.0803     0.0382     0.1364     3.2786    61.1200     0.0753     0.5548
  193    3.840   1833.43     0.1032     0.0038     0.0806     0.0384     0.1370     3.7121    61.4400     0.0756     0.5579
  194    3.860   1834.43     0.1027     0.0039     0.0809     0.0386     0.1367     3.7866    61.7600     0.0749     0.5662
  195    3.880   1835.45     0.1037     0.0035     0.0815     0.0388     0.1379     3.3561    62.0800     0.0758     0.5626
  196    3.900   1836.43     0.1051     0.0037     0.0826     0.0390     0.1398     3.5310    62.4000     0.0774     0.5626
  197    3.920   1837.42     0.1031     0.0036     0.0839     0.0392     0.1381     3.5196    62.7200     0.0754     0.5865
  198    3.940   1838.38     0.1051     0.0040     0.0842     0.0394     0.1404     3.7554    63.0400     0.0773     0.5766
  199    3.960   1839.38     0.1056     0.0035     0.0840     0.0396     0.1409     3.3453    63.3600     0.0775     0.5730
  200    3.980   1840.38     0.1079     0.0037     0.0840     0.0398     0.1431     3.4649    63.6800     0.0794     0.5542
  201    4.000   1841.40     0.1126     0.0039     0.0842     0.0400     0.1480     3.4698    64.0000     0.0840     0.5262
  202    4.020   1842.38     0.1084     0.0041     0.0844     0.0402     0.1438     3.7692    64.3200     0.0795     0.5535
  203    4.040   1843.36     0.1110     0.0039     0.0847     0.0404     0.1466     3.5116    64.6400     0.0819     0.5412
  204    4.060   1844.40     0.1153     0.0042     0.0856     0.0406     0.1511     3.6490    64.9600     0.0862     0.5182
  205    4.080   1845.35     0.1110     0.0041     0.0862     0.0408     0.1473     3.6683    65.2800     0.0820     0.5548
  206    4.100   1846.36     0.1154     0.0040     0.0864     0.0410     0.1517     3.4687    65.6000     0.0861     0.5277
  207    4.120   1847.37     0.1174     0.0042     0.0863     0.0412     0.1536     3.5876    65.9200     0.0877     0.5141
  208    4.140   1848.35     0.1167     0.0042     0.0866     0.0414     0.1530     3.6417    66.2400     0.0868     0.5202
  209    4.160   1849.34     0.1201     0.0042     0.0867     0.0416     0.1565     3.4918    66.5600     0.0899     0.5023
  210    4.180   1850.29     0.1195     0.0043     0.0873     0.0418     0.1562     3.6058    66.8800     0.0893     0.5086
  211    4.200   1851.28     0.1204     0.0042     0.0879     0.0420     0.1572     3.5102    67.2000     0.0900     0.5065
  212    4.220   1852.27     0.1227     0.0041     0.0882     0.0422     0.1597     3.3417    67.5200     0.0922     0.4974
  213    4.240   1853.24     0.1225     0.0041     0.0885     0.0424     0.1596     3.3884    67.8400     0.0918     0.5012
  214    4.260   1854.24     0.1254     0.0044     0.0889     0.0426     0.1627     3.5814    68.1600     0.0945     0.4879
  215    4.280   1855.24     0.1267     0.0044     0.0887     0.0428     0.1640     3.5015    68.4800     0.0955     0.4809
  216    4.300   1856.27     0.1291     0.0046     0.0887     0.0430     0.1663     3.5568    68.8000     0.0975     0.4672
  217    4.320   1857.24     0.1284     0.0046     0.0891     0.0432     0.1658     3.5658    69.1200     0.0967     0.4741
  218    4.340   1858.23     0.1294     0.0047     0.0892     0.0434     0.1669     3.6258    69.4400     0.0974     0.4695
  219    4.360   1859.20     0.1309     0.0046     0.0894     0.0436     0.1684     3.5194    69.7600     0.0986     0.4633
  220    4.380   1860.20     0.1338     0.0045     0.0904     0.0438     0.1717     3.3627    70.0800     0.1016     0.4559
  221    4.400   1861.22     0.1314     0.0045     0.0907     0.0440     0.1695     3.4374    70.4000     0.0991     0.4709
  222    4.420   1862.26     0.1328     0.0044     0.0921     0.0442     0.1713     3.2994    70.7200     0.1006     0.4717
  223    4.440   1863.23     0.1335     0.0047     0.0930     0.0444     0.1725     3.5211    71.0400     0.1014     0.4775
  224    4.460   1864.21     0.1370     0.0050     0.0936     0.0446     0.1762     3.6308    71.3600     0.1048     0.4649
  225    4.480   1865.24     0.1386     0.0046     0.0937     0.0448     0.1780     3.2941    71.6800     0.1064     0.4609
  226    4.500   1866.23     0.1423     0.0046     0.0935     0.0450     0.1815     3.2321    72.0000     0.1095     0.4416
  227    4.520   1867.22     0.1443     0.0048     0.0943     0.0452     0.1837     3.3444    72.3200     0.1114     0.4382
  228    4.540   1868.22     0.1446     0.0050     0.0942     0.0454     0.1841     3.4707    72.6400     0.1115     0.4378
  229    4.560   1869.21     0.1448     0.0049     0.0944     0.0456     0.1845     3.3972    72.9600     0.1116     0.4380
  230    4.580   1870.18     0.1477     0.0051     0.0941     0.0458     0.1873     3.4712    73.2800     0.1140     0.4255
  231    4.600   1871.21     0.1448     0.0051     0.0938     0.0460     0.1842     3.5226    73.6000     0.1106     0.4328
  232    4.620   1872.22     0.1460     0.0049     0.0940     0.0462     0.1856     3.3300    73.9200     0.1117     0.4302
  233    4.640   1873.16     0.1479     0.0051     0.0935     0.0464     0.1872     3.4539    74.2400     0.1129     0.4168
  234    4.660   1874.17     0.1435     0.0050     0.0940     0.0466     0.1830     3.4905    74.5600     0.1084     0.4377
  235    4.680   1875.20     0.1441     0.0050     0.0946     0.0468     0.1837     3.4773    74.8800     0.1088     0.4370
  236    4.700   1876.16     0.1444     0.0053     0.0946     0.0470     0.1840     3.7244    75.2000     0.1088     0.4349
  237    4.720   1877.17     0.1465     0.0054     0.0956     0.0472     0.1867     3.7472    75.5200     0.1111     0.4353
  238    4.740   1878.13     0.1444     0.0054     0.0967     0.0474     0.1848     3.7874    75.8400     0.1090     0.4469
  239    4.760   1879.14     0.1452     0.0055     0.0976     0.0476     0.1861     3.8359    76.1600     0.1099     0.4524
  240    4.780   1880.12     0.1479     0.0053     0.0992     0.0478     0.1893     3.6371    76.4800     0.1129     0.4517
  241    4.800   1884.35     0.1470     0.0053     0.0965     0.0480     0.1881     3.6143    76.8000     0.1113     0.4468
  242    4.820   1894.30     0.1479     0.0056     0.0931     0.0482     0.1875     3.8284    77.1200     0.1104     0.4169
  243    4.840   1904.26     0.1489     0.0055     0.0896     0.0484     0.1870     3.7129    77.4400     0.1096     0.3869
  244    4.860   1908.50     0.1459     0.0055     0.0954     0.0486     0.1856     3.8090    77.7600     0.1078     0.4264
  245    4.880   1909.43     0.1488     0.0055     0.0977     0.0488     0.1895     3.7014    78.0800     0.1115     0.4330
  246    4.900   1910.46     0.1464     0.0054     0.1005     0.0490     0.1884     3.7100    78.4000     0.1100     0.4629
  247    4.920   1911.48     0.1509     0.0052     0.1027     0.0492     0.1937     3.4499    78.7200     0.1150     0.4589
  248    4.940   1912.50     0.1479     0.0053     0.1047     0.0494     0.1916     3.5688    79.0400     0.1126     0.4856
  249    4.960   1913.46     0.1509     0.0052     0.1059     0.0496     0.1952     3.4568    79.3600     0.1159     0.4833
  250    4.980   1914.47     0.1518     0.0053     0.1064     0.0498     0.1965     3.5282    79.6800     0.1168     0.4850
  251    5.000   1915.42     0.1544     0.0055     0.1057     0.0500     0.1988     3.5994    80.0000     0.1188     0.4699
  252    5.020   1916.41     0.1578     0.0055     0.1064     0.0502     0.2025     3.4959    80.3200     0.1222     0.4616
  253    5.040   1917.42     0.1576     0.0060     0.1074     0.0504     0.2025     3.7801    80.6400     0.1219     0.4640
  254    5.060   1918.44     0.1579     0.0057     0.1062     0.0506     0.2027     3.6632    80.9600     0.1218     0.4614
  255    5.080   1919.43     0.1601     0.0059     0.1071     0.0508     0.2051     3.6941    81.2800     0.1238     0.4538
  256    5.100   1920.42     0.1632     0.0056     0.1071     0.0510     0.2081     3.3923    81.6000     0.1265     0.4417
  257    5.120   1921.39     0.1643     0.0058     0.1087     0.0512     0.2097     3.5588    81.9200     0.1278     0.4450
  258    5.140   1922.39     0.1672     0.0060     0.1094     0.0514     0.2130     3.5704    82.2400     0.1308     0.4416
  259    5.160   1923.41     0.1703     0.0056     0.1077     0.0516     0.2160     3.2903    82.5600     0.1334     0.4284
  260    5.180   1924.42     0.1700     0.0059     0.1133     0.0518     0.2170     3.4800    82.8800     0.1342     0.4496
  261    5.200   1925.36     0.1686     0.0058     0.1151     0.0520     0.2166     3.4291    83.2000     0.1334     0.4670
  262    5.220   1926.39     0.1664     0.0060     0.1162     0.0522     0.2151     3.6136    83.5200     0.1316     0.4844
  263    5.240   1927.35     0.1640     0.0062     0.1182     0.0524     0.2133     3.7977    83.8400     0.1295     0.5017
  264    5.260   1928.38     0.1687     0.0060     0.1201     0.0526     0.2190     3.5928    84.1600     0.1348     0.4980
  265    5.280   1929.30     0.1652     0.0045     0.1232     0.0528     0.2164     2.7055    84.4800     0.1319     0.5249
  266    5.300   1930.31     0.1668     0.0031     0.1268     0.0530     0.2196     1.8540    84.8000     0.1348     0.5387
  267    5.320   1931.30     0.1712     0.0055     0.1310     0.0532     0.2254     3.2586    85.1200     0.1403     0.5410
  268    5.340   1932.38     0.2477     0.0072     0.1371     0.0534     0.3047     3.5365    85.4400     0.2192     0.4135
  269    5.360   1933.34     0.9409     0.0079     0.1245     0.0536     0.9974     0.9582    85.7600     0.9116     0.0899
  270    5.380   1934.38     1.9518     0.0079     0.0414     0.0538     1.9904     0.4443    86.0800     1.9043     0.0206
  271    5.400   1935.36     2.2404     0.0078    -0.0499     0.0540     2.2170     0.3517    86.4000     2.1306    -0.0515
  272    5.420   1936.30     2.3429     0.0091    -0.0178     0.0542     2.3289     0.3883    86.7200     2.2422    -0.0391
  273    5.440   1937.34     2.3560     0.0091     0.0138     0.0544     2.3603     0.3880    87.0400     2.2732    -0.0195
  274    5.460   1938.40     2.4546     0.0083     0.0255     0.0546     2.4624     0.3472    87.3600     2.3750    -0.0152
  275    5.480   1939.36     2.5969     0.0080     0.0359     0.0548     2.6120     0.3145    87.6800     2.5243    -0.0075
  276    5.500   1940.32     2.7027     0.0079     0.0341     0.0550     2.7177     0.2929    88.0000     2.6297    -0.0074
  277    5.520   1941.34     2.7853     0.0073     0.0395     0.0552     2.8006     0.2656    88.3200     2.7123    -0.0069
  278    5.540   1942.36     2.8319     0.0060     0.0462     0.0554     2.8500     0.2132    88.6400     2.7614    -0.0044
  279    5.560   1943.31     2.7744     0.0057     0.0524     0.0556     2.7955     0.2043    88.9600     2.7065    -0.0020
  280    5.580   1953.83     2.6850     0.0054     0.0545     0.0558     2.7076     0.1945    89.2800     2.6183    -0.0007
  281    5.600   1967.20     2.5604     0.0053     0.0575     0.0560     2.5839     0.2023    89.6000     2.4943     0.0000
  282    5.620   1969.22     2.3854     0.0070     0.0582     0.0562     2.4098     0.2916    89.9200     2.3199     0.0009
  283    5.640   1970.23     2.2523     0.0086     0.0593     0.0564     2.2770     0.3809    90.2400     2.1868     0.0012
  284    5.660   1971.30     1.9956     0.0111     0.0596     0.0566     2.0204     0.5497    90.5600     1.9298     0.0013
  285    5.680   1972.28     1.7773     0.0141     0.0600     0.0568     1.8025     0.7778    90.8800     1.7116     0.0018
  286    5.700   1973.27     1.5704     0.0165     0.0608     0.0570     1.5959     1.0200    91.2000     1.5047     0.0024
  287    5.720   1974.20     1.3958     0.0230     0.0623     0.0572     1.4216     1.6333    91.5200     1.3301     0.0033
  288    5.740   1975.28     1.2514     0.0305     0.0629     0.0574     1.2779     2.4123    91.8400     1.1860     0.0047
  289    5.760   1976.26     1.1425     0.0281     0.0645     0.0576     1.1693     2.4419    92.1600     1.0772     0.0060
  290    5.780   1977.25     1.1000     0.0241     0.0647     0.0578     1.1268     2.1918    92.4800     1.0343     0.0058
  291    5.800   1978.19     1.0802     0.0229     0.0708     0.0580     1.1090     2.1108    92.8000     1.0162     0.0104
  292    5.820   1979.19     0.9460     0.0220     0.0863     0.0582     0.9781     2.2737    93.1200     0.8850     0.0208
  293    5.840   1980.21     0.8225     0.0199     0.1925     0.0584     0.8827     2.3758    93.4400     0.7893     0.1080
  294    5.860   1981.28     0.9508     0.0160     0.2823     0.0586     1.0671     1.7484    93.7600     0.9734     0.2240
  295    5.880   1982.26     1.1926     0.0142     0.1960     0.0588     1.2910     1.2235    94.0800     1.1970     0.1469
  296    5.900   1983.25     1.2191     0.0131     0.1376     0.0590     1.2817     1.0730    94.4000     1.1873     0.0756
  297    5.920   1984.16     1.1268     0.0122     0.0969     0.0592     1.1747     1.0753    94.7200     1.0799     0.0504
  298    5.940   1985.15     0.9915     0.0122     0.0562     0.0594     1.0231     1.2150    95.0400     0.9280     0.0168
  299    5.960   1986.15     0.8494     0.0129    -0.0232     0.0596     0.8512     1.4852    95.3600     0.7559    -0.0743
  300    5.980   1987.23     0.7020     0.0126    -0.0620     0.0598     0.6760     1.7152    95.6800     0.5803    -0.2115
  301    6.000   1988.24     0.6019     0.0115    -0.0277     0.0600     0.5843     1.8420    96.0000     0.4883    -0.2085
  302    6.020   1989.20     0.5084     0.0107     0.0091     0.0602     0.5084     2.0192    96.3200     0.4120    -0.1459
  303    6.040   1990.22     0.4827     0.0099     0.0391     0.0604     0.4948     2.0341    96.6400     0.3982    -0.0796
  304    6.060   1991.17     0.4694     0.0097     0.0868     0.0606     0.4982     2.0493    96.9600     0.4013     0.0200
  305    6.080   1992.08     0.4672     0.0094     0.1326     0.0608     0.5171     2.0142    97.2800     0.4198     0.1378
  306    6.100   1993.11     0.4583     0.0086     0.1534     0.0610     0.5203     1.8649    97.6000     0.4227     0.2050
  307    6.120   1994.09     0.4430     0.0083     0.1678     0.0612     0.5116     1.8675    97.9200     0.4137     0.2469
  308    6.140   1995.13     0.4330     0.0084     0.1756     0.0614     0.5057     1.9467    98.2400     0.4075     0.2742
  309    6.160   1996.13     0.4297     0.0087     0.1865     0.0616     0.5062     2.0130    98.5600     0.4076     0.2959
  310    6.180   1997.12     0.4251     0.0085     0.1947     0.0618     0.5057     1.9929    98.8800     0.4068     0.3200
  311    6.200   1998.09     0.4227     0.0083     0.2046     0.0620     0.5074     1.9594    99.2000     0.4082     0.3422
  312    6.220   1999.03     0.4216     0.0083     0.2126     0.0622     0.5095     1.9583    99.5200     0.4100     0.3587
  313    6.240   2000.08     0.4288     0.0081     0.2208     0.0624     0.5203     1.8938    99.8400     0.4204     0.3697
  314    6.260   2001.09     0.4426     0.0077     0.2270     0.0626     0.5372     1.7630   100.1600     0.4370     0.3720
  315    6.280   2002.08     0.4607     0.0081     0.2345     0.0628     0.5579     1.7658   100.4800     0.4574     0.3688
  316    6.300   2003.06     0.4901     0.0091     0.2360     0.0630     0.5895     1.8902   100.8000     0.4887     0.3556
  317    6.320   2004.04     0.5443     0.0095     0.2334     0.0632     0.6425     1.7604   101.1200     0.5414     0.3154
  318    6.340   2004.99     0.5924     0.0114     0.2248     0.0634     0.6888     1.9488   101.4400     0.5874     0.2831
  319    6.360   2005.96     0.6675     0.0119     0.1846     0.0636     0.7550     1.8162   101.7600     0.6532     0.2221
  320    6.380   2007.05     0.7255     0.0113     0.1524     0.0638     0.7933     1.5824   102.0800     0.6912     0.1412
  321    6.400   2008.08     0.7687     0.0105     0.1558     0.0640     0.8323     1.3829   102.4000     0.7299     0.1196
  322    6.420   2009.07     0.7680     0.0098     0.1369     0.0642     0.8303     1.2646   102.7200     0.7275     0.1152
  323    6.440   2010.04     0.6683     0.0087     0.1229     0.0644     0.7204     1.2753   103.0400     0.6174     0.0966
  324    6.460   2010.97     0.5835     0.0087     0.1729     0.0646     0.6483     1.4780   103.3600     0.5449     0.1649
  325    6.480   2011.93     0.5262     0.0084     0.2079     0.0648     0.6098     1.6042   103.6800     0.5061     0.2653
  326    6.500   2012.95     0.4851     0.0081     0.2422     0.0650     0.5830     1.6646   104.0000     0.4790     0.3508
  327    6.520   2014.03     0.4799     0.0081     0.2611     0.0652     0.5868     1.6926   104.3200     0.4825     0.3924
  328    6.540   2015.06     0.4752     0.0087     0.2743     0.0654     0.5892     1.8434   104.6400     0.4846     0.4253
  329    6.560   2016.02     0.5060     0.0090     0.2766     0.0656     0.6224     1.8050   104.9600     0.5174     0.4088
  330    6.580   2017.03     0.5366     0.0092     0.2622     0.0658     0.6479     1.7188   105.2800     0.5426     0.3668
  331    6.600   2018.02     0.5439     0.0098     0.2524     0.0660     0.6510     1.7916   105.6000     0.5454     0.3467
  332    6.620   2019.01     0.5332     0.0103     0.2573     0.0662     0.6402     1.9250   105.9200     0.5343     0.3530
  333    6.640   2019.96     0.5216     0.0099     0.2637     0.0664     0.6314     1.8978   106.2400     0.5251     0.3713
  334    6.660   2020.93     0.5173     0.0099     0.2816     0.0666     0.6331     1.9194   106.5600     0.5266     0.3973
  335    6.680   2021.93     0.5200     0.0106     0.2958     0.0668     0.6429     2.0417   106.8800     0.5360     0.4213
  336    6.700   2023.01     0.5296     0.0100     0.3019     0.0670     0.6543     1.8862   107.2000     0.5471     0.4204
  337    6.720   2024.00     0.5383     0.0106     0.3124     0.0672     0.6676     1.9686   107.5200     0.5601     0.4299
  338    6.740   2024.98     0.5510     0.0107     0.3171     0.0674     0.6832     1.9560   107.8400     0.5754     0.4302
  339    6.760   2025.99     0.5668     0.0112     0.3179     0.0676     0.7002     2.0067   108.1600     0.5920     0.4225
  340    6.780   2027.00     0.6052     0.0116     0.3175     0.0678     0.7382     1.9443   108.4800     0.6297     0.3954
  341    6.800   2027.97     0.6513     0.0112     0.3021     0.0680     0.7817     1.7428   108.8000     0.6729     0.3605
  342    6.820   2028.98     0.6749     0.0115     0.2954     0.0682     0.7996     1.7052   109.1200     0.6905     0.3312
  343    6.840   2029.97     0.6782     0.0112     0.3030     0.0684     0.8032     1.6542   109.4400     0.6938     0.3303
  344    6.860   2030.94     0.6527     0.0108     0.3240     0.0686     0.7860     1.6490   109.7600     0.6762     0.3677
  345    6.880   2031.91     0.6617     0.0112     0.3405     0.0688     0.8025     1.6879   110.0800     0.6924     0.3845
  346    6.900   2032.88     0.6776     0.0116     0.3480     0.0690     0.8233     1.7069   110.4000     0.7129     0.3898
  347    6.920   2033.97     0.7029     0.0120     0.3557     0.0692     0.8511     1.7180   110.7200     0.7404     0.3830
  348    6.940   2035.00     0.7483     0.0126     0.3422     0.0694     0.8932     1.7012   111.0400     0.7821     0.3522
  349    6.960   2035.99     0.7552     0.0126     0.3395     0.0696     0.8981     1.6864   111.3600     0.7867     0.3441
  350    6.980   2036.98     0.7821     0.0129     0.3447     0.0698     0.9246     1.6611   111.6800     0.8129     0.3315
  351    7.000   2037.99     0.7925     0.0132     0.3821     0.0700     0.9496     1.6673   112.0000     0.8376     0.3629
  352    7.020   2038.99     0.8053     0.0147     0.4113     0.0702     0.9746     1.8331   112.3200     0.8623     0.3861
  353    7.040   2039.94     0.8124     0.0153     0.4298     0.0704     0.9902     1.8845   112.6400     0.8775     0.4021
  354    7.060   2040.89     0.8298     0.0156     0.4389     0.0706     1.0152     1.8919   112.9600     0.9022     0.4111
  355    7.080   2041.86     0.8320     0.0164     0.4557     0.0708     1.0207     1.9665   113.2800     0.9074     0.4169
  356    7.100   2042.96     0.8445     0.0171     0.4780     0.0710     1.0427     2.0315   113.6000     0.9291     0.4315
  357    7.120   2043.95     0.8770     0.0172     0.5079     0.0712     1.0875     1.9824   113.9200     0.9736     0.4416
  358    7.140   2044.95     0.9048     0.0175     0.5075     0.0714     1.1217     1.9411   114.2400     1.0075     0.4417
  359    7.160   2045.92     0.9346     0.0177     0.4953     0.0716     1.1463     1.8964   114.5600     1.0317     0.4191
  360    7.180   2046.89     0.9561     0.0184     0.4863     0.0718     1.1620     1.9305   114.8800     1.0471     0.3996
  361    7.200   2047.94     0.9759     0.0187     0.4890     0.0720     1.1800     1.9161   115.2000     1.0648     0.3888
  362    7.220   2048.96     0.9807     0.0188     0.4603     0.0722     1.1795     1.9056   115.5200     1.0640     0.3770
  363    7.240   2049.92     0.9523     0.0188     0.5090     0.0724     1.1592     1.9680   115.8400     1.0434     0.4028
  364    7.260   2050.84     0.9553     0.0161     0.5457     0.0726     1.1823     1.6890   116.1600     1.0662     0.4388
  365    7.280   2051.89     0.9528     0.0155     0.5450     0.0728     1.1813     1.6305   116.4800     1.0648     0.4425
  366    7.300   2052.93     0.9772     0.0178     0.5345     0.0730     1.2049     1.8272   116.8000     1.0881     0.4311
  367    7.320   2053.93     1.0270     0.0209     0.5329     0.0732     1.2479     2.0618   117.1200     1.1308     0.4006
  368    7.340   2054.92     1.1287     0.0202     0.5364     0.0734     1.3551     1.8133   117.4400     1.2377     0.3764
  369    7.360   2055.88     1.2800     0.0184     0.4489     0.0736     1.4830     1.4463   117.7600     1.3653     0.3003
  370    7.380   2056.84     1.3859     0.0182     0.3001     0.0738     1.5322     1.3112   118.0800     1.4141     0.1941
  371    7.400   2057.95     1.2544     0.0202     0.3069     0.0740     1.3722     1.5974   118.4000     1.2538     0.1654
  372    7.420   2059.10     1.0458     0.0215     0.3636     0.0742     1.1905     2.0376   118.7200     1.0718     0.2526
  373    7.440   2075.65     1.0626     0.0190     0.3941     0.0744     1.2238     2.3181   119.0400     1.1047     0.2794
  374    7.460   2092.44     1.1142     0.0168     0.4138     0.0746     1.2871     1.5119   119.3600     1.1678     0.2887
  375    7.480   2093.49     1.0998     0.0156     0.3448     0.0748     1.2521     1.4035   119.6800     1.1324     0.2539
  376    7.500   2094.51     1.0186     0.0157     0.3716     0.0750     1.1705     1.5169   120.0000     1.0505     0.2731
  377    7.520   2095.48     0.9633     0.0159     0.4131     0.0752     1.1316     1.6459   120.3200     1.0113     0.3220
  378    7.540   2096.46     0.9446     0.0148     0.4746     0.0754     1.1366     1.5676   120.6400     1.0160     0.3758
  379    7.560   2097.45     0.9952     0.0163     0.4696     0.0756     1.1981     1.6555   120.9600     1.0772     0.3786
  380    7.580   2098.44     1.0978     0.0201     0.4454     0.0758     1.2900     1.8637   121.2800     1.1687     0.3270
  381    7.600   2099.38     1.2782     0.0215     0.3927     0.0760     1.4533     1.7167   121.6000     1.3317     0.2562
  382    7.620   2100.42     1.4287     0.0196     0.3094     0.0762     1.5747     1.3920   121.9200     1.4527     0.1869
  383    7.640   2101.42     1.4531     0.0186     0.2227     0.0764     1.5565     1.2804   122.2400     1.4343     0.1184
  384    7.660   2102.43     1.3393     0.0172     0.2515     0.0766     1.4375     1.2549   122.5600     1.3149     0.1201
  385    7.680   2103.39     1.0920     0.0170     0.3166     0.0768     1.2207     1.5122   122.8800     1.0978     0.2097
  386    7.700   2104.36     0.9288     0.0165     0.4037     0.0770     1.0773     1.7563   123.2000     0.9541     0.2901
  387    7.720   2105.34     0.8895     0.0163     0.4829     0.0772     1.0866     1.8301   123.5200     0.9631     0.4072
  388    7.740   2106.33     0.9084     0.0158     0.4946     0.0774     1.1164     1.7506   123.8400     0.9925     0.4209
  389    7.760   2107.38     0.9165     0.0160     0.4436     0.0776     1.1113     1.7498   124.1600     0.9872     0.3914
  390    7.780   2108.39     0.9397     0.0169     0.4177     0.0778     1.1199     1.8009   124.4800     0.9954     0.3528
  391    7.800   2109.37     0.9614     0.0172     0.4154     0.0780     1.1371     1.7920   124.8000     1.0123     0.3362
  392    7.820   2110.41     0.9445     0.0180     0.4459     0.0782     1.1248     1.9008   125.1200     0.9997     0.3512
  393    7.840   2111.34     0.9390     0.0176     0.4533     0.0784     1.1303     1.8740   125.4400     1.0049     0.3753
  394    7.860   2112.34     0.9249     0.0171     0.4689     0.0786     1.1114     1.8428   125.7600     0.9856     0.3707
  395    7.880   2113.32     0.9218     0.0163     0.5107     0.0788     1.1347     1.7709   126.0800     1.0086     0.4243
  396    7.900   2114.31     0.9350     0.0145     0.5190     0.0790     1.1515     1.5580   126.4000     1.0251     0.4259
  397    7.920   2115.34     0.9386     0.0125     0.5390     0.0792     1.1590     1.3318   126.7200     1.0323     0.4315
  398    7.940   2116.35     0.9773     0.0162     0.5581     0.0794     1.2071     1.6806   127.0400     1.0801     0.4332
  399    7.960   2117.33     1.0516     0.0246     0.5446     0.0796     1.2863     2.3758   127.3600     1.1589     0.4138
  400    7.980   2118.31     1.1794     0.0260     0.5339     0.0798     1.4082     2.2237   127.6800     1.2805     0.3631
  401    8.000   2119.29     1.4487     0.0194     0.4296     0.0800     1.6369     1.3827   128.0000     1.5089     0.2442
  402    8.020   2120.35     1.6560     0.0163     0.3362     0.0802     1.8151     0.9867   128.3200     1.6868     0.1772
  403    8.040   2121.32     1.6349     0.0178     0.2254     0.0804     1.7450     1.0829   128.6400     1.6163     0.1124
  404    8.060   2122.28     1.5438     0.0267     0.2621     0.0806     1.6417     1.6803   128.9600     1.5127     0.1009
  405    8.080   2123.29     1.8127     0.0270     0.3444     0.0808     1.9352     1.6640   129.2800     1.8059     0.1168
  406    8.100   2124.30     3.1574     0.0264     0.3871     0.0810     3.3326     1.0921   129.6000     3.2030     0.1051
  407    8.120   2125.37     6.4881     0.0262     0.1416     0.0812     6.5912     0.5272   129.9200     6.4613     0.0260
  408    8.140   2126.43     9.3467     0.0310    -0.1095     0.0814     9.3346     0.3749   130.2400     9.2043    -0.0118
  409    8.160   2127.46    10.9336     0.0420    -0.2022     0.0816    10.8486     0.4035   130.5600    10.7180    -0.0265
  410    8.180   2128.45    11.8715     0.0537    -0.2159     0.0818    11.7824     0.4646   130.8800    11.6515    -0.0252
  411    8.200   2129.50    12.3651     0.0689    -0.2145     0.0820    12.2754     0.5642   131.2000    12.1442    -0.0243
  412    8.220   2130.57    12.5500     0.0842    -0.2151     0.0822    12.4595     0.6733   131.5200    12.3280    -0.0241
  413    8.240   2131.60    12.6353     0.0944    -0.2032     0.0824    12.5470     0.7496   131.8400    12.4152    -0.0236
  414    8.260   2132.63    12.6698     0.0994    -0.1716     0.0826    12.5924     0.7849   132.1600    12.4602    -0.0214
  415    8.280   2133.65    12.5816     0.1017    -0.1440     0.0828    12.5173     0.8057   132.4800    12.3848    -0.0191
  416    8.300   2134.65    12.3944     0.1000    -0.1081     0.0830    12.3442     0.8011   132.8000    12.2114    -0.0166
  417    8.320   2135.70    12.2442     0.0994    -0.0709     0.0832    12.2092     0.8113   133.1200    12.0761    -0.0138
  418    8.340   2136.77    12.1271     0.0977    -0.0380     0.0834    12.1060     0.8012   133.4400    11.9726    -0.0112
  419    8.360   2137.83    11.9948     0.0977    -0.0147     0.0836    11.9844     0.8125   133.7600    11.8506    -0.0091
  420    8.380   2138.84    11.9069     0.0985     0.0184     0.0838    11.9100     0.8245   134.0800    11.7760    -0.0065
  421    8.400   2139.85    11.7803     0.0968     0.0334     0.0840    11.7923     0.8181   134.4000    11.6579    -0.0048
  422    8.420   2140.87    11.5720     0.0953     0.0313     0.0842    11.5845     0.8169   134.7200    11.4498    -0.0048
  423    8.440   2141.92    11.3358     0.0941     0.0425     0.0844    11.3498     0.8236   135.0400    11.2148    -0.0045
  424    8.460   2143.00    11.1332     0.0945     0.0499     0.0846    11.1542     0.8491   135.3600    11.0188    -0.0031
  425    8.480   2144.02    10.9582     0.1000     0.0510     0.0848    10.9793     0.9117   135.6800    10.8436    -0.0032
  426    8.500   2145.08    10.7168     0.1073     0.0517     0.0850    10.7385     0.9998   136.0000    10.6025    -0.0031
  427    8.520   2146.05    10.3913     0.1131     0.0426     0.0852    10.4110     1.0877   136.3200    10.2746    -0.0037
  428    8.540   2147.15     9.8651     0.1333     0.0512     0.0854     9.8865     1.3508   136.6400     9.7499    -0.0035
  429    8.560   2148.13     9.1868     0.1513     0.0540     0.0856     9.2073     1.6044   136.9600     9.0704    -0.0040
  430    8.580   2149.14     8.3039     0.1452     0.0556     0.0858     8.3272     1.6957   137.2800     8.1899    -0.0037
  431    8.600   2150.13     7.4537     0.1251     0.0659     0.0860     7.4809     1.6122   137.6000     7.3433    -0.0029
  432    8.620   2151.11     6.8189     0.1058     0.0817     0.0862     6.8490     1.5130   137.9200     6.7110    -0.0022
  433    8.640   2152.23     6.4338     0.0820     0.1034     0.0864     6.4791     1.2597   138.2400     6.3409     0.0034
  434    8.660   2153.23     7.0197     0.0670     0.0428     0.0866     7.0503     1.0038   138.5600     6.9117    -0.0020
  435    8.680   2154.30     8.8300     0.0578    -0.0811     0.0868     8.8342     0.7040   138.8800     8.6954    -0.0088
  436    8.700   2155.38    10.8422     0.0566    -0.1993     0.0870    10.7661     0.5502   139.2000    10.6269    -0.0252
  437    8.720   2156.39    12.1060     0.0588    -0.2159     0.0872    12.0160     0.4988   139.5200    11.8765    -0.0254
  438    8.740   2157.45    12.8916     0.0687    -0.2157     0.0874    12.8010     0.5402   139.8400    12.6612    -0.0239
  439    8.760   2158.45    13.4412     0.0807    -0.2029     0.0876    13.3549     0.6077   140.1600    13.2147    -0.0222
  440    8.780   2159.51    13.8855     0.0929    -0.2003     0.0878    13.8010     0.6745   140.4800    13.6605    -0.0212
  441    8.800   2160.66    14.2878     0.0990    -0.1897     0.0880    14.2051     0.6983   140.8000    14.0643    -0.0203
  442    8.820   2161.70    14.7818     0.0966    -0.1417     0.0882    14.7147     0.6604   141.1200    14.5736    -0.0170
  443    8.840   2162.74    15.2958     0.0917    -0.0916     0.0884    15.2490     0.6060   141.4400    15.1075    -0.0132
  444    8.860   2163.76    15.7441     0.0873    -0.0469     0.0886    15.7182     0.5589   141.7600    15.5765    -0.0096
  445    8.880   2164.82    16.2336     0.0843    -0.0216     0.0888    16.2220     0.5231   142.0800    16.0799    -0.0072
  446    8.900   2165.89    16.6594     0.0818    -0.0154     0.0890    16.6518     0.4957   142.4000    16.5094    -0.0065
  447    8.920   2166.98    16.8341     0.0807     0.0186     0.0892    16.8383     0.4809   142.7200    16.6955    -0.0048
  448    8.940   2168.03    16.6579     0.1095     0.0223     0.0894    16.6674     0.6534   143.0400    16.5244    -0.0040
  449    8.960   2169.07    16.1880     0.2337     0.0251     0.0896    16.1984     1.4267   143.3600    16.0551    -0.0040
  450    8.980   2170.10    15.6989     0.2423     0.0314     0.0898    15.7102     1.5264   143.6800    15.5665    -0.0040
  451    9.000   2171.13    15.1944     0.2225     0.0453     0.0900    15.2119     1.4478   144.0000    15.0679    -0.0032
  452    9.020   2172.12    14.6847     0.2075     0.0424     0.0902    14.7039     1.3960   144.3200    14.5596    -0.0030
  453    9.040   2173.15    14.8287     0.1900     0.0126     0.0904    14.8455     1.3019   144.6400    14.7009    -0.0034
  454    9.060   2174.28    13.5023     0.1623    -0.0738     0.0906    13.4546     1.1611   144.9600    13.3097    -0.0154
  455    9.080   2175.30    12.7456     0.1391     0.0130     0.0908    12.7449     1.0889   145.2800    12.5996    -0.0073
  456    9.100   2176.36    12.7258     0.0884    -0.0152     0.0910    12.7310     0.6937   145.6000    12.5854    -0.0062
  457    9.120   2177.41    12.7114     0.0654    -0.0662     0.0912    12.6844     0.5132   145.9200    12.5385    -0.0124
  458    9.140   2178.40    12.6460     0.0744    -0.0995     0.0914    12.6142     0.5869   146.2400    12.4679    -0.0134
  459    9.160   2179.45    12.5148     0.0814    -0.1585     0.0916    12.4543     0.6474   146.5600    12.3078    -0.0191
  460    9.180   2180.46    12.3122     0.0915    -0.1393     0.0918    12.2544     0.7382   146.8800    12.1075    -0.0190
  461    9.200   2181.53    12.0160     0.1014    -0.1052     0.0920    11.9668     0.8363   147.2000    11.8196    -0.0177
  462    9.220   2182.61    11.7593     0.0994    -0.0623     0.0922    11.7274     0.8387   147.5200    11.5799    -0.0145
  463    9.240   2183.62    11.5955     0.0903    -0.0344     0.0924    11.5763     0.7746   147.8400    11.4284    -0.0121
  464    9.260   2184.67    11.4059     0.0883    -0.0020     0.0926    11.4017     0.7699   148.1600    11.2536    -0.0091
  465    9.280   2185.66    11.1404     0.0917    -0.0115     0.0928    11.1410     0.8174   148.4800    10.9925    -0.0083
  466    9.300   2186.70    10.9765     0.0843    -0.1197     0.0930    10.9411     0.7687   148.8000    10.7923    -0.0164
  467    9.320   2187.76    10.8053     0.0784    -0.1526     0.0932    10.7422     0.7257   149.1200    10.5931    -0.0230
  468    9.340   2188.83    10.4834     0.0941    -0.1431     0.0934    10.4217     0.8955   149.4400    10.2723    -0.0234
  469    9.360   2189.90    10.0406     0.1116    -0.1542     0.0936     9.9809     1.1069   149.7600     9.8311    -0.0240
  470    9.380   2190.91     9.6233     0.1357    -0.1988     0.0938     9.5431     1.4099   150.0800     9.3930    -0.0303
  471    9.400   2197.69     9.4000     0.1472    -0.1399     0.0940     9.3331     1.6217   150.4000     9.1827    -0.0277
  472    9.420   2210.74     9.5780     0.1577    -0.0837     0.0942     9.5347     1.7380   150.7200     9.3840    -0.0211
  473    9.440   2216.88     9.7968     0.1429    -0.1637     0.0944     9.7468     1.4751   151.0400     9.5957    -0.0222
  474    9.460   2217.89    10.2700     0.1238    -0.2681     0.0946    10.1686     1.2339   151.3600    10.0173    -0.0335
  475    9.480   2218.99    10.8689     0.0989    -0.3146     0.0948    10.7420     0.9267   151.6800    10.5903    -0.0375
  476    9.500   2220.10    11.4626     0.0925    -0.3183     0.0950    11.3286     0.8223   152.0000    11.1766    -0.0371
  477    9.520   2221.10    12.0319     0.0987    -0.3197     0.0952    11.8985     0.8379   152.3200    11.7462    -0.0352
  478    9.540   2222.08    12.5349     0.1030    -0.3229     0.0954    12.3996     0.8370   152.6400    12.2469    -0.0341
  479    9.560   2223.11    12.8001     0.1164    -0.3264     0.0956    12.6634     0.9137   152.9600    12.5105    -0.0337
  480    9.580   2224.20    12.5914     0.1251    -0.3283     0.0958    12.4538     0.9864   153.2800    12.3005    -0.0344
  481    9.600   2225.27    12.3380     0.1165    -0.3261     0.0960    12.2003     0.9419   153.6000    12.0467    -0.0352
  482    9.620   2226.29    12.4870     0.1128    -0.3189     0.0962    12.3518     0.9114   153.9200    12.1979    -0.0343
  483    9.640   2227.23    13.2921     0.1010    -0.3045     0.0964    13.1615     0.7793   154.2400    13.0073    -0.0313
  484    9.660   2228.31    14.2329     0.0858    -0.2827     0.0966    14.1123     0.6160   154.5600    13.9578    -0.0275
  485    9.680   2229.35    15.0093     0.0770    -0.2881     0.0968    14.8891     0.5142   154.8800    14.7342    -0.0260
  486    9.700   2230.54    15.4746     0.0784    -0.3009     0.0970    15.3502     0.5048   155.2000    15.1950    -0.0259
  487    9.720   2231.54    14.3979     0.0999    -0.3126     0.0972    14.2686     0.6763   155.5200    14.1130    -0.0287
  488    9.740   2232.52    11.7485     0.1207    -0.3212     0.0974    11.6146     0.9964   155.8400    11.4588    -0.0366
  489    9.760   2233.51     8.3410     0.1326    -0.3224     0.0976     8.2059     1.5712   156.1600     8.0498    -0.0523
  490    9.780   2234.44     6.4690     0.1331    -0.3253     0.0978     6.3328     2.0691   156.4800     6.1763    -0.0686
  491    9.800   2235.41     4.7589     0.1275    -0.3243     0.0980     4.6218     2.6603   156.8000     4.4650    -0.0954
  492    9.820   2236.42     3.6026     0.1179    -0.3214     0.0982     3.4670     3.2408   157.1200     3.3099    -0.1274
  493    9.840   2237.48     2.9377     0.1031    -0.3042     0.0984     2.8064     3.4061   157.4400     2.6489    -0.1555
  494    9.860   2238.54     2.3913     0.0831    -0.2768     0.0986     2.2709     3.3969   157.7600     2.1131    -0.1824
  495    9.880   2239.56     2.1237     0.0654    -0.2437     0.0988     2.0162     3.0455   158.0800     1.8581    -0.1910
  496    9.900   2240.52     1.9244     0.0530    -0.2047     0.0990     1.8324     2.7106   158.4000     1.6740    -0.1900
  497    9.920   2241.48     1.7263     0.0454    -0.1559     0.0992     1.6546     2.6152   158.7200     1.4958    -0.1804
  498    9.940   2242.44     1.5848     0.0392    -0.1011     0.0994     1.5332     2.4667   159.0400     1.3741    -0.1618
  499    9.960   2243.48     1.5016     0.0338    -0.0236     0.0996     1.4808     2.2464   159.3600     1.3215    -0.1128
  500    9.980   2244.55     1.4723     0.0290     0.0453     0.0998     1.4821     1.9665   159.6800     1.3224    -0.0579
  501   10.000   2245.54     1.4550     0.0277     0.1104     0.1000     1.4924     1.9011   160.0000     1.3324    -0.0084
  502   10.020   2246.55     1.4264     0.0280     0.1768     0.1002     1.4915     1.9571   160.3200     1.3311     0.0411
  503   10.040   2247.49     1.4027     0.0287     0.1948     0.1004     1.4851     2.0449   160.6400     1.3245     0.0723
  504   10.060   2248.50     1.3785     0.0286     0.2156     0.1006     1.4667     2.0776   160.9600     1.3058     0.0838
  505   10.080   2249.56     1.3679     0.0293     0.2372     0.1008     1.4647     2.1401   161.2800     1.3034     0.0995
  506   10.100   2250.55     1.3486     0.0295     0.2459     0.1010     1.4503     2.1868   161.6000     1.2887     0.1094
  507   10.120   2251.49     1.3360     0.0294     0.2634     0.1012     1.4432     2.2012   161.9200     1.2813     0.1203
  508   10.140   2252.50     1.3178     0.0296     0.2779     0.1014     1.4333     2.2460   162.2400     1.2710     0.1366
  509   10.160   2253.59     1.3129     0.0323     0.2915     0.1016     1.4338     2.4535   162.5600     1.2712     0.1464
  510   10.180   2254.61     1.3099     0.0330     0.2867     0.1018     1.4321     2.5157   162.8800     1.2692     0.1490
  511   10.200   2255.56     1.2923     0.0332     0.3030     0.1020     1.4145     2.5633   163.2000     1.2513     0.1510
  512   10.220   2256.50     1.2793     0.0335     0.3244     0.1022     1.4121     2.6157   163.5200     1.2486     0.1714
  513   10.240   2257.48     1.2884     0.0343     0.3472     0.1024     1.4313     2.6636   163.8400     1.2674     0.1876
  514   10.260   2258.48     1.2596     0.0353     0.3751     0.1026     1.4116     2.7872   164.1600     1.2475     0.2080
  515   10.280   2259.59     1.2101     0.0353     0.4018     0.1028     1.3764     2.9033   164.4800     1.2119     0.2418
  516   10.300   2260.60     1.1958     0.0354     0.4191     0.1030     1.3691     2.9549   164.8000     1.2043     0.2571
  517   10.320   2261.59     1.1906     0.0356     0.4360     0.1032     1.3714     2.9886   165.1200     1.2062     0.2713
  518   10.340   2262.56     1.1882     0.0367     0.4470     0.1034     1.3742     3.0863   165.4400     1.2087     0.2807
  519   10.360   2263.54     1.1859     0.0372     0.4648     0.1036     1.3785     3.1310   165.7600     1.2128     0.2927
  520   10.380   2264.51     1.1781     0.0376     0.4786     0.1038     1.3764     3.1950   166.0800     1.2104     0.3045
  521   10.400   2265.52     1.1667     0.0372     0.4938     0.1040     1.3718     3.1860   166.4000     1.2054     0.3187
  522   10.420   2266.52     1.1680     0.0373     0.5075     0.1042     1.3795     3.1954   166.7200     1.2128     0.3294
  523   10.440   2267.62     1.1676     0.0372     0.5240     0.1044     1.3861     3.1851   167.0400     1.2191     0.3410
  524   10.460   2268.60     1.1594     0.0372     0.5378     0.1046     1.3834     3.2094   167.3600     1.2160     0.3526
  525   10.480   2269.61     1.1569     0.0377     0.5484     0.1048     1.3852     3.2606   167.6800     1.2176     0.3605
  526   10.500   2270.55     1.1553     0.0385     0.5566     0.1050     1.3884     3.3303   168.0000     1.2204     0.3687
  527   10.520   2271.49     1.1561     0.0393     0.5625     0.1052     1.3921     3.4072   168.3200     1.2237     0.3731
  528   10.540   2272.48     1.1569     0.0390     0.5717     0.1054     1.3955     3.3650   168.6400     1.2269     0.3772
  529   10.560   2273.57     1.1657     0.0398     0.5800     0.1056     1.4083     3.4189   168.9600     1.2393     0.3808
  530   10.580   2274.62     1.1774     0.0402     0.5873     0.1058     1.4228     3.4148   169.2800     1.2535     0.3816
  531   10.600   2275.61     1.1733     0.0406     0.5935     0.1060     1.4219     3.4651   169.6000     1.2523     0.3881
  532   10.620   2276.62     1.1704     0.0408     0.5967     0.1062     1.4201     3.4859   169.9200     1.2502     0.3907
  533   10.640   2277.65     1.1784     0.0403     0.6008     0.1064     1.4299     3.4254   170.2400     1.2596     0.3908
  534   10.660   2278.65     1.1706     0.0406     0.6072     0.1066     1.4252     3.4660   170.5600     1.2547     0.3983
  535   10.680   2279.61     1.1692     0.0411     0.6072     0.1068     1.4242     3.5184   170.8800     1.2533     0.3992
  536   10.700   2280.55     1.1686     0.0406     0.6144     0.1070     1.4246     3.4731   171.2000     1.2534     0.4010
  537   10.720   2281.63     1.1763     0.0411     0.6291     0.1072     1.4383     3.4996   171.5200     1.2667     0.4076
  538   10.740   2282.64     1.1908     0.0410     0.6333     0.1074     1.4569     3.4469   171.8400     1.2850     0.4094
  539   10.760   2283.61     1.2022     0.0414     0.6341     0.1076     1.4682     3.4446   172.1600     1.2961     0.4057
  540   10.780   2284.58     1.2055     0.0418     0.6322     0.1078     1.4721     3.4706   172.4800     1.2996     0.4055
  541   10.800   2285.55     1.2003     0.0423     0.6297     0.1080     1.4644     3.5175   172.8000     1.2916     0.4033
  542   10.820   2286.68     1.1971     0.0420     0.6434     0.1082     1.4648     3.5059   173.1200     1.2917     0.4097
  543   10.840   2287.66     1.2091     0.0414     0.6588     0.1084     1.4841     3.4309   173.4400     1.3107     0.4168
  544   10.860   2288.68     1.2130     0.0420     0.6680     0.1086     1.4917     3.4631   173.7600     1.3180     0.4210
  545   10.880   2289.68     1.1954     0.0413     0.6851     0.1088     1.4813     3.4355   174.0800     1.3072     0.4375
  546   10.900   2290.67     1.1785     0.0404     0.6950     0.1090     1.4687     3.4244   174.4000     1.2943     0.4496
  547   10.920   2291.68     1.1623     0.0407     0.7079     0.1092     1.4581     3.4956   174.7200     1.2834     0.4637
  548   10.940   2292.65     1.1586     0.0409     0.7185     0.1094     1.4577     3.5311   175.0400     1.2827     0.4699
  549   10.960   2293.61     1.1580     0.0413     0.7467     0.1096     1.4674     3.5675   175.3600     1.2920     0.4854
  550   10.980   2294.63     1.1645     0.0409     0.7743     0.1098     1.4872     3.5112   175.6800     1.3115     0.5021
  551   11.000   2295.66     1.1854     0.0409     0.7767     0.1100     1.5118     3.4629   176.0000     1.3358     0.4994
  552   11.020   2296.72     1.1954     0.0413     0.7833     0.1102     1.5232     3.4553   176.3200     1.3469     0.4977
  553   11.040   2297.68     1.1888     0.0410     0.7843     0.1104     1.5185     3.4462   176.6400     1.3418     0.5026
  554   11.060   2298.71     1.1817     0.0409     0.7884     0.1106     1.5120     3.4631   176.9600     1.3350     0.5062
  555   11.080   2299.68     1.1921     0.0414     0.7913     0.1108     1.5236     3.4785   177.2800     1.3463     0.5039
  556   11.100   2300.63     1.1948     0.0413     0.8025     0.1110     1.5303     3.4617   177.6000     1.3527     0.5085
  557   11.120   2301.61     1.1932     0.0415     0.8028     0.1112     1.5309     3.4762   177.9200     1.3530     0.5121
  558   11.140   2302.62     1.2012     0.0405     0.8022     0.1114     1.5382     3.3729   178.2400     1.3600     0.5082
  559   11.160   2303.73     1.2115     0.0407     0.8092     0.1116     1.5495     3.3556   178.5600     1.3709     0.5056
  560   11.180   2304.71     1.1997     0.0408     0.8087     0.1118     1.5408     3.3983   178.8800     1.3619     0.5142
  561   11.200   2305.70     1.2107     0.0411     0.8049     0.1120     1.5488     3.4221   179.2000     1.3696     0.5060
  562   11.220   2306.66     1.2157     0.0428     0.8119     0.1122     1.5550     3.5674   179.5200     1.3755     0.5057
  563   11.240   2307.66     1.1949     0.0441     0.8226     0.1124     1.5395     3.6847   179.8400     1.3596     0.5207
  564   11.260   2308.76     1.1829     0.0428     0.8313     0.1126     1.5298     3.6173   180.1600     1.3496     0.5286
  565   11.280   2309.78     1.1760     0.0424     0.8400     0.1128     1.5282     3.6004   180.4800     1.3478     0.5386
  566   11.300   2310.79     1.1818     0.0420     0.8439     0.1130     1.5359     3.5622   180.8000     1.3551     0.5387
  567   11.320   2321.26     1.1775     0.0412     0.8461     0.1132     1.5325     3.4829   181.1200     1.3514     0.5418
  568   11.340   2332.27     1.1723     0.0415     0.8510     0.1134     1.5283     3.5198   181.4400     1.3469     0.5451
  569   11.360   2336.04     1.1788     0.0417     0.8735     0.1136     1.5444     3.5380   181.7600     1.3626     0.5555
  570   11.380   2337.09     1.1826     0.0406     0.8838     0.1138     1.5516     3.4327   182.0800     1.3695     0.5584
  571   11.400   2338.10     1.1771     0.0400     0.8948     0.1140     1.5525     3.3935   182.4000     1.3701     0.5692
  572   11.420   2339.05     1.1901     0.0400     0.8940     0.1142     1.5652     3.3614   182.7200     1.3825     0.5633
  573   11.440   2340.06     1.1845     0.0396     0.8976     0.1144     1.5608     3.3388   183.0400     1.3778     0.5672
  574   11.460   2341.05     1.1880     0.0394     0.8947     0.1146     1.5654     3.3177   183.3600     1.3820     0.5673
  575   11.480   2342.11     1.1963     0.0390     0.8854     0.1148     1.5679     3.2525   183.6800     1.3842     0.5562
  576   11.500   2343.11     1.1817     0.0392     0.9027     0.1150     1.5597     3.3136   184.0000     1.3757     0.5705
  577   11.520   2344.12     1.1775     0.0395     0.9079     0.1152     1.5578     3.3563   184.3200     1.3735     0.5754
  578   11.540   2345.12     1.1843     0.0395     0.9004     0.1154     1.5633     3.3367   184.6400     1.3786     0.5708
  579   11.560   2346.11     1.1792     0.0398     0.9067     0.1156     1.5588     3.3769   184.9600     1.3738     0.5736
  580   11.580   2347.07     1.1771     0.0401     0.9123     0.1158     1.5609     3.4091   185.2800     1.3757     0.5802
  581   11.600   2348.13     1.1881     0.0399     0.9113     0.1160     1.5710     3.3586   185.6000     1.3854     0.5742
  582   11.620   2349.14     1.2018     0.0400     0.9016     0.1162     1.5818     3.3300   185.9200     1.3959     0.5650
  583   11.640   2350.12     1.2056     0.0406     0.9021     0.1164     1.5846     3.3686   186.2400     1.3984     0.5622
  584   11.660   2351.10     1.2065     0.0405     0.9011     0.1166     1.5847     3.3555   186.5600     1.3982     0.5607
  585   11.680   2352.09     1.1964     0.0397     0.9016     0.1168     1.5749     3.3194   186.8800     1.3881     0.5652
  586   11.700   2353.17     1.1810     0.0389     0.9020     0.1170     1.5594     3.2863   187.2000     1.3722     0.5713
  587   11.720   2354.16     1.1771     0.0393     0.8975     0.1172     1.5558     3.3424   187.5200     1.3683     0.5734
  588   11.740   2355.19     1.2094     0.0396     0.8936     0.1174     1.5838     3.2832   187.8400     1.3960     0.5544
  589   11.760   2356.16     1.2041     0.0393     0.9062     0.1176     1.5830     3.2615   188.1600     1.3948     0.5624
  590   11.780   2357.16     1.1918     0.0398     0.9053     0.1178     1.5733     3.3366   188.4800     1.3848     0.5707
  591   11.800   2358.17     1.2040     0.0397     0.9000     0.1180     1.5831     3.3004   188.8000     1.3943     0.5627
  592   11.820   2359.19     1.2146     0.0404     0.8997     0.1182     1.5901     3.3252   189.1200     1.4010     0.5537
  593   11.840   2360.22     1.1983     0.0399     0.9061     0.1184     1.5798     3.3295   189.4400     1.3903     0.5682
  594   11.860   2361.26     1.1975     0.0405     0.8963     0.1186     1.5734     3.3782   189.7600     1.3837     0.5611
  595   11.880   2362.26     1.1727     0.0404     0.9055     0.1188     1.5526     3.4371   190.0800     1.3625     0.5767
  596   11.900   2363.27     1.1703     0.0395     0.8979     0.1190     1.5476     3.3772   190.4000     1.3572     0.5743
  597   11.920   2364.25     1.1617     0.0385     0.9148     0.1192     1.5425     3.3073   190.7200     1.3518     0.5826
  598   11.940   2365.27     1.1603     0.0380     0.9299     0.1194     1.5484     3.2768   191.0400     1.3573     0.5928
  599   11.960   2366.26     1.1614     0.0384     0.9367     0.1196     1.5517     3.3092   191.3600     1.3603     0.5953
  600   11.980   2367.26     1.1643     0.0390     0.9427     0.1198     1.5604     3.3473   191.6800     1.3687     0.6014
  601   12.000   2368.28     1.1534     0.0387     0.9321     0.1200     1.5462     3.3547   192.0000     1.3542     0.6020
  602   12.020   2369.30     1.1833     0.0380     0.9210     0.1202     1.5728     3.2132   192.3200     1.3805     0.5847
  603   12.040   2370.33     1.1912     0.0368     0.9067     0.1204     1.5711     3.0885   192.6400     1.3784     0.5688
  604   12.060   2371.34     1.1935     0.0387     0.9043     0.1206     1.5729     3.2463   192.9600     1.3800     0.5672
  605   12.080   2372.36     1.1791     0.0395     0.9002     0.1208     1.5577     3.3478   193.2800     1.3645     0.5723
  606   12.100   2373.32     1.1762     0.0392     0.9050     0.1210     1.5568     3.3279   193.6000     1.3632     0.5761
  607   12.120   2374.36     1.1878     0.0395     0.8985     0.1212     1.5678     3.3293   193.9200     1.3739     0.5704
  608   12.140   2375.33     1.2531     0.0380     0.8534     0.1214     1.6152     3.0275   194.2400     1.4210     0.5213
  609   12.160   2376.34     1.2153     0.0379     0.8917     0.1216     1.5796     3.1194   194.5600     1.3850     0.5385
  610   12.180   2377.41     1.1966     0.0386     0.9103     0.1218     1.5770     3.2276   194.8800     1.3821     0.5671
  611   12.200   2378.41     1.2035     0.0384     0.9125     0.1220     1.5876     3.1949   195.2000     1.3924     0.5693
  612   12.220   2379.40     1.2261     0.0391     0.9069     0.1222     1.6064     3.1904   195.5200     1.4109     0.5552
  613   12.240   2380.41     1.2334     0.0388     0.9042     0.1224     1.6127     3.1471   195.8400     1.4169     0.5511
  614   12.260   2381.45     1.2052     0.0381     0.8726     0.1226     1.5778     3.1615   196.1600     1.3816     0.5534
  615   12.280   2382.37     1.1860     0.0395     0.8720     0.1228     1.5473     3.3324   196.4800     1.3509     0.5460
  616   12.300   2383.41     1.1910     0.0409     0.8899     0.1230     1.5629     3.4356   196.8000     1.3661     0.5581
  617   12.320   2384.45     1.1884     0.0397     0.9044     0.1232     1.5675     3.3433   197.1200     1.3704     0.5687
  618   12.340   2385.46     1.1901     0.0388     0.9035     0.1234     1.5708     3.2571   197.4400     1.3733     0.5700
  619   12.360   2386.48     1.1889     0.0390     0.9005     0.1236     1.5673     3.2801   197.7600     1.3695     0.5676
  620   12.380   2387.50     1.1879     0.0389     0.8937     0.1238     1.5635     3.2695   198.0800     1.3654     0.5642
  621   12.400   2388.51     1.1884     0.0395     0.8977     0.1240     1.5668     3.3234   198.4000     1.3684     0.5678
  622   12.420   2389.53     1.1870     0.0386     0.9055     0.1242     1.5669     3.2544   198.7200     1.3682     0.5704
  623   12.440   2390.53     1.1733     0.0368     0.9075     0.1244     1.5562     3.1354   199.0400     1.3571     0.5799
  624   12.460   2391.49     1.1562     0.0365     0.9063     0.1246     1.5360     3.1549   199.3600     1.3366     0.5832
  625   12.480   2392.47     1.1585     0.0367     0.9170     0.1248     1.5419     3.1653   199.6800     1.3422     0.5871
  626   12.500   2393.47     1.1841     0.0362     0.9361     0.1250     1.5743     3.0580   200.0000     1.3743     0.5850
  627   12.520   2394.54     1.1541     0.0367     0.9344     0.1252     1.5481     3.1738   200.3200     1.3478     0.6032
  628   12.540   2395.59     1.1680     0.0366     0.8948     0.1254     1.5492     3.1383   200.6400     1.3485     0.5800
  629   12.560   2396.57     1.1756     0.0370     0.8923     0.1256     1.5501     3.1490   200.9600     1.3491     0.5678
  630   12.580   2397.58     1.1881     0.0374     0.9016     0.1258     1.5657     3.1513   201.2800     1.3645     0.5668
  631   12.600   2398.58     1.2091     0.0372     0.8884     0.1260     1.5836     3.0810   201.6000     1.3820     0.5541
  632   12.620   2399.56     1.2047     0.0368     0.8928     0.1262     1.5789     3.0537   201.9200     1.3769     0.5553
  633   12.640   2400.57     1.2068     0.0371     0.8914     0.1264     1.5820     3.0745   202.2400     1.3797     0.5559
  634   12.660   2401.58     1.2116     0.0387     0.9003     0.1266     1.5861     3.1891   202.5600     1.3835     0.5529
  635   12.680   2402.64     1.2244     0.0366     0.9125     0.1268     1.6068     2.9927   202.8800     1.4039     0.5581
  636   12.700   2403.67     1.2581     0.0362     0.9021     0.1270     1.6400     2.8814   203.2000     1.4368     0.5445
  637   12.720   2404.66     1.2783     0.0356     0.8755     0.1272     1.6490     2.7841   203.5200     1.4455     0.5225
  638   12.740   2405.68     1.2503     0.0349     0.8649     0.1274     1.6150     2.7932   203.8400     1.4112     0.5251
  639   12.760   2406.65     1.1775     0.0363     0.9078     0.1276     1.5491     3.0866   204.1600     1.3449     0.5631
  640   12.780   2407.67     1.1661     0.0363     0.9282     0.1278     1.5553     3.1119   204.4800     1.3508     0.5913
  641   12.800   2408.73     1.1613     0.0342     0.9245     0.1280     1.5522     2.9433   204.8000     1.3474     0.5956
  642   12.820   2409.78     1.1732     0.0360     0.9278     0.1282     1.5624     3.0692   205.1200     1.3573     0.5882
  643   12.840   2410.75     1.2146     0.0369     0.9405     0.1284     1.6061     3.0380   205.4400     1.4006     0.5739
  644   12.860   2411.74     1.2989     0.0387     0.9629     0.1286     1.7007     2.9781   205.7600     1.4949     0.5539
  645   12.880   2412.78     1.3989     0.0406     0.9428     0.1288     1.8039     2.9634   206.0800     1.5978     0.5230
  646   12.900   2413.79     1.4316     0.0414     0.8690     0.1290     1.8129     2.8905   206.4000     1.6065     0.4849
  647   12.920   2414.87     1.3647     0.0443     0.8138     0.1292     1.7073     3.2414   206.7200     1.5006     0.4576
  648   12.940   2415.86     1.3368     0.0405     0.8179     0.1294     1.6691     3.0289   207.0400     1.4621     0.4526
  649   12.960   2416.89     1.3137     0.0365     0.8966     0.1296     1.6837     2.7790   207.3600     1.4764     0.5089
  650   12.980   2417.86     1.3070     0.0399     0.9404     0.1298     1.6953     3.0504   207.6800     1.4876     0.5342
  651   13.000   2418.89     1.3647     0.0438     0.9519     0.1300     1.7642     3.2819   208.0000     1.5562     0.5279
  652   13.020   2419.90     1.6236     0.0446     0.9438     0.1302     2.0174     2.9043   208.3200     1.8091     0.4473
  653   13.040   2420.93     2.6034     0.0409     0.8647     0.1304     2.9963     1.8020   208.6400     2.7877     0.2937
  654   13.060   2421.95     4.6251     0.0388     0.3055     0.1306     4.8788     0.9428   208.9600     4.6698     0.1053
  655   13.080   2422.89     7.4272     0.0387     0.1078     0.1308     7.5028     0.5476   209.2800     7.2935     0.0071
  656   13.100   2424.14    10.4977     0.0423    -0.0223     0.1310    10.5054     0.4191   209.6000    10.2958    -0.0109
  657   13.120   2425.21    12.0496     0.0431    -0.0201     0.1312    12.0369     0.3691   209.9200    11.8270    -0.0137
  658   13.140   2426.30    13.0398     0.0448     0.0254     0.1314    13.0409     0.3518   210.2400    12.8306    -0.0101
  659   13.160   2427.35    13.8298     0.0470     0.0421     0.1316    13.8412     0.3443   210.5600    13.6307    -0.0077
  660   13.180   2428.43    14.4000     0.0502     0.0522     0.1318    14.4247     0.3517   210.8800    14.2138    -0.0051
  661   13.200   2429.47    14.5635     0.0526     0.0827     0.1320    14.5968     0.3614   211.2000    14.3856    -0.0037
  662   13.220   2430.55    14.4801     0.0512     0.1123     0.1322    14.5249     0.3545   211.5200    14.3134    -0.0018
  663   13.240   2431.53    14.2154     0.0516     0.0949     0.1324    14.2604     0.3649   211.8400    14.0485    -0.0018
  664   13.260   2432.59    13.6031     0.0520     0.0954     0.1326    13.6462     0.3752   212.1600    13.4341    -0.0022
  665   13.280   2433.65    12.8753     0.0608     0.1029     0.1328    12.9183     0.4646   212.4800    12.7058    -0.0024
  666   13.300   2434.76    12.0139     0.0807     0.1033     0.1330    12.0567     0.6540   212.8000    11.8439    -0.0026
  667   13.320   2436.09    11.4400     0.0908     0.1155     0.1332    11.4922     0.7920   213.1200    11.2790    -0.0008
  668   13.340   2445.46    11.2941     0.0653     0.0903     0.1334    11.3357     0.5710   213.4400    11.1223    -0.0031
  669   13.360   2454.83    11.1483     0.0497     0.0650     0.1336    11.1792     0.4342   213.7600    10.9655    -0.0055
  670   13.380   2459.89    10.6571     0.0387     0.0051     0.1338    10.6582     0.3637   214.0800    10.4441    -0.0126
  671   13.400   2460.93     9.4616     0.0368     0.1090     0.1340     9.4889     0.3892   214.4000     9.2745    -0.0074
  672   13.420   2461.92     8.2136     0.0433     0.1054     0.1342     8.2453     0.4943   214.7200     8.0306    -0.0073
  673   13.440   2462.86     7.2917     0.0590     0.0461     0.1344     7.3020     0.7770   215.0400     7.0870    -0.0155
  674   13.460   2463.93     6.0905     0.0806    -0.0150     0.1346     6.0845     1.2623   215.3600     5.8691    -0.0254
  675   13.480   2465.04     5.0249     0.0872     0.1267     0.1348     5.0575     1.7071   215.6800     4.8419    -0.0115
  676   13.500   2466.07     4.1522     0.0718     0.2422     0.1350     4.2403     1.7031   216.0000     4.0243     0.0188
  677   13.520   2467.03     3.5735     0.0769     0.3480     0.1352     3.7020     2.1485   216.3200     3.4856     0.0493
  678   13.540   2468.07     3.0423     0.0756     0.4214     0.1354     3.2107     2.4712   216.6400     2.9940     0.0890
  679   13.560   2469.11     2.4990     0.0729     0.5566     0.1356     2.7071     2.9344   216.9600     2.4902     0.1458
  680   13.580   2470.08     2.0128     0.0669     0.7063     0.1358     2.2906     3.1969   217.2800     2.0734     0.2545
  681   13.600   2471.02     1.8652     0.0625     0.7738     0.1360     2.1744     3.2886   217.6000     1.9568     0.3068
  682   13.620   2472.08     1.8309     0.0587     0.8810     0.1362     2.1870     3.2055   217.9200     1.9691     0.3613
  683   13.640   2473.17     1.8920     0.0590     0.9691     0.1364     2.2940     3.1275   218.2400     2.0757     0.3953
  684   13.660   2474.20     2.0370     0.0609     0.9777     0.1366     2.4451     2.9998   218.5600     2.2265     0.3751
  685   13.680   2475.22     2.1910     0.0679     0.9819     0.1368     2.6031     3.1055   218.8800     2.3843     0.3543
  686   13.700   2476.28     2.3671     0.0785     0.9704     0.1370     2.7788     3.3230   219.2000     2.5596     0.3295
  687   13.720   2477.19     2.4756     0.0847     0.8949     0.1372     2.8747     3.4625   219.5200     2.6552     0.3063
  688   13.740   2478.19     2.3915     0.0920     0.6243     0.1374     2.6739     3.7003   219.8400     2.4541     0.2171
  689   13.760   2479.23     2.3851     0.0948     0.5922     0.1376     2.6395     3.9352   220.1600     2.4193     0.1935
  690   13.780   2480.36     2.3210     0.0936     0.5759     0.1378     2.5616     4.0297   220.4800     2.3411     0.1859
  691   13.800   2481.38     2.2410     0.0972     0.5977     0.1380     2.4847     4.3413   220.8000     2.2639     0.1953
  692   13.820   2482.40     2.1677     0.0966     0.6086     0.1382     2.4211     4.4717   221.1200     2.1999     0.2114
  693   13.840   2483.43     2.1828     0.0929     0.6281     0.1384     2.4518     4.2510   221.4400     2.2304     0.2251
  694   13.860   2484.42     2.1010     0.0889     0.6314     0.1386     2.3683     4.1474   221.7600     2.1465     0.2319
  695   13.880   2485.48     2.0872     0.0823     0.6401     0.1388     2.3518     3.9435   222.0800     2.1297     0.2306
  696   13.900   2486.51     2.0038     0.0798     0.6292     0.1390     2.2743     3.9876   222.4000     2.0519     0.2461
  697   13.920   2487.50     1.9327     0.0795     0.6171     0.1392     2.1873     4.1174   222.7200     1.9646     0.2377
  698   13.940   2488.46     1.9538     0.0783     0.7693     0.1394     2.2545     4.0097   223.0400     2.0315     0.2837
  699   13.960   2489.56     2.0019     0.0775     0.8697     0.1396     2.3550     3.8819   223.3600     2.1316     0.3288
  700   13.980   2490.60     2.0601     0.0733     0.8733     0.1398     2.4350     3.5595   223.6800     2.2114     0.3404
  701   14.000   2491.62     2.1582     0.0713     0.7731     0.1400     2.4928     3.3031   224.0000     2.2688     0.2894
  702   14.020   2492.59     2.1733     0.0724     0.7931     0.1402     2.4990     3.3328   224.3200     2.2747     0.2792
  703   14.040   2493.53     2.1464     0.0732     0.8500     0.1404     2.4980     3.3842   224.6400     2.2734     0.3065
  704   14.060   2494.58     2.0971     0.0720     0.8674     0.1406     2.4594     3.4060   224.9600     2.2345     0.3231
  705   14.080   2495.69     2.0813     0.0704     0.8453     0.1408     2.4398     3.3771   225.2800     2.2145     0.3219
  706   14.100   2496.74     2.0687     0.0703     0.8419     0.1410     2.4222     3.3995   225.6000     2.1966     0.3189
  707   14.120   2497.69     2.0108     0.0693     0.8524     0.1412     2.3704     3.4113   225.9200     2.1444     0.3334
  708   14.140   2498.67     1.9872     0.0656     0.8360     0.1414     2.3369     3.2965   226.2400     2.1106     0.3274
  709   14.160   2499.80     1.9682     0.0639     0.8884     0.1416     2.3332     3.2465   226.5600     2.1066     0.3453
  710   14.180   2500.84     1.9608     0.0630     0.9269     0.1418     2.3470     3.2119   226.8800     2.1201     0.3668
  711   14.200   2501.83     1.9483     0.0604     0.9362     0.1420     2.3397     3.0820   227.2000     2.1125     0.3739
  712   14.220   2502.85     1.9402     0.0599     0.9114     0.1422     2.3303     3.0831   227.5200     2.1028     0.3741
  713   14.240   2503.89     1.9654     0.0602     0.8443     0.1424     2.3298     3.0841   227.8400     2.1019     0.3450
  714   14.260   2504.81     1.9372     0.0615     0.8359     0.1426     2.2851     3.1509   228.1600     2.0569     0.3333
  715   14.280   2505.81     1.8723     0.0639     0.8833     0.1428     2.2425     3.3466   228.4800     2.0140     0.3668
  716   14.300   2506.93     1.8153     0.0646     0.8950     0.1430     2.1904     3.5568   228.8000     1.9616     0.3823
  717   14.320   2508.00     1.7669     0.0620     0.9233     0.1432     2.1534     3.5094   229.1200     1.9242     0.4038
  718   14.340   2509.01     1.7469     0.0621     0.9361     0.1434     2.1349     3.5528   229.4400     1.9055     0.4096
  719   14.360   2510.03     1.7315     0.0595     0.9622     0.1436     2.1329     3.4283   229.7600     1.9031     0.4267
  720   14.380   2511.00     1.7027     0.0559     0.9883     0.1438     2.1130     3.2838   230.0800     1.8829     0.4425
  721   14.400   2512.01     1.6964     0.0532     1.0271     0.1440     2.1206     3.1346   230.4000     1.8902     0.4581
  722   14.420   2513.13     1.7227     0.0513     1.0445     0.1442     2.1620     2.9793   230.7200     1.9313     0.4670
  723   14.440   2514.15     1.7387     0.0525     1.0522     0.1444     2.1798     3.0324   231.0400     1.9488     0.4648
  724   14.460   2515.15     1.7403     0.0547     1.0076     0.1446     2.1737     3.1264   231.3600     1.9424     0.4569
  725   14.480   2516.11     1.7589     0.0559     0.9154     0.1448     2.1531     3.2163   231.6800     1.9214     0.4132
  726   14.500   2517.12     1.7845     0.0565     0.9310     0.1450     2.1723     3.1775   232.0000     1.9403     0.4011
  727   14.520   2518.15     1.7916     0.0607     0.9244     0.1452     2.1792     3.3867   232.3200     1.9469     0.3994
  728   14.540   2519.29     1.7865     0.0614     0.9266     0.1454     2.1742     3.4327   232.6400     1.9416     0.4006
  729   14.560   2520.33     1.7435     0.0577     0.9495     0.1456     2.1373     3.3007   232.9600     1.9043     0.4159
  730   14.580   2521.35     1.6939     0.0553     0.9833     0.1458     2.1037     3.2627   233.2800     1.8704     0.4436
  731   14.600   2522.37     1.6679     0.0552     1.0010     0.1460     2.0865     3.3114   233.6000     1.8529     0.4591
  732   14.620   2523.28     1.6942     0.0545     1.0289     0.1462     2.1199     3.2349   233.9200     1.8860     0.4600
  733   14.640   2524.31     1.6830     0.0550     1.0393     0.1464     2.1214     3.2714   234.2400     1.8871     0.4755
  734   14.660   2525.29     1.7276     0.0558     1.0240     0.1466     2.1583     3.2562   234.5600     1.9238     0.4569
  735   14.680   2526.40     1.7855     0.0583     0.9961     0.1468     2.2103     3.3073   234.8800     1.9754     0.4378
  736   14.700   2527.49     1.8331     0.0573     1.0016     0.1470     2.2509     3.1195   235.2000     2.0157     0.4205
  737   14.720   2528.53     1.7916     0.0567     1.0072     0.1472     2.2157     3.1324   235.5200     1.9802     0.4356
  738   14.740   2529.58     1.7956     0.0591     1.0016     0.1474     2.2203     3.3073   235.8400     1.9845     0.4354
  739   14.760   2530.57     1.8133     0.0614     1.0040     0.1476     2.2339     3.3845   236.1600     1.9978     0.4275
  740   14.780   2531.53     1.7742     0.0623     1.0097     0.1478     2.1966     3.4786   236.4800     1.9602     0.4377
  741   14.800   2532.56     1.7880     0.0624     0.9707     0.1480     2.2041     3.5188   236.8000     1.9673     0.4284
  742   14.820   2533.68     1.8148     0.0601     0.9159     0.1482     2.2066     3.2936   237.1200     1.9695     0.3985
  743   14.840   2534.72     1.7425     0.0595     0.8551     0.1484     2.1169     3.4219   237.4400     1.8795     0.3953
  744   14.860   2535.74     1.6373     0.0589     0.8968     0.1486     1.9979     3.5830   237.7600     1.7601     0.4034
  745   14.880   2536.75     1.5749     0.0580     0.9645     0.1488     1.9754     3.6810   238.0800     1.7373     0.4632
  746   14.900   2537.80     1.5350     0.0548     0.9792     0.1490     1.9462     3.5306   238.4000     1.7078     0.4859
  747   14.920   2538.83     1.4949     0.0526     1.0124     0.1492     1.9120     3.5207   238.7200     1.6733     0.5044
  748   14.940   2539.85     1.5029     0.0475     1.0371     0.1494     1.9323     3.1585   239.0400     1.6933     0.5156
  749   14.960   2540.77     1.5052     0.0447     1.0457     0.1496     1.9454     2.9736   239.3600     1.7061     0.5267
  750   14.980   2541.81     1.5047     0.0436     1.0636     0.1498     1.9457     2.8894   239.6800     1.7060     0.5277
  751   15.000   2542.92     1.4846     0.0437     1.0833     0.1500     1.9396     2.9442   240.0000     1.6996     0.5491
  752   15.020   2543.93     1.4926     0.0428     1.0928     0.1502     1.9473     2.8864   240.3200     1.7070     0.5462
  753   15.040   2544.94     1.4936     0.0446     1.0830     0.1504     1.9472     3.0013   240.6400     1.7066     0.5447
  754   15.060   2545.93     1.4930     0.0446     1.0795     0.1506     1.9471     2.9887   240.9600     1.7062     0.5455
  755   15.080   2546.90     1.5142     0.0478     1.0666     0.1508     1.9670     3.1711   241.2800     1.7257     0.5373
  756   15.100   2548.01     1.5759     0.0517     1.0009     0.1510     2.0078     3.3355   241.6000     1.7662     0.4967
  757   15.120   2549.08     1.5950     0.0546     0.8775     0.1512     1.9665     3.4244   241.9200     1.7246     0.4253
  758   15.140   2550.10     1.5518     0.0564     0.9118     0.1514     1.9316     3.6167   242.2400     1.6894     0.4457
  759   15.160   2551.13     1.5430     0.0578     0.8959     0.1516     1.9202     3.7756   242.5600     1.6776     0.4450
  760   15.180   2552.18     1.5359     0.0590     0.9016     0.1518     1.9102     3.8747   242.8800     1.6673     0.4434
  761   15.200   2553.22     1.5065     0.0592     0.9600     0.1520     1.9012     3.9233   243.2000     1.6580     0.4751
  762   15.220   2554.22     1.5039     0.0557     0.9782     0.1522     1.9141     3.7050   243.5200     1.6706     0.4935
  763   15.240   2555.23     1.4855     0.0527     0.9581     0.1524     1.8895     3.5492   243.8400     1.6456     0.4918
  764   15.260   2560.26     1.4472     0.0508     0.9541     0.1526     1.8487     3.4619   244.1600     1.6045     0.5011
  765   15.280   2571.98     1.3907     0.0498     0.9489     0.1528     1.7900     3.3895   244.4800     1.5455     0.5172
  766   15.300   2583.70     1.3342     0.0473     0.9607     0.1530     1.7313     3.4764   244.8000     1.4865     0.5333
  767   15.320   2586.28     1.2882     0.0451     0.9926     0.1532     1.7018     3.4933   245.1200     1.4567     0.5709
  768   15.340   2587.30     1.2748     0.0412     1.0170     0.1534     1.6990     3.2344   245.4400     1.4535     0.5892
  769   15.360   2588.31     1.2656     0.0386     1.0469     0.1536     1.7006     3.0481   245.7600     1.4548     0.6063
  770   15.380   2589.33     1.2354     0.0372     1.0667     0.1538     1.6824     3.0126   246.0800     1.4363     0.6339
  771   15.400   2590.32     1.2347     0.0378     1.0773     0.1540     1.6852     3.0577   246.4000     1.4388     0.6385
  772   15.420   2591.35     1.2093     0.0383     1.0919     0.1542     1.6670     3.1694   246.7200     1.4203     0.6588
  773   15.440   2592.37     1.2355     0.0379     1.0935     0.1544     1.6936     3.0699   247.0400     1.4466     0.6473
  774   15.460   2593.46     1.2529     0.0390     1.0887     0.1546     1.7101     3.1248   247.3600     1.4627     0.6386
  775   15.480   2594.43     1.2802     0.0388     1.0855     0.1548     1.7365     3.0346   247.6800     1.4888     0.6256
  776   15.500   2595.45     1.2736     0.0398     1.0838     0.1550     1.7288     3.1242   248.0000     1.4808     0.6273
  777   15.520   2596.45     1.2632     0.0403     1.0847     0.1552     1.7194     3.1771   248.3200     1.4711     0.6330
  778   15.540   2597.46     1.2651     0.0404     1.0762     0.1554     1.7190     3.1928   248.6400     1.4704     0.6293
  779   15.560   2598.48     1.2656     0.0399     1.0738     0.1556     1.7160     3.1607   248.9600     1.4670     0.6249
  780   15.580   2599.56     1.2817     0.0388     1.0657     0.1558     1.7306     3.0264   249.2800     1.4813     0.6164
  781   15.600   2600.57     1.2985     0.0388     1.0585     0.1560     1.7459     2.9903   249.6000     1.4963     0.6077
  782   15.620   2601.61     1.3037     0.0391     1.0493     0.1562     1.7440     2.9976   249.9200     1.4941     0.5971
  783   15.640   2602.62     1.2938     0.0391     1.0497     0.1564     1.7365     3.0076   250.2400     1.4863     0.6040
  784   15.660   2603.60     1.2902     0.0389     1.0392     0.1566     1.7282     3.0114   250.5600     1.4776     0.5998
  785   15.680   2604.63     1.2988     0.0398     1.0359     0.1568     1.7332     3.0782   250.8800     1.4824     0.5920
  786   15.700   2605.65     1.3179     0.0400     1.0453     0.1570     1.7559     3.0450   251.2000     1.5047     0.5888
  787   15.720   2606.74     1.3287     0.0406     1.0514     0.1572     1.7702     3.0552   251.5200     1.5187     0.5887
  788   15.740   2607.81     1.3232     0.0410     1.0581     0.1574     1.7670     3.0941   251.8400     1.5151     0.5934
  789   15.760   2608.77     1.3183     0.0402     1.0550     0.1576     1.7625     3.0462   252.1600     1.5104     0.5959
  790   15.780   2609.81     1.3199     0.0397     1.0537     0.1578     1.7631     3.0060   252.4800     1.5106     0.5941
  791   15.800   2610.78     1.3183     0.0400     1.0412     0.1580     1.7578     3.0478   252.8000     1.5050     0.5904
  792   15.820   2611.80     1.3145     0.0397     1.0478     0.1582     1.7532     3.0021   253.1200     1.5000     0.5908
  793   15.840   2612.81     1.3108     0.0392     1.0524     0.1584     1.7527     2.9918   253.4400     1.4993     0.5961
  794   15.860   2613.85     1.3084     0.0402     1.0395     0.1586     1.7492     3.0736   253.7600     1.4955     0.5957
  795   15.880   2614.96     1.3276     0.0398     1.0357     0.1588     1.7614     3.0006   254.0800     1.5074     0.5799
  796   15.900   2615.96     1.3154     0.0394     1.0492     0.1590     1.7544     2.9979   254.4000     1.5000     0.5909
  797   15.920   2616.99     1.2909     0.0390     1.0445     0.1592     1.7288     3.0201   254.7200     1.4741     0.5994
  798   15.940   2617.99     1.2923     0.0375     1.0300     0.1594     1.7239     2.9001   255.0400     1.4689     0.5910
  799   15.960   2618.94     1.2879     0.0386     1.0509     0.1596     1.7262     2.9913   255.3600     1.4708     0.6010
  800   15.980   2620.01     1.2983     0.0390     1.0582     0.1598     1.7417     3.0230   255.6800     1.4860     0.6029
  801   16.000   2621.06     1.3123     0.0385     1.0647     0.1600     1.7601     2.9336   256.0000     1.5041     0.6025
  802   16.020   2622.12     1.3108     0.0376     1.0652     0.1602     1.7573     2.8708   256.3200     1.5009     0.6015
  803   16.040   2623.12     1.3032     0.0381     1.0575     0.1604     1.7496     2.9241   256.6400     1.4930     0.6045
  804   16.060   2624.15     1.3053     0.0392     1.0650     0.1606     1.7516     2.9921   256.9600     1.4946     0.6035
  805   16.080   2625.16     1.3079     0.0386     1.0601     0.1608     1.7535     2.9488   257.2800     1.4962     0.6017
  806   16.100   2626.18     1.3138     0.0384     1.0678     0.1610     1.7606     2.9256   257.6000     1.5030     0.6006
  807   16.120   2627.18     1.3328     0.0376     1.0683     0.1612     1.7822     2.8441   257.9200     1.5243     0.5962
  808   16.140   2628.22     1.3320     0.0379     1.0621     0.1614     1.7773     2.8409   258.2400     1.5190     0.5917
  809   16.160   2629.29     1.3091     0.0374     1.0631     0.1616     1.7591     2.8481   258.5600     1.5005     0.6063
  810   16.180   2630.30     1.3077     0.0382     1.0700     0.1618     1.7550     2.9240   258.8800     1.4962     0.6037
  811   16.200   2631.34     1.3120     0.0378     1.0707     0.1620     1.7635     2.8892   259.2000     1.5043     0.6070
  812   16.220   2632.36     1.3303     0.0384     1.0589     0.1622     1.7781     2.9072   259.5200     1.5186     0.5953
  813   16.240   2633.37     1.3312     0.0381     1.0714     0.1624     1.7794     2.8530   259.8400     1.5195     0.5953
  814   16.260   2634.43     1.3449     0.0379     1.0532     0.1626     1.7918     2.8339   260.1600     1.5316     0.5885
  815   16.280   2635.47     1.3479     0.0385     1.0419     0.1628     1.7855     2.8526   260.4800     1.5250     0.5764
  816   16.300   2636.49     1.3384     0.0388     1.0449     0.1630     1.7785     2.8944   260.8000     1.5177     0.5829
  817   16.320   2637.53     1.3469     0.0405     1.0626     0.1632     1.7901     3.0053   261.1200     1.5289     0.5834
  818   16.340   2638.55     1.3553     0.0399     1.0820     0.1634     1.8066     2.9494   261.4400     1.5452     0.5896
  819   16.360   2639.56     1.3598     0.0392     1.0803     0.1636     1.8153     2.8894   261.7600     1.5535     0.5928
  820   16.380   2640.56     1.3629     0.0407     1.0670     0.1638     1.8137     2.9844   262.0800     1.5516     0.5861
  821   16.400   2641.60     1.3710     0.0406     1.0568     0.1640     1.8149     2.9683   262.4000     1.5525     0.5752
  822   16.420   2642.67     1.3601     0.0404     1.0597     0.1642     1.8057     2.9612   262.7200     1.5429     0.5811
  823   16.440   2643.71     1.3660     0.0401     1.0479     0.1644     1.8081     2.9364   263.0400     1.5451     0.5749
  824   16.460   2644.73     1.3903     0.0396     1.0330     0.1646     1.8257     2.8498   263.3600     1.5624     0.5583
  825   16.480   2645.75     1.3710     0.0394     1.0404     0.1648     1.8066     2.8753   263.6800     1.5430     0.5655
  826   16.500   2646.77     1.3624     0.0394     1.0384     0.1650     1.7971     2.9130   264.0000     1.5331     0.5675
  827   16.520   2647.83     1.3584     0.0392     1.0471     0.1652     1.7954     2.8826   264.3200     1.5310     0.5716
  828   16.540   2648.79     1.3435     0.0379     1.0513     0.1654     1.7842     2.8136   264.6400     1.5196     0.5817
  829   16.560   2649.84     1.3575     0.0373     1.0506     0.1656     1.8000     2.7696   264.9600     1.5350     0.5785
  830   16.580   2650.84     1.3802     0.0387     1.0677     0.1658     1.8253     2.8129   265.2800     1.5600     0.5730
  831   16.600   2651.94     1.3711     0.0399     1.0680     0.1660     1.8226     2.8957   265.6000     1.5570     0.5838
  832   16.620   2652.97     1.3625     0.0402     1.0702     0.1662     1.8104     2.9399   265.9200     1.5445     0.5829
  833   16.640   2654.02     1.3455     0.0397     1.0631     0.1664     1.7928     2.9540   266.2400     1.5266     0.5886
  834   16.660   2655.04     1.3548     0.0388     1.0729     0.1666     1.8040     2.8699   266.5600     1.5375     0.5873
  835   16.680   2656.09     1.3540     0.0375     1.0823     0.1668     1.8062     2.7506   266.8800     1.5393     0.5911
  836   16.700   2657.11     1.3484     0.0371     1.0896     0.1670     1.8071     2.7518   267.2000     1.5399     0.6008
  837   16.720   2658.11     1.3670     0.0392     1.0893     0.1672     1.8215     2.8947   267.5200     1.5540     0.5888
  838   16.740   2659.12     1.3918     0.0383     1.1100     0.1674     1.8575     2.7620   267.8400     1.5896     0.5921
  839   16.760   2660.19     1.4052     0.0379     1.0612     0.1676     1.8622     2.7057   268.1600     1.5940     0.5775
  840   16.780   2661.26     1.3802     0.0377     1.0505     0.1678     1.8202     2.7335   268.4800     1.5517     0.5671
  841   16.800   2662.29     1.3990     0.0389     1.0657     0.1680     1.8430     2.7874   268.8000     1.5742     0.5647
  842   16.820   2663.32     1.3749     0.0395     1.0934     0.1682     1.8314     2.8705   269.1200     1.5623     0.5880
  843   16.840   2664.31     1.3798     0.0365     1.0684     0.1684     1.8317     2.6684   269.4400     1.5623     0.5809
  844   16.860   2665.30     1.3925     0.0363     1.0610     0.1686     1.8393     2.6194   269.7600     1.5696     0.5705
  845   16.880   2666.37     1.4115     0.0374     1.0670     0.1688     1.8549     2.6798   270.0800     1.5849     0.5597
  846   16.900   2667.39     1.3625     0.0375     1.0959     0.1690     1.8214     2.7294   270.4000     1.5510     0.5955
  847   16.920   2668.46     1.3580     0.0384     1.1102     0.1692     1.8247     2.8259   270.7200     1.5540     0.6062
  848   16.940   2669.49     1.3761     0.0386     1.1014     0.1694     1.8383     2.8056   271.0400     1.5673     0.5941
  849   16.960   2670.50     1.3843     0.0402     1.1093     0.1696     1.8496     2.8907   271.3600     1.5782     0.5945
  850   16.980   2671.54     1.3668     0.0394     1.1225     0.1698     1.8373     2.8804   271.6800     1.5656     0.6071
  851   17.000   2672.57     1.3651     0.0369     1.1410     0.1700     1.8406     2.6943   272.0000     1.5686     0.6133
  852   17.020   2673.56     1.3477     0.0392     1.1718     0.1702     1.8358     2.9025   272.3200     1.5635     0.6345
  853   17.040   2674.57     1.3840     0.0426     1.1949     0.1704     1.8801     3.1154   272.6400     1.6074     0.6288
  854   17.060   2675.66     1.5469     0.0480     1.2486     0.1706     2.0630     3.3013   272.9600     1.7901     0.5919
  855   17.080   2676.74     2.0818     0.0541     1.3070     0.1708     2.6278     2.8299   273.2800     2.3545     0.4808
  856   17.100   2677.76     2.5161     0.0594     1.1862     0.1710     3.0415     2.4417   273.6000     2.7679     0.3903
  857   17.120   2678.77     2.3804     0.0663     1.0924     0.1712     2.8613     2.7053   273.9200     2.5874     0.3765
  858   17.140   2679.83     2.1350     0.0753     1.0003     0.1714     2.5680     3.4071   274.2400     2.2937     0.3747
  859   17.160   2680.85     2.1213     0.0904     0.9674     0.1716     2.5285     4.2985   274.5600     2.2539     0.3540
  860   17.180   2688.60     2.3523     0.0936     0.7352     0.1718     2.7011     4.2129   274.8800     2.4262     0.2778
  861   17.200   2707.19     2.7093     0.0799     0.4593     0.1720     2.9422     3.5960   275.2000     2.6670     0.1491
  862   17.220   2714.54     2.7011     0.0792     0.4992     0.1722     2.8993     2.8742   275.5200     2.6238     0.1144
  863   17.240   2715.56     2.6999     0.0836     0.6268     0.1724     2.9545     3.1234   275.8400     2.6786     0.1619
  864   17.260   2716.54     2.8174     0.0780     0.7143     0.1726     3.1063     2.8213   276.1600     2.8302     0.1820
  865   17.280   2717.60     3.4019     0.0793     0.6258     0.1728     3.6888     2.5220   276.4800     3.4123     0.1508
  866   17.300   2718.80     4.7306     0.0642     0.4057     0.1730     4.9180     1.5085   276.8000     4.6412     0.0592
  867   17.320   2719.82     5.9412     0.0495     0.2996     0.1732     6.0763     0.8881   277.1200     5.7992     0.0257
  868   17.340   2720.92     7.0780     0.0382     0.2021     0.1734     7.1889     0.5649   277.4400     6.9114     0.0132
  869   17.360   2721.91     8.7648     0.0403     0.1777     0.1736     8.8401     0.4895   277.7600     8.5624     0.0007
  870   17.380   2722.92    10.5118     0.0467    -0.0288     0.1738    10.5473     0.4640   278.0800    10.2692    -0.0086
  871   17.400   2723.97    11.8851     0.0601    -0.1201     0.1740    11.8513     0.5170   278.4000    11.5729    -0.0220
  872   17.420   2725.08    12.5652     0.0680    -0.1985     0.1742    12.4903     0.5498   278.7200    12.2116    -0.0289
  873   17.440   2726.25    12.8609     0.0733    -0.2114     0.1744    12.7724     0.5706   279.0400    12.4934    -0.0308
  874   17.460   2727.25    13.0684     0.0817    -0.2063     0.1746    12.9815     0.6261   279.3600    12.7022    -0.0300
  875   17.480   2728.26    13.0988     0.0912    -0.2063     0.1748    13.0119     0.6965   279.6800    12.7322    -0.0300
  876   17.500   2729.30    12.8467     0.1056    -0.1950     0.1750    12.7625     0.8162   280.0000    12.4825    -0.0301
  877   17.520   2730.27    12.4236     0.1108    -0.1742     0.1752    12.3475     0.8904   280.3200    12.0672    -0.0295
  878   17.540   2731.26    12.1028     0.1095    -0.1442     0.1754    12.0375     0.9038   280.6400    11.7569    -0.0281
  879   17.560   2732.22    11.9568     0.1060    -0.1222     0.1756    11.9023     0.8859   280.9600    11.6213    -0.0263
  880   17.580   2733.14    11.9425     0.1043    -0.0937     0.1758    11.8988     0.8734   281.2800    11.6175    -0.0241
  881   17.600   2734.17    12.1479     0.1018    -0.0639     0.1760    12.1171     0.8388   281.6000    11.8355    -0.0211
  882   17.620   2735.27    12.5196     0.1009    -0.0118     0.1762    12.5058     0.8108   281.9200    12.2239    -0.0171
  883   17.640   2736.29    12.7246     0.0990     0.0147     0.1764    12.7250     0.7820   282.2400    12.4428    -0.0141
  884   17.660   2737.29    13.1242     0.0954     0.0559     0.1766    13.1439     0.7367   282.5600    12.8614    -0.0101
  885   17.680   2738.26    13.6913     0.0936     0.0498     0.1768    13.7152     0.6939   282.8800    13.4323    -0.0089
  886   17.700   2739.25    14.0840     0.0975     0.0285     0.1770    14.0979     0.6955   283.2000    13.8147    -0.0104
  887   17.720   2740.19    14.1548     0.1080     0.0388     0.1772    14.1684     0.7621   283.5200    13.8848    -0.0104
  888   17.740   2741.10    14.0844     0.1128     0.0399     0.1774    14.1030     0.7990   283.8400    13.8191    -0.0096
  889   17.760   2742.05    13.8007     0.1129     0.0121     0.1776    13.8097     0.8130   284.1600    13.5256    -0.0115
  890   17.780   2743.03    13.5532     0.1171     0.0277     0.1778    13.5592     0.8619   284.4800    13.2748    -0.0123
  891   17.800   2744.10    13.4701     0.1273     0.0677     0.1780    13.4955     0.9435   284.8000    13.2107    -0.0089
  892   17.820   2745.06    13.4794     0.1329     0.0626     0.1782    13.5037     0.9862   285.1200    13.2186    -0.0091
  893   17.840   2746.02    13.6721     0.1279     0.0617     0.1784    13.7000     0.9405   285.4400    13.4145    -0.0084
  894   17.860   2746.99    14.0466     0.1184     0.0602     0.1786    14.0681     0.8478   285.7600    13.7823    -0.0092
  895   17.880   2747.88    14.6381     0.1175     0.0789     0.1788    14.6710     0.8079   286.0800    14.3849    -0.0070
  896   17.900   2748.88    15.6132     0.1238     0.0479     0.1790    15.6442     0.7973   286.4000    15.3578    -0.0068
  897   17.920   2749.83    16.7534     0.1318    -0.0222     0.1792    16.7526     0.7962   286.7200    16.4658    -0.0110
  898   17.940   2750.83    17.7649     0.1473    -0.0544     0.1794    17.7452     0.8393   287.0400    17.4581    -0.0130
  899   17.960   2751.91    18.8157     0.1642    -0.0359     0.1796    18.7980     0.8883   287.3600    18.5106    -0.0120
  900   17.980   2752.88    19.7413     0.1835    -0.0011     0.1798    19.7363     0.9439   287.6800    19.4486    -0.0099
  901   18.000   2753.87    20.7332     0.1984     0.0510     0.1800    20.7480     0.9745   288.0000    20.4600    -0.0071
  902   18.020   2754.79    21.8221     0.2110     0.1007     0.1802    21.8599     0.9798   288.3200    21.5716    -0.0042
  903   18.040   2755.74    22.6734     0.2191     0.1318     0.1804    22.7253     0.9724   288.6400    22.4367    -0.0025
  904   18.060   2756.71    22.8468     0.2178     0.1344     0.1806    22.9029     0.9518   288.9600    22.6139    -0.0021
  905   18.080   2757.69    22.1356     0.2108     0.1416     0.1808    22.1946     0.9409   289.2800    21.9053    -0.0018
  906   18.100   2758.62    20.8825     0.2013     0.1313     0.1810    20.9388     0.9415   289.6000    20.6492    -0.0023
  907   18.120   2759.66    19.3035     0.1901     0.1325     0.1812    19.3616     0.9535   289.9200    19.0717    -0.0022
  908   18.140   2760.67    17.8954     0.1842     0.1164     0.1814    17.9447     0.9985   290.2400    17.6545    -0.0036
  909   18.160   2761.60    16.5754     0.1817     0.1181     0.1816    16.6256     1.0641   290.5600    16.3351    -0.0038
  910   18.180   2762.56    14.9319     0.1852     0.1084     0.1818    14.9780     1.1864   290.8800    14.6871    -0.0049
  911   18.200   2763.41    13.2450     0.2036     0.1286     0.1820    13.2983     1.4871   291.2000    13.0071    -0.0042
  912   18.220   2764.37    11.2802     0.2070     0.1583     0.1822    11.3441     1.7934   291.5200    11.0526    -0.0027
  913   18.240   2765.36     9.0866     0.2102     0.1726     0.1824     9.1564     2.2919   291.8400     8.8645    -0.0018
  914   18.260   2766.31     7.1699     0.2083     0.2247     0.1826     7.2568     2.6229   292.1600     6.9646     0.0035
  915   18.280   2767.33     5.4244     0.2047     0.2903     0.1828     5.5363     3.4407   292.4800     5.2438     0.0160
  916   18.300   2768.26     4.3656     0.1945     0.3292     0.1830     4.5119     4.0856   292.8000     4.2191     0.0394
  917   18.320   2769.35     4.1491     0.1724     0.3823     0.1832     4.2954     4.1731   293.1200     4.0023     0.0413
  918   18.340   2770.50     4.0071     0.1307     0.4629     0.1834     4.1829     3.2578   293.4400     3.8895     0.0605
  919   18.360   2771.54     3.7820     0.1029     0.4545     0.1836     3.9729     2.7034   293.7600     3.6791     0.0736
  920   18.380   2772.56     3.5972     0.0720     0.5752     0.1838     3.8283     1.9769   294.0800     3.5342     0.1037
  921   18.400   2773.54     3.3298     0.0617     0.5674     0.1840     3.5844     1.7791   294.4000     3.2900     0.1281
  922   18.420   2774.50     2.9360     0.0535     0.5902     0.1842     3.1683     1.7550   294.7200     2.8736     0.1287
  923   18.440   2775.57     2.4644     0.0471     0.7567     0.1844     2.7670     1.8348   295.0400     2.4720     0.2174
  924   18.460   2776.61     2.3271     0.0397     0.8185     0.1846     2.6635     1.7092   295.3600     2.3681     0.2602
  925   18.480   2777.70     2.2829     0.0410     0.8852     0.1848     2.6441     1.7615   295.6800     2.3484     0.2876
  926   18.500   2778.80     2.2399     0.0472     0.9376     0.1850     2.6295     2.1106   296.0000     2.3335     0.3182
  927   18.520   2779.82     2.6086     0.0455     0.8738     0.1852     2.9851     1.7428   296.3200     2.6888     0.2650
  928   18.540   2780.85     3.0990     0.0478     0.7288     0.1854     3.4288     1.5406   296.6400     3.1322     0.1916
  929   18.560   2781.87     3.1787     0.0469     0.6974     0.1856     3.4651     1.4841   296.9600     3.1681     0.1567
  930   18.580   2782.90     2.6881     0.0473     0.8076     0.1858     3.0098     1.6122   297.2800     2.7125     0.2145
  931   18.600   2783.82     2.2686     0.0510     0.9037     0.1860     2.6309     2.1587   297.6000     2.3333     0.2900
  932   18.620   2784.89     2.1573     0.0524     0.9748     0.1862     2.5531     2.4432   297.9200     2.2552     0.3353
  933   18.640   2785.97     2.1182     0.0460     1.0363     0.1864     2.5469     2.1589   298.2400     2.2487     0.3711
  934   18.660   2787.08     2.1234     0.0337     1.0702     0.1866     2.5753     1.6057   298.5600     2.2767     0.3908
  935   18.680   2788.09     2.2534     0.0176     1.0961     0.1868     2.7066     0.7875   298.8800     2.4077     0.3706
  936   18.700   2789.16     2.3449     0.0116     1.1281     0.1870     2.8150     0.5016   299.2000     2.5158     0.3706
  937   18.720   2790.20     2.5635     0.0422     1.2271     0.1872     3.0628     1.7291   299.5200     2.7632     0.3626
  938   18.740   2791.18     4.1291     0.1308     1.3304     0.1874     4.6744     3.4783   299.8400     4.3746     0.2564
  939   18.760   2792.26     6.6192     0.1813     1.0612     0.1876     7.1408     2.9934   300.1600     6.8406     0.1553
  940   18.780   2793.44     9.4851     0.1884     0.2498     0.1878     9.6335     2.1514   300.4800     9.3331     0.0179
  941   18.800   2794.46     9.8118     0.1644     0.1945     0.1880     9.8923     1.6652   300.8000     9.5915     0.0004
  942   18.820   2795.51     8.7438     0.1739     0.1919     0.1882     8.8175     1.8879   301.1200     8.5164    -0.0015
  943   18.840   2796.58     8.2511     0.1930     0.3240     0.1884     8.3785     2.3012   301.4400     8.0771     0.0142
  944   18.860   2797.61    10.2019     0.1923     0.3687     0.1886    10.3403     1.8825   301.7600    10.0385     0.0140
  945   18.880   2798.64    12.7356     0.2020     0.2488     0.1888    12.8804     1.5943   302.0800    12.5784     0.0128
  946   18.900   2799.63    15.6674     0.2043     0.1215     0.1890    15.7420     1.3190   302.4000    15.4396    -0.0007
  947   18.920   2800.67    17.1251     0.2083     0.0027     0.1892    17.1282     1.2278   302.7200    16.8254    -0.0108
  948   18.940   2801.73    17.5594     0.2186    -0.0067     0.1894    17.5511     1.2483   303.0400    17.2480    -0.0121
  949   18.960   2802.72    17.7964     0.2366     0.0508     0.1896    17.8137     1.3361   303.3600    17.5104    -0.0085
  950   18.980   2803.72    18.6702     0.2415     0.1094     0.1898    18.7053     1.3188   303.6800    18.4017    -0.0058
  951   19.000   2804.72    19.5523     0.2579     0.0660     0.1900    19.5945     1.3241   304.0000    19.2905    -0.0046
  952   19.020   2805.64    19.1776     0.2654    -0.0184     0.1902    19.1762     1.3686   304.3200    18.8719    -0.0103
  953   19.040   2806.57    18.6872     0.2631    -0.0897     0.1904    18.6705     1.3977   304.6400    18.3659    -0.0126
  954   19.060   2807.51    18.1032     0.2483    -0.1396     0.1906    18.0486     1.3699   304.9600    17.7436    -0.0181
  955   19.080   2808.58    18.2008     0.2368    -0.1897     0.1908    18.1291     1.2995   305.2800    17.8238    -0.0203
  956   19.100   2809.60    18.5339     0.2385    -0.1898     0.1910    18.4509     1.2892   305.6000    18.1453    -0.0214
  957   19.120   2810.57    19.0820     0.2405    -0.0895     0.1912    19.0251     1.2696   305.9200    18.7191    -0.0175
  958   19.140   2811.51    20.6513     0.2805     0.0868     0.1914    20.6642     1.3658   306.2400    20.3580    -0.0079
  959   19.160   2812.49    21.6183     0.3577    -0.0513     0.1916    21.6336     1.6558   306.5600    21.3270    -0.0073
  960   19.180   2816.40    19.7432     0.4635    -0.1061     0.1918    19.6932     2.8213   306.8800    19.3863    -0.0161
  961   19.200   2830.70    16.9025     0.4393    -0.0681     0.1920    16.8684     2.6741   307.2000    16.5612    -0.0166
  962   19.220   2841.11    14.0131     0.3756    -0.0652     0.1922    13.9874     2.5229   307.5200    13.6799    -0.0186
  963   19.240   2842.04    11.0937     0.3587    -0.0181     0.1924    11.0751     3.1364   307.8400    10.7672    -0.0220
  964   19.260   2843.05     9.1551     0.3541     0.2407     0.1926     9.2125     3.7854   308.1600     8.9044    -0.0060
  965   19.280   2844.12     9.4474     0.2969     0.2319     0.1928     9.5466     3.3225   308.4800     9.2381     0.0048
  966   19.300   2845.19    15.6251     0.2600     0.2929     0.1930    15.7343     1.8231   308.8000    15.4255     0.0043
  967   19.320   2846.39    27.7534               -0.1695     0.1932    27.9030              309.1200    27.5938     0.0060
  968   19.340   2849.54    32.8093               -0.1611     0.1934    32.7426              309.4400    32.4331    -0.0109
  969   19.360   2850.51    32.2165               -0.1155     0.1936    32.1626              309.7600    31.8528    -0.0101
  970   19.380   2851.43    30.3285               -0.0819     0.1938    30.2885              310.0800    29.9784    -0.0096
  971   19.400   2852.26    28.9836               -0.0489     0.1940    28.9579              310.4000    28.6475    -0.0089
  972   19.414   2852.84    28.2237                           0.1941    28.2090              310.6284    27.8984    -0.0082
 
 
