

 Program UNIPLOT                         version 05.36.02
 _______________
 (c) Fugro Netherlands Marine, Nootdorp, The Netherlands


 ASCII representation of data plotted on a graph.

 This ASCII file presents data interpolated to values per fixed depth interval.
 The data are corrected for the depth-offset differences between the various 
 transducers in the penetrometer.

 The records at the start of penetration may include no values or anomalous
 values where a depth offset implies incomplete penetration of a particular
 sensor into the ground.

 The records at the end of penetration may include no values for data channels
 where the transducer did not reach this depth.

 The reference level for test values is (1) the ground surface for onshore tests and (2) the seafloor for nearshore and offshore tests.

 UNICAS data file          : CPT-1015.000                            
 Output using command file : PlotASCII.cmd

 ASCII file created at : date          :28-May-2022
                         time          :12:02:57
 Project number                        :20024805                                                                                            
 Date of testing                       :25-May-2022                                                                                         
 Location                              :Hong Kong Offshore Wind Farm Project                                                                
 Test name                             :CPT-1015
 Penetrometer                          :F7.5CKE2HAW2/B/3285
 Serial no                             :1701-3285

 Table description:
 Column ID                             :Parameter name
 ___________________________________________________________________________________
 Rec                                   :Record ID, Record ID [-]
 Depth                                 :Depth, Depth [m]
 Time                                  :Time, Time [s]
 Cone                                  :Cone Resistance, Cone Resistance [MPa]
 Friction                              :Sleeve Friction, Sleeve Friction [MPa]
 Pore 2                                :Porewater Pressure, Porewater Pressure at Shoulder [MPa]
 HydroPress                            :Hydrostatic Pressure, Hydrostatic Pressure [MPa]
 qt                                    :Total Cone Resistance, Total Cone Resistance [MPa]
 Fric_ratio                            :Friction Ratio, Friction Ratio [%]
 SigmaVert                             :Vertical stress, Vertical stress [kPa] as specified in ground model
 Qnet                                  :Net Cone Resistance, Net Cone Resistance [MPa], unit weight as specified in ground model
 Bq                                    :Porewater Pressure Ratio, Porewater Pressure Ratio [-], unit weight as specified in ground model


 Data table:
  Rec    Depth      Time       Cone   Friction     Pore 2 HydroPress         qt Fric_ratio  SigmaVert       Qnet         Bq
   No        m         s        MPa        MPa        MPa        MPa        MPa          %        kPa        MPa          -
    1    0.000   1550.84     0.0000                           0.0000     0.0000                0.0000     0.0000           
    2    0.020   1592.09     0.0007                           0.0002     0.0007                0.3200     0.0003           
    3    0.040   1629.00     0.0013                0.0001     0.0004     0.0013                0.6400     0.0007    -0.5562
    4    0.060   1630.05     0.0018                0.0005     0.0006     0.0019                0.9600     0.0009     0.2198
    5    0.080   1631.05     0.0064     0.0002     0.0009     0.0008     0.0067     3.9559     1.2800     0.0054    -0.0048
    6    0.100   1632.07     0.0058     0.0003     0.0013     0.0010     0.0063     5.5199     1.6000     0.0047     0.0327
    7    0.120   1633.09     0.0057     0.0003     0.0014     0.0012     0.0062     5.6528     1.9200     0.0043     0.0204
    8    0.140   1635.71     0.0073     0.0002     0.0017     0.0014     0.0080     3.4500     2.2400     0.0057     0.0273
    9    0.160   1639.11     0.0090     0.0002     0.0020     0.0016     0.0098     2.6769     2.5600     0.0072     0.0375
   10    0.180   1642.41     0.0103     0.0005     0.0019     0.0018     0.0112     4.3413     2.8800     0.0083     0.0420
   11    0.200   1643.42     0.0081     0.0004     0.0018     0.0020     0.0089     6.0955     3.2000     0.0057    -0.0551
   12    0.220   1644.44     0.0103     0.0005     0.0013     0.0022     0.0110     4.3081     3.5200     0.0074    -0.0866
   13    0.240   1645.46     0.0094     0.0004     0.0001     0.0024     0.0096     4.6086     3.8400     0.0058    -0.3164
   14    0.260   1646.46     0.0109     0.0008     0.0003     0.0026     0.0110     7.5855     4.1600     0.0068    -0.3641
   15    0.280   1647.50     0.0132     0.0009     0.0007     0.0028     0.0135     6.6284     4.4800     0.0090    -0.2419
   16    0.300   1648.52     0.0139     0.0011     0.0000     0.0030     0.0140     7.2940     4.8000     0.0092    -0.3186
   17    0.320   1649.56     0.0130     0.0010     0.0003     0.0032     0.0131     8.0948     5.1200     0.0080    -0.3647
   18    0.340   1650.56     0.0141     0.0011     0.0019     0.0034     0.0146     9.0913     5.4400     0.0092    -0.2842
   19    0.360   1651.57     0.0155     0.0011     0.0029     0.0036     0.0165     7.4543     5.7600     0.0108    -0.1019
   20    0.380   1652.57     0.0149     0.0012     0.0020     0.0038     0.0158     8.6338     6.0800     0.0098    -0.1717
   21    0.400   1653.60     0.0158     0.0012     0.0004     0.0040     0.0163     7.3038     6.4000     0.0099    -0.3066
   22    0.420   1654.66     0.0167     0.0013     0.0006     0.0042     0.0169     7.7975     6.7200     0.0102    -0.3574
   23    0.440   1655.66     0.0176     0.0013     0.0019     0.0044     0.0182     7.7920     7.0400     0.0111    -0.2810
   24    0.460   1656.70     0.0154     0.0015     0.0037     0.0046     0.0166     8.9949     7.3600     0.0092    -0.1810
   25    0.480   1657.70     0.0152     0.0013     0.0043     0.0048     0.0171     8.4494     7.6800     0.0094    -0.0416
   26    0.500   1658.72     0.0175     0.0012     0.0040     0.0050     0.0192     7.2210     8.0000     0.0112    -0.1046
   27    0.520   1659.76     0.0164     0.0014     0.0036     0.0052     0.0181     8.5990     8.3200     0.0098    -0.1068
   28    0.540   1660.77     0.0159     0.0014     0.0038     0.0054     0.0172     8.8746     8.6400     0.0086    -0.2477
   29    0.560   1661.83     0.0175     0.0015     0.0059     0.0056     0.0199     8.4707     8.9600     0.0109     0.0140
   30    0.580   1662.82     0.0192     0.0013     0.0062     0.0058     0.0220     7.0671     9.2800     0.0127     0.0526
   31    0.600   1663.83     0.0242     0.0017     0.0058     0.0060     0.0267     7.4014     9.6000     0.0171     0.0049
   32    0.620   1664.83     0.0229     0.0017     0.0064     0.0062     0.0255     7.2654     9.9200     0.0156     0.0048
   33    0.640   1665.84     0.0201     0.0016     0.0059     0.0064     0.0228     7.9893    10.2400     0.0126     0.0050
   34    0.660   1666.89     0.0204     0.0018     0.0041     0.0066     0.0222     8.9796    10.5600     0.0116    -0.1971
   35    0.680   1667.90     0.0206     0.0020     0.0033     0.0068     0.0221     9.5530    10.8800     0.0112    -0.2948
   36    0.700   1668.94     0.0157     0.0019     0.0051     0.0070     0.0174    12.3113    11.2000     0.0062    -0.4592
   37    0.720   1669.90     0.0158     0.0021     0.0070     0.0072     0.0186    13.2316    11.5200     0.0070    -0.0952
   38    0.740   1670.93     0.0204     0.0019     0.0060     0.0074     0.0231    10.6186    11.8400     0.0113    -0.0818
   39    0.760   1671.95     0.0144     0.0019     0.0072     0.0076     0.0172    10.9324    12.1600     0.0050    -0.2070
   40    0.780   1672.98     0.0156     0.0015     0.0089     0.0078     0.0194     9.9913    12.4800     0.0069     0.1851
   41    0.800   1674.01     0.0159     0.0018     0.0082     0.0080     0.0194    11.2509    12.8000     0.0066     0.0444
   42    0.820   1674.97     0.0169     0.0018     0.0087     0.0082     0.0208     9.9720    13.1200     0.0076     0.1244
   43    0.840   1676.02     0.0181     0.0018     0.0097     0.0084     0.0220    10.5263    13.4400     0.0086     0.1285
   44    0.860   1677.02     0.0157     0.0019     0.0100     0.0086     0.0200    11.5889    13.7600     0.0062     0.2474
   45    0.880   1678.05     0.0140     0.0020     0.0092     0.0088     0.0181    13.9031    14.0800     0.0040     0.2025
   46    0.900   1679.06     0.0117     0.0020     0.0103     0.0090     0.0160    17.3618    14.4000     0.0016    -2.8822
   47    0.920   1680.09     0.0093     0.0020     0.0109     0.0092     0.0137    19.5252    14.7200    -0.0010    -1.1101
   48    0.940   1681.09     0.0077     0.0021     0.0099     0.0094     0.0119    29.4537    15.0400    -0.0032    -0.1885
   49    0.960   1682.15     0.0064     0.0020     0.0109     0.0096     0.0108    27.0540    15.3600    -0.0046    -0.1882
   50    0.980   1683.17     0.0068     0.0018     0.0125     0.0098     0.0120    22.5970    15.6800    -0.0037    -0.7079
   51    1.000   1684.23     0.0061     0.0021     0.0122     0.0100     0.0114    33.8087    16.0000    -0.0046    -0.5537
   52    1.020   1685.25     0.0077     0.0020     0.0129     0.0102     0.0129    26.4159    16.3200    -0.0034    -0.7141
   53    1.040   1686.25     0.0089     0.0017     0.0140     0.0104     0.0146    23.9871    16.6400    -0.0020    -1.9856
   54    1.060   1687.25     0.0115     0.0017     0.0137     0.0106     0.0173    15.1163    16.9600     0.0003     2.0654
   55    1.080   1688.29     0.0133     0.0019     0.0134     0.0108     0.0194    14.8659    17.2800     0.0021     1.7341
   56    1.100   1689.28     0.0108     0.0023     0.0126     0.0110     0.0162    20.8823    17.6000    -0.0014    -0.6136
   57    1.120   1690.35     0.0091     0.0022     0.0108     0.0112     0.0138    24.0145    17.9200    -0.0041     0.0102
   58    1.140   1691.33     0.0163     0.0021     0.0107     0.0114     0.0204    13.2289    18.2400     0.0022    -0.8847
   59    1.160   1692.36     0.0175     0.0022     0.0131     0.0116     0.0228    11.1467    18.5600     0.0042     0.2444
   60    1.180   1693.36     0.0251     0.0020     0.0154     0.0118     0.0311     8.1465    18.8800     0.0122     0.2072
   61    1.200   1694.36     0.0209     0.0022     0.0142     0.0120     0.0279    10.2187    19.2000     0.0087     0.5227
   62    1.220   1695.36     0.0210     0.0020     0.0099     0.0122     0.0249     9.4718    19.5200     0.0054    -0.5016
   63    1.240   1696.40     0.0168     0.0023     0.0096     0.0124     0.0208    13.5996    19.8400     0.0010    -2.8319
   64    1.260   1697.40     0.0140     0.0023     0.0114     0.0126     0.0186    16.0736    20.1600    -0.0016     1.1152
   65    1.280   1698.43     0.0113     0.0023     0.0133     0.0128     0.0167    20.7883    20.4800    -0.0038    -0.0144
   66    1.300   1699.48     0.0131     0.0020     0.0157     0.0130     0.0196    15.1538    20.8000    -0.0012    -1.8829
   67    1.320   1700.48     0.0147     0.0024     0.0188     0.0132     0.0219    17.9200    21.1200     0.0007    -2.1207
   68    1.340   1701.44     0.0199     0.0024     0.0197     0.0134     0.0281    12.5287    21.4400     0.0067     0.9543
   69    1.360   1702.50     0.0218     0.0027     0.0206     0.0136     0.0304    11.9788    21.7600     0.0086     0.8136
   70    1.380   1703.53     0.0203     0.0025     0.0196     0.0138     0.0286    12.1580    22.0800     0.0066     0.9358
   71    1.400   1704.54     0.0227     0.0024     0.0165     0.0140     0.0298    10.5165    22.4000     0.0074     0.3819
   72    1.420   1705.54     0.0217     0.0022     0.0177     0.0142     0.0289    10.0233    22.7200     0.0062     0.5295
   73    1.440   1706.58     0.0189     0.0025     0.0195     0.0144     0.0272    12.7587    23.0400     0.0042     1.3519
   74    1.460   1707.61     0.0184     0.0027     0.0197     0.0146     0.0266    12.9544    23.3600     0.0032     4.5152
   75    1.480   1708.61     0.0172     0.0023     0.0215     0.0148     0.0261    13.4693    23.6800     0.0024     2.6421
   76    1.500   1709.60     0.0191     0.0023     0.0211     0.0150     0.0278    11.5513    24.0000     0.0038     1.5755
   77    1.520   1710.65     0.0195     0.0023     0.0231     0.0152     0.0288    14.4379    24.3200     0.0044     4.3820
   78    1.540   1711.67     0.0194     0.0022     0.0256     0.0154     0.0298    11.0720    24.6400     0.0051     1.8388
   79    1.560   1712.71     0.0173     0.0024     0.0269     0.0156     0.0284    13.7589    24.9600     0.0034     4.0157
   80    1.580   1713.73     0.0165     0.0020     0.0273     0.0158     0.0280    12.4213    25.2800     0.0027     4.7776
   81    1.600   1714.73     0.0144     0.0022     0.0267     0.0160     0.0257    15.5377    25.6000     0.0001           
   82    1.620   1715.74     0.0151     0.0023     0.0263     0.0162     0.0260    13.0862    25.9200     0.0001    -7.7317
   83    1.640   1716.77     0.0216     0.0025     0.0291     0.0164     0.0334    11.6781    26.2400     0.0072     1.6314
   84    1.660   1717.82     0.0207     0.0022     0.0304     0.0166     0.0333    10.5862    26.5600     0.0068     2.0279
   85    1.680   1718.82     0.0185     0.0024     0.0309     0.0168     0.0311    13.0397    26.8800     0.0042     3.1550
   86    1.700   1719.82     0.0203     0.0022     0.0318     0.0170     0.0335    11.0725    27.2000     0.0063     2.2804
   87    1.720   1720.83     0.0220     0.0022     0.0339     0.0172     0.0358    10.2109    27.5200     0.0083     1.8901
   88    1.740   1721.83     0.0268     0.0025     0.0368     0.0174     0.0419     9.6333    27.8400     0.0141     1.3286
   89    1.760   1722.83     0.0409     0.0021     0.0375     0.0176     0.0569     6.7578    28.1600     0.0287     0.7108
   90    1.780   1723.87     0.0503     0.0025     0.0317     0.0178     0.0643     4.9883    28.4800     0.0359     0.4328
   91    1.800   1724.92     0.0482     0.0026     0.0279     0.0180     0.0598     5.4799    28.8000     0.0310     0.3132
   92    1.820   1725.93     0.0463     0.0024     0.0313     0.0182     0.0588     5.1548    29.1200     0.0297     0.3908
   93    1.840   1726.98     0.0405     0.0025     0.0311     0.0184     0.0531     5.8275    29.4400     0.0237     0.4950
   94    1.860   1727.94     0.0382     0.0028     0.0339     0.0186     0.0523     7.4921    29.7600     0.0225     0.6673
   95    1.880   1728.96     0.0381     0.0027     0.0345     0.0188     0.0523     7.0398    30.0800     0.0222     0.6754
   96    1.900   1730.00     0.0362     0.0025     0.0382     0.0190     0.0518     6.5619    30.4000     0.0214     0.8505
   97    1.920   1730.99     0.0414     0.0024     0.0374     0.0192     0.0569     6.2241    30.7200     0.0262     0.6769
   98    1.940   1732.06     0.0402     0.0023     0.0395     0.0194     0.0566     5.8862    31.0400     0.0255     0.7717
   99    1.960   1733.08     0.0422     0.0022     0.0403     0.0196     0.0588     5.6122    31.3600     0.0274     0.7276
  100    1.980   1734.10     0.0457     0.0021     0.0435     0.0198     0.0637     4.6439    31.6800     0.0321     0.7191
  101    2.000   1735.14     0.0501     0.0019     0.0441     0.0200     0.0687     3.8819    32.0000     0.0367     0.6649
  102    2.020   1754.84     0.0572     0.0022     0.0418     0.0202     0.0751     4.2256    32.3200     0.0428     0.5458
  103    2.040   1779.36     0.0645     0.0024     0.0395     0.0204     0.0814     4.7305    32.6400     0.0488     0.4264
  104    2.060   1796.70     0.0688     0.0026     0.0347     0.0206     0.0841     4.2230    32.9600     0.0512     0.3115
  105    2.080   1797.68     0.0639     0.0027     0.0298     0.0208     0.0771     4.0047    33.2800     0.0439     0.2439
  106    2.100   1798.68     0.0615     0.0027     0.0261     0.0210     0.0728     4.4438    33.6000     0.0392     0.1485
  107    2.120   1799.74     0.0562     0.0029     0.0299     0.0212     0.0681     5.1965    33.9200     0.0342     0.2059
  108    2.140   1800.78     0.0581     0.0029     0.0342     0.0214     0.0718     4.9626    34.2400     0.0376     0.2992
  109    2.160   1801.78     0.0602     0.0026     0.0403     0.0216     0.0762     4.3516    34.5600     0.0417     0.3979
  110    2.180   1802.78     0.0611     0.0026     0.0451     0.0218     0.0795     4.4166    34.8800     0.0447     0.4954
  111    2.200   1803.79     0.0647     0.0025     0.0482     0.0220     0.0844     3.9757    35.2000     0.0492     0.5096
  112    2.220   1804.82     0.0645     0.0026     0.0514     0.0222     0.0859     3.9228    35.5200     0.0504     0.5716
  113    2.240   1805.82     0.0685     0.0026     0.0527     0.0224     0.0905     3.7823    35.8400     0.0547     0.5480
  114    2.260   1806.83     0.0729     0.0027     0.0532     0.0226     0.0956     3.9513    36.1600     0.0594     0.5285
  115    2.280   1807.88     0.0800     0.0029     0.0523     0.0228     0.1017     3.7039    36.4800     0.0653     0.4446
  116    2.300   1808.89     0.0813     0.0030     0.0557     0.0230     0.1044     3.6395    36.8000     0.0676     0.4727
  117    2.320   1809.89     0.0827     0.0031     0.0565     0.0232     0.1066     3.5661    37.1200     0.0695     0.4861
  118    2.340   1810.93     0.0840     0.0029     0.0511     0.0234     0.1075     3.3890    37.4400     0.0701     0.4642
  119    2.360   1811.93     0.0959     0.0029     0.0503     0.0236     0.1156     3.0417    37.7600     0.0778     0.2994
  120    2.380   1812.91     0.0921     0.0029     0.0537     0.0238     0.1147     3.0967    38.0800     0.0766     0.3903
  121    2.400   1814.00     0.0887     0.0027     0.0572     0.0240     0.1130     2.9483    38.4000     0.0746     0.4540
  122    2.420   1814.99     0.0834     0.0028     0.0567     0.0242     0.1070     3.2700    38.7200     0.0683     0.4713
  123    2.440   1816.05     0.0789     0.0029     0.0544     0.0244     0.1022     3.6648    39.0400     0.0632     0.4919
  124    2.460   1817.04     0.0816     0.0033     0.0505     0.0246     0.1034     4.0869    39.3600     0.0640     0.4255
  125    2.480   1818.06     0.0872     0.0029     0.0570     0.0248     0.1104     3.4045    39.6800     0.0707     0.4301
  126    2.500   1819.07     0.0943     0.0029     0.0544     0.0250     0.1175     3.2782    40.0000     0.0775     0.3934
  127    2.520   1820.11     0.0964     0.0031     0.0530     0.0252     0.1199     3.3356    40.3200     0.0795     0.3874
  128    2.540   1821.16     0.0924     0.0033     0.0566     0.0254     0.1155     3.5277    40.6400     0.0749     0.3954
  129    2.560   1822.17     0.0883     0.0033     0.0597     0.0256     0.1129     3.7134    40.9600     0.0719     0.4582
  130    2.580   1823.19     0.0906     0.0030     0.0575     0.0258     0.1159     3.2636    41.2800     0.0746     0.4614
  131    2.600   1824.22     0.0909     0.0031     0.0519     0.0260     0.1131     3.4553    41.6000     0.0715     0.3736
  132    2.620   1825.21     0.0879     0.0031     0.0530     0.0262     0.1096     3.3903    41.9200     0.0677     0.3757
  133    2.640   1826.22     0.0834     0.0033     0.0573     0.0264     0.1070     3.9544    42.2400     0.0647     0.4603
  134    2.660   1827.23     0.0878     0.0034     0.0546     0.0266     0.1116     3.9755    42.5600     0.0691     0.4357
  135    2.680   1828.24     0.0975     0.0034     0.0518     0.0268     0.1194     3.5993    42.8800     0.0765     0.3321
  136    2.700   1829.28     0.1013     0.0040     0.0546     0.0270     0.1234     4.0123    43.2000     0.0802     0.3205
  137    2.720   1830.28     0.0988     0.0040     0.0546     0.0272     0.1224     4.0220    43.5200     0.0789     0.3665
  138    2.740   1831.32     0.0993     0.0037     0.0503     0.0274     0.1209     3.7901    43.8400     0.0771     0.3117
  139    2.760   1832.32     0.0950     0.0037     0.0573     0.0276     0.1179     3.7914    44.1600     0.0738     0.3670
  140    2.780   1833.37     0.0935     0.0034     0.0596     0.0278     0.1180     3.6852    44.4800     0.0735     0.4145
  141    2.800   1834.37     0.0911     0.0038     0.0587     0.0280     0.1145     4.1281    44.8000     0.0697     0.3997
  142    2.820   1835.38     0.0933     0.0036     0.0583     0.0282     0.1171     3.8791    45.1200     0.0720     0.3981
  143    2.840   1836.41     0.0996     0.0036     0.0618     0.0284     0.1248     3.6070    45.4400     0.0794     0.3986
  144    2.860   1837.45     0.0979     0.0034     0.0638     0.0286     0.1246     3.3783    45.7600     0.0788     0.4441
  145    2.880   1838.46     0.0970     0.0036     0.0591     0.0288     0.1220     3.7015    46.0800     0.0759     0.4055
  146    2.900   1839.48     0.0928     0.0036     0.0529     0.0290     0.1163     3.8126    46.4000     0.0699     0.3840
  147    2.920   1840.50     0.0886     0.0037     0.0582     0.0292     0.1114     4.0739    46.7200     0.0646     0.3870
  148    2.940   1841.50     0.0843     0.0038     0.0577     0.0294     0.1087     4.4237    47.0400     0.0617     0.4653
  149    2.960   1842.52     0.0778     0.0034     0.0611     0.0296     0.1029     4.2039    47.3600     0.0555     0.5439
  150    2.980   1843.56     0.0699     0.0032     0.0626     0.0298     0.0961     4.3590    47.6800     0.0484     0.6742
  151    3.000   1844.61     0.0678     0.0033     0.0626     0.0300     0.0930     4.9383    48.0000     0.0450     0.6674
  152    3.020   1845.62     0.0645     0.0032     0.0656     0.0302     0.0918     4.9833    48.3200     0.0435     0.7991
  153    3.040   1846.65     0.0650     0.0032     0.0669     0.0304     0.0931     4.8915    48.6400     0.0445     0.8196
  154    3.060   1847.68     0.0669     0.0030     0.0707     0.0306     0.0962     4.4452    48.9600     0.0472     0.8301
  155    3.080   1848.71     0.0720     0.0025     0.0723     0.0308     0.1020     3.5378    49.2800     0.0527     0.7738
  156    3.100   1849.68     0.0710     0.0026     0.0749     0.0310     0.1022     3.6474    49.6000     0.0526     0.8211
  157    3.120   1850.69     0.0712     0.0028     0.0764     0.0312     0.1031     3.8583    49.9200     0.0532     0.8418
  158    3.140   1851.72     0.0701     0.0028     0.0786     0.0314     0.1029     3.9992    50.2400     0.0527     0.8854
  159    3.160   1852.74     0.0705     0.0027     0.0755     0.0316     0.1028     3.7911    50.5600     0.0523     0.8689
  160    3.180   1853.79     0.0804     0.0028     0.0718     0.0318     0.1115     3.7343    50.8800     0.0606     0.6961
  161    3.200   1854.82     0.0939     0.0032     0.0738     0.0320     0.1244     3.5174    51.2000     0.0732     0.5523
  162    3.220   1855.81     0.0934     0.0037     0.0742     0.0322     0.1242     3.9403    51.5200     0.0726     0.5654
  163    3.240   1856.83     0.0936     0.0037     0.0753     0.0324     0.1256     4.0031    51.8400     0.0737     0.5923
  164    3.260   1857.81     0.0968     0.0040     0.0730     0.0326     0.1277     4.3256    52.1600     0.0755     0.5436
  165    3.280   1858.90     0.1038     0.0042     0.0684     0.0328     0.1340     4.1351    52.4800     0.0815     0.4773
  166    3.300   1859.89     0.1133     0.0041     0.0717     0.0330     0.1427     3.6124    52.8000     0.0899     0.4117
  167    3.320   1860.95     0.1170     0.0041     0.0783     0.0332     0.1492     3.5019    53.1200     0.0961     0.4515
  168    3.340   1861.90     0.1203     0.0043     0.0815     0.0334     0.1544     3.6186    53.4400     0.1010     0.4736
  169    3.360   1862.91     0.1252     0.0040     0.0839     0.0336     0.1599     3.2311    53.7600     0.1061     0.4601
  170    3.380   1863.97     0.1228     0.0044     0.0856     0.0338     0.1585     3.5211    54.0800     0.1044     0.4894
  171    3.400   1865.01     0.1233     0.0039     0.0890     0.0340     0.1602     3.1838    54.4000     0.1058     0.5083
  172    3.420   1866.02     0.1251     0.0041     0.0856     0.0342     0.1614     3.3373    54.7200     0.1067     0.4899
  173    3.440   1867.04     0.1193     0.0039     0.0872     0.0344     0.1560     3.1947    55.0400     0.1009     0.5239
  174    3.460   1868.07     0.1156     0.0044     0.0875     0.0346     0.1523     3.8121    55.3600     0.0969     0.5454
  175    3.480   1869.11     0.1137     0.0043     0.0892     0.0348     0.1509     3.7585    55.6800     0.0953     0.5647
  176    3.500   1870.15     0.1187     0.0039     0.0874     0.0350     0.1558     3.2637    56.0000     0.0998     0.5336
  177    3.520   1871.17     0.1191     0.0039     0.0865     0.0352     0.1552     3.3025    56.3200     0.0989     0.5128
  178    3.540   1872.19     0.1186     0.0037     0.0919     0.0354     0.1564     3.1488    56.6400     0.0998     0.5473
  179    3.560   1873.14     0.1156     0.0033     0.0922     0.0356     0.1545     2.8270    56.9600     0.0975     0.5856
  180    3.580   1874.20     0.1172     0.0031     0.0908     0.0358     0.1550     2.6330    57.2800     0.0977     0.5534
  181    3.600   1875.23     0.1183     0.0034     0.0931     0.0360     0.1577     2.9817    57.6000     0.1001     0.5794
  182    3.620   1876.26     0.1186     0.0036     0.0875     0.0362     0.1560     3.0292    57.9200     0.0981     0.5378
  183    3.640   1877.29     0.1127     0.0037     0.0870     0.0364     0.1495     3.3023    58.2400     0.0912     0.5600
  184    3.660   1878.26     0.1217     0.0042     0.0810     0.0366     0.1566     3.7275    58.5600     0.0981     0.4764
  185    3.680   1879.31     0.1298     0.0039     0.0798     0.0368     0.1634     3.0710    58.8800     0.1045     0.4128
  186    3.700   1880.31     0.1309     0.0038     0.0812     0.0370     0.1644     2.8295    59.2000     0.1052     0.4070
  187    3.720   1881.32     0.1266     0.0040     0.0825     0.0372     0.1617     3.0878    59.5200     0.1022     0.4537
  188    3.740   1882.38     0.1155     0.0040     0.0825     0.0374     0.1497     3.4696    59.8400     0.0899     0.4891
  189    3.760   1883.38     0.1108     0.0038     0.0819     0.0376     0.1450     3.3822    60.1600     0.0849     0.5170
  190    3.780   1884.39     0.1098     0.0037     0.0808     0.0378     0.1435     3.3982    60.4800     0.0830     0.5101
  191    3.800   1885.44     0.1120     0.0034     0.0772     0.0380     0.1442     3.0525    60.8000     0.0834     0.4627
  192    3.820   1886.47     0.1091     0.0033     0.0868     0.0382     0.1446     3.0389    61.1200     0.0835     0.5555
  193    3.840   1887.40     0.1056     0.0037     0.0895     0.0384     0.1427     3.5252    61.4400     0.0812     0.6126
  194    3.860   1888.41     0.1063     0.0036     0.0905     0.0386     0.1442     3.3905    61.7600     0.0824     0.6266
  195    3.880   1889.44     0.1018     0.0037     0.0901     0.0388     0.1399     3.5210    62.0800     0.0778     0.6666
  196    3.900   1890.45     0.1002     0.0038     0.0891     0.0390     0.1375     3.7438    62.4000     0.0751     0.6647
  197    3.920   1891.50     0.0957     0.0040     0.0864     0.0392     0.1324     4.1049    62.7200     0.0697     0.6910
  198    3.940   1892.55     0.0957     0.0035     0.0852     0.0394     0.1308     3.6812    63.0400     0.0678     0.6522
  199    3.960   1893.55     0.0935     0.0037     0.0905     0.0396     0.1310     3.9319    63.3600     0.0677     0.7347
  200    3.980   1901.09     0.0941     0.0033     0.0939     0.0398     0.1326     3.5069    63.6800     0.0689     0.7532
  201    4.000   1927.32     0.1012     0.0030     0.1003     0.0400     0.1424     3.2734    64.0000     0.0784     0.7426
  202    4.020   1953.54     0.1083     0.0030     0.1058     0.0402     0.1522     3.3025    64.3200     0.0878     0.7320
  203    4.040   1959.14     0.1203     0.0031     0.1067     0.0404     0.1652     2.7174    64.6400     0.1005     0.6610
  204    4.060   1960.18     0.1362     0.0035     0.1021     0.0406     0.1803     2.6411    64.9600     0.1154     0.5590
  205    4.080   1961.20     0.1439     0.0037     0.0916     0.0408     0.1841     2.5537    65.2800     0.1188     0.4623
  206    4.100   1962.22     0.1512     0.0035     0.0864     0.0410     0.1869     2.2882    65.6000     0.1213     0.3625
  207    4.120   1963.25     0.1552     0.0040     0.0804     0.0412     0.1888     2.5746    65.9200     0.1229     0.3169
  208    4.140   1964.17     0.1521     0.0036     0.0804     0.0414     0.1847     2.3836    66.2400     0.1185     0.3061
  209    4.160   1965.23     0.1451     0.0040     0.0938     0.0416     0.1833     2.6559    66.5600     0.1168     0.4223
  210    4.180   1966.27     0.1487     0.0036     0.0921     0.0418     0.1874     2.4040    66.8800     0.1205     0.4179
  211    4.200   1967.32     0.1523     0.0036     0.0858     0.0420     0.1894     2.3657    67.2000     0.1222     0.3790
  212    4.220   1968.22     0.1501     0.0040     0.0820     0.0422     0.1864     2.5938    67.5200     0.1189     0.3722
  213    4.240   1969.30     0.1475     0.0039     0.0815     0.0424     0.1812     2.6128    67.8400     0.1134     0.3330
  214    4.260   1970.31     0.1464     0.0041     0.0817     0.0426     0.1814     2.7692    68.1600     0.1133     0.3610
  215    4.280   1971.36     0.1469     0.0043     0.0784     0.0428     0.1803     2.9137    68.4800     0.1118     0.3283
  216    4.300   1972.37     0.1510     0.0042     0.0782     0.0430     0.1842     2.7947    68.8000     0.1154     0.3110
  217    4.320   1973.37     0.1496     0.0040     0.0853     0.0432     0.1836     2.6488    69.1200     0.1145     0.3299
  218    4.340   1974.38     0.1491     0.0040     0.0892     0.0434     0.1858     2.7030    69.4400     0.1164     0.3779
  219    4.360   1975.43     0.1474     0.0033     0.0944     0.0436     0.1866     2.2222    69.7600     0.1168     0.4249
  220    4.380   1976.45     0.1483     0.0036     0.0974     0.0438     0.1888     2.4040    70.0800     0.1188     0.4445
  221    4.400   1977.47     0.1467     0.0038     0.1001     0.0440     0.1884     2.6071    70.4000     0.1180     0.4688
  222    4.420   1978.48     0.1479     0.0040     0.0999     0.0442     0.1899     2.7505    70.7200     0.1192     0.4691
  223    4.440   1979.47     0.1447     0.0039     0.0992     0.0444     0.1862     2.6659    71.0400     0.1152     0.4730
  224    4.460   1980.50     0.1422     0.0039     0.0890     0.0446     0.1812     2.7754    71.3600     0.1098     0.4382
  225    4.480   1981.56     0.1365     0.0038     0.0895     0.0448     0.1737     2.6868    71.6800     0.1020     0.4284
  226    4.500   1982.56     0.1322     0.0038     0.0916     0.0450     0.1698     2.9217    72.0000     0.0978     0.4567
  227    4.520   1983.57     0.1257     0.0037     0.0966     0.0452     0.1660     2.9009    72.3200     0.0937     0.5428
  228    4.540   1984.62     0.1307     0.0037     0.0977     0.0454     0.1710     2.8655    72.6400     0.0983     0.5143
  229    4.560   1985.62     0.1393     0.0037     0.1039     0.0456     0.1826     2.6401    72.9600     0.1097     0.5256
  230    4.580   1986.65     0.1531     0.0037     0.1007     0.0458     0.1952     2.4509    73.2800     0.1220     0.4478
  231    4.600   1987.68     0.1575     0.0039     0.1052     0.0460     0.2011     2.4673    73.6000     0.1275     0.4542
  232    4.620   1988.71     0.1583     0.0035     0.1047     0.0462     0.2027     2.2318    73.9200     0.1288     0.4615
  233    4.640   1989.73     0.1612     0.0036     0.1024     0.0464     0.2045     2.2793    74.2400     0.1302     0.4343
  234    4.660   1990.73     0.1576     0.0039     0.1035     0.0466     0.2014     2.4153    74.5600     0.1269     0.4550
  235    4.680   1991.74     0.1576     0.0038     0.1052     0.0468     0.2015     2.4386    74.8800     0.1266     0.4553
  236    4.700   1992.73     0.1593     0.0039     0.1078     0.0470     0.2042     2.5022    75.2000     0.1290     0.4632
  237    4.720   1993.74     0.1554     0.0039     0.1047     0.0472     0.2005     2.4679    75.5200     0.1250     0.4817
  238    4.740   1994.79     0.1521     0.0037     0.1032     0.0474     0.1964     2.4184    75.8400     0.1206     0.4824
  239    4.760   1995.80     0.1519     0.0039     0.1015     0.0476     0.1942     2.5109    76.1600     0.1180     0.4502
  240    4.780   1996.88     0.1513     0.0037     0.1044     0.0478     0.1952     2.4428    76.4800     0.1187     0.4779
  241    4.800   1997.86     0.1460     0.0040     0.1082     0.0480     0.1911     2.7177    76.8000     0.1143     0.5210
  242    4.820   1998.89     0.1441     0.0036     0.1096     0.0482     0.1904     2.5123    77.1200     0.1133     0.5488
  243    4.840   1999.90     0.1457     0.0035     0.1089     0.0484     0.1919     2.4173    77.4400     0.1145     0.5392
  244    4.860   2000.91     0.1424     0.0037     0.1102     0.0486     0.1891     2.5727    77.7600     0.1113     0.5619
  245    4.880   2001.95     0.1426     0.0036     0.1078     0.0488     0.1884     2.4999    78.0800     0.1103     0.5467
  246    4.900   2002.96     0.1412     0.0036     0.1105     0.0490     0.1871     2.5190    78.4000     0.1087     0.5550
  247    4.920   2003.98     0.1418     0.0036     0.1133     0.0492     0.1890     2.5819    78.7200     0.1103     0.5738
  248    4.940   2005.00     0.1445     0.0038     0.1146     0.0494     0.1927     2.6657    79.0400     0.1136     0.5741
  249    4.960   2005.98     0.1483     0.0034     0.1158     0.0496     0.1969     2.3191    79.3600     0.1175     0.5620
  250    4.980   2007.03     0.1460     0.0034     0.1132     0.0498     0.1937     2.3484    79.6800     0.1141     0.5606
  251    5.000   2008.03     0.1480     0.0031     0.1089     0.0500     0.1939     2.1215    80.0000     0.1139     0.5202
  252    5.020   2009.09     0.1503     0.0032     0.1116     0.0502     0.1962     2.1498    80.3200     0.1159     0.5102
  253    5.040   2010.06     0.1476     0.0035     0.1126     0.0504     0.1950     2.3265    80.6400     0.1143     0.5451
  254    5.060   2011.10     0.1487     0.0039     0.1074     0.0506     0.1948     2.6360    80.9600     0.1138     0.5199
  255    5.080   2012.10     0.1558     0.0041     0.1017     0.0508     0.1992     2.6625    81.2800     0.1179     0.4461
  256    5.100   2013.11     0.1567     0.0043     0.0989     0.0510     0.1985     2.7639    81.6000     0.1169     0.4147
  257    5.120   2014.14     0.1593     0.0044     0.0997     0.0512     0.2007     2.7487    81.9200     0.1188     0.3991
  258    5.140   2015.23     0.1603     0.0043     0.1040     0.0514     0.2035     2.6942    82.2400     0.1212     0.4231
  259    5.160   2016.18     0.1619     0.0041     0.1087     0.0516     0.2064     2.5192    82.5600     0.1238     0.4388
  260    5.180   2017.23     0.1602     0.0039     0.1129     0.0518     0.2081     2.4563    82.8800     0.1252     0.4958
  261    5.200   2018.23     0.1597     0.0042     0.1177     0.0520     0.2084     2.5703    83.2000     0.1252     0.5103
  262    5.220   2019.24     0.1615     0.0040     0.1182     0.0522     0.2113     2.4997    83.5200     0.1278     0.5193
  263    5.240   2020.29     0.1645     0.0039     0.1185     0.0524     0.2140     2.3603    83.8400     0.1302     0.5035
  264    5.260   2021.30     0.1644     0.0037     0.1147     0.0526     0.2147     2.2281    84.1600     0.1306     0.5153
  265    5.280   2022.30     0.1665     0.0038     0.1121     0.0528     0.2126     2.2911    84.4800     0.1281     0.4448
  266    5.300   2023.36     0.1613     0.0044     0.1165     0.0530     0.2091     2.7334    84.8000     0.1243     0.4895
  267    5.320   2024.36     0.1650     0.0041     0.1168     0.0532     0.2139     2.4722    85.1200     0.1287     0.4908
  268    5.340   2025.37     0.1667     0.0044     0.1197     0.0534     0.2164     2.6404    85.4400     0.1309     0.4948
  269    5.360   2026.42     0.1682     0.0047     0.1168     0.0536     0.2177     2.7808    85.7600     0.1319     0.4867
  270    5.380   2027.42     0.1719     0.0043     0.1142     0.0538     0.2188     2.4593    86.0800     0.1327     0.4360
  271    5.400   2028.46     0.1682     0.0039     0.1205     0.0540     0.2176     2.3384    86.4000     0.1312     0.4856
  272    5.420   2029.45     0.1727     0.0044     0.1241     0.0542     0.2248     2.6180    86.7200     0.1381     0.5061
  273    5.440   2030.55     0.1760     0.0042     0.1224     0.0544     0.2269     2.4024    87.0400     0.1399     0.4768
  274    5.460   2031.53     0.1784     0.0040     0.1247     0.0546     0.2304     2.2423    87.3600     0.1430     0.4837
  275    5.480   2032.52     0.1883     0.0043     0.1220     0.0548     0.2399     2.3178    87.6800     0.1523     0.4483
  276    5.500   2033.57     0.1908     0.0047     0.1179     0.0550     0.2416     2.5259    88.0000     0.1536     0.4297
  277    5.520   2034.56     0.1908     0.0043     0.1244     0.0552     0.2417     2.2356    88.3200     0.1534     0.4305
  278    5.540   2035.43     0.1889     0.0046     0.1204     0.0554     0.2410     2.4332    88.6400     0.1524     0.4516
  279    5.560   2036.40     0.1912     0.0043     0.1258     0.0556     0.2425     2.2463    88.9600     0.1535     0.4327
  280    5.580   2037.40     0.1907     0.0045     0.1300     0.0558     0.2456     2.3542    89.2800     0.1563     0.4795
  281    5.600   2038.49     0.1927     0.0041     0.1275     0.0560     0.2465     2.1286    89.6000     0.1569     0.4591
  282    5.620   2039.45     0.1946     0.0046     0.1258     0.0562     0.2476     2.3696    89.9200     0.1577     0.4431
  283    5.640   2040.49     0.1903     0.0043     0.1241     0.0564     0.2428     2.2010    90.2400     0.1526     0.4499
  284    5.660   2041.49     0.1904     0.0046     0.1209     0.0566     0.2417     2.3985    90.5600     0.1511     0.4329
  285    5.680   2042.50     0.1882     0.0044     0.1244     0.0568     0.2396     2.3299    90.8800     0.1487     0.4415
  286    5.700   2043.55     0.1895     0.0045     0.1248     0.0570     0.2414     2.3859    91.2000     0.1502     0.4433
  287    5.720   2044.61     0.1809     0.0041     0.1310     0.0572     0.2355     2.2514    91.5200     0.1440     0.5064
  288    5.740   2045.61     0.1844     0.0043     0.1333     0.0574     0.2397     2.3366    91.8400     0.1479     0.5026
  289    5.760   2046.62     0.1817     0.0042     0.1343     0.0576     0.2381     2.3205    92.1600     0.1459     0.5255
  290    5.780   2047.60     0.1807     0.0044     0.1356     0.0578     0.2374     2.4591    92.4800     0.1449     0.5321
  291    5.800   2048.45     0.1773     0.0042     0.1391     0.0580     0.2354     2.3704    92.8000     0.1426     0.5627
  292    5.820   2049.22     0.1804     0.0043     0.1377     0.0582     0.2383     2.3689    93.1200     0.1452     0.5493
  293    5.840   2050.16     0.1846     0.0044     0.1340     0.0584     0.2410     2.3619    93.4400     0.1475     0.5146
  294    5.860   2051.18     0.1815     0.0042     0.1321     0.0586     0.2378     2.3372    93.7600     0.1440     0.5238
  295    5.880   2052.17     0.1806     0.0046     0.1296     0.0588     0.2358     2.5298    94.0800     0.1417     0.5116
  296    5.900   2053.25     0.1791     0.0042     0.1273     0.0590     0.2326     2.3848    94.4000     0.1382     0.4960
  297    5.920   2054.23     0.1780     0.0043     0.1292     0.0592     0.2315     2.4440    94.7200     0.1368     0.4979
  298    5.940   2055.23     0.1734     0.0043     0.1345     0.0594     0.2292     2.4736    95.0400     0.1341     0.5475
  299    5.960   2056.31     0.1740     0.0040     0.1379     0.0596     0.2313     2.2882    95.3600     0.1360     0.5654
  300    5.980   2057.32     0.1703     0.0041     0.1419     0.0598     0.2294     2.4129    95.6800     0.1337     0.6054
  301    6.000   2058.33     0.1778     0.0042     0.1401     0.0600     0.2377     2.3398    96.0000     0.1417     0.5843
  302    6.020   2059.41     0.1808     0.0043     0.1421     0.0602     0.2406     2.3629    96.3200     0.1443     0.5694
  303    6.040   2060.37     0.1874     0.0042     0.1387     0.0604     0.2471     2.3021    96.6400     0.1504     0.5430
  304    6.060   2061.41     0.1887     0.0042     0.1397     0.0606     0.2467     2.2184    96.9600     0.1498     0.5184
  305    6.080   2062.44     0.1846     0.0045     0.1414     0.0608     0.2442     2.4101    97.2800     0.1469     0.5528
  306    6.100   2063.44     0.1830     0.0047     0.1430     0.0610     0.2432     2.5615    97.6000     0.1456     0.5656
  307    6.120   2064.47     0.1831     0.0045     0.1406     0.0612     0.2425     2.4699    97.9200     0.1446     0.5544
  308    6.140   2065.50     0.1859     0.0047     0.1403     0.0614     0.2446     2.5220    98.2400     0.1464     0.5358
  309    6.160   2066.54     0.1847     0.0047     0.1401     0.0616     0.2431     2.5673    98.5600     0.1445     0.5351
  310    6.180   2076.39     0.1859     0.0046     0.1406     0.0618     0.2453     3.1642    98.8800     0.1464     0.5446
  311    6.200   2095.20     0.1917     0.0050     0.1383     0.0620     0.2502     3.2961    99.2000     0.1510     0.5116
  312    6.220   2104.38     0.1981     0.0049     0.1413     0.0622     0.2570     2.4614    99.5200     0.1575     0.4955
  313    6.240   2105.43     0.1999     0.0046     0.1428     0.0624     0.2595     2.2798    99.8400     0.1597     0.4982
  314    6.260   2106.44     0.2007     0.0047     0.1422     0.0626     0.2592     2.3501   100.1600     0.1591     0.4828
  315    6.280   2107.43     0.2003     0.0044     0.1467     0.0628     0.2609     2.2188   100.4800     0.1605     0.5080
  316    6.300   2108.41     0.2047     0.0045     0.1519     0.0630     0.2676     2.2343   100.8000     0.1668     0.5211
  317    6.320   2109.39     0.2064     0.0046     0.1516     0.0632     0.2695     2.2458   101.1200     0.1684     0.5167
  318    6.340   2110.46     0.2182     0.0051     0.1501     0.0634     0.2811     2.3539   101.4400     0.1797     0.4820
  319    6.360   2111.51     0.2282     0.0053     0.1466     0.0636     0.2905     2.3392   101.7600     0.1887     0.4490
  320    6.380   2112.53     0.2355     0.0053     0.1426     0.0638     0.2959     2.2437   102.0800     0.1938     0.4134
  321    6.400   2113.55     0.2366     0.0053     0.1357     0.0640     0.2946     2.2347   102.4000     0.1922     0.3852
  322    6.420   2114.54     0.2313     0.0056     0.1405     0.0642     0.2888     2.3908   102.7200     0.1861     0.3908
  323    6.440   2115.60     0.2216     0.0053     0.1477     0.0644     0.2830     2.4077   103.0400     0.1800     0.4549
  324    6.460   2116.57     0.2199     0.0053     0.1510     0.0646     0.2829     2.3916   103.3600     0.1795     0.4749
  325    6.480   2117.56     0.2265     0.0052     0.1510     0.0648     0.2899     2.3420   103.6800     0.1862     0.4627
  326    6.500   2118.60     0.2222     0.0050     0.1515     0.0650     0.2856     2.2613   104.0000     0.1816     0.4735
  327    6.520   2119.66     0.2199     0.0053     0.1515     0.0652     0.2834     2.4194   104.3200     0.1791     0.4809
  328    6.540   2120.69     0.2214     0.0055     0.1508     0.0654     0.2850     2.5132   104.6400     0.1804     0.4777
  329    6.560   2121.70     0.2205     0.0053     0.1481     0.0656     0.2826     2.3985   104.9600     0.1776     0.4622
  330    6.580   2122.68     0.2115     0.0051     0.1441     0.0658     0.2730     2.3914   105.2800     0.1677     0.4811
  331    6.600   2123.67     0.2018     0.0054     0.1415     0.0660     0.2610     2.6498   105.6000     0.1554     0.4830
  332    6.620   2124.75     0.1923     0.0055     0.1503     0.0662     0.2536     2.7836   105.9200     0.1477     0.5397
  333    6.640   2125.71     0.1877     0.0055     0.1578     0.0664     0.2534     2.9175   106.2400     0.1471     0.6106
  334    6.660   2126.79     0.1878     0.0052     0.1625     0.0666     0.2556     2.7787   106.5600     0.1490     0.6365
  335    6.680   2127.79     0.1948     0.0052     0.1637     0.0668     0.2639     2.6836   106.8800     0.1571     0.6229
  336    6.700   2128.75     0.2002     0.0052     0.1623     0.0670     0.2691     2.5960   107.2000     0.1619     0.5996
  337    6.720   2144.93     0.2076     0.0052     0.1564     0.0672     0.2741     2.6052   107.5200     0.1666     0.5500
  338    6.740   2161.68     0.2152     0.0050     0.1504     0.0674     0.2792     2.5082   107.8400     0.1714     0.4986
  339    6.760   2173.98     0.2219     0.0054     0.1462     0.0676     0.2838     2.4439   108.1600     0.1756     0.4540
  340    6.780   2174.65     0.2243     0.0056     0.1518     0.0678     0.2872     2.4981   108.4800     0.1788     0.4584
  341    6.800   2175.31     0.2270     0.0057     0.1533     0.0680     0.2910     2.5241   108.8000     0.1822     0.4636
  342    6.820   2175.97     0.2252     0.0056     0.1546     0.0682     0.2900     2.4679   109.1200     0.1809     0.4765
  343    6.840   2176.59     0.2241     0.0051     0.1568     0.0684     0.2895     2.2998   109.4400     0.1801     0.4858
  344    6.860   2177.15     0.2198     0.0051     0.1581     0.0686     0.2862     2.2887   109.7600     0.1764     0.5070
  345    6.880   2177.89     0.2229     0.0052     0.1613     0.0688     0.2894     2.3636   110.0800     0.1794     0.4998
  346    6.900   2178.54     0.2187     0.0054     0.1643     0.0690     0.2875     2.4765   110.4000     0.1771     0.5355
  347    6.920   2179.22     0.2181     0.0044     0.1630     0.0692     0.2870     2.0298   110.7200     0.1763     0.5381
  348    6.940   2179.91     0.2180     0.0052     0.1584     0.0694     0.2854     2.3556   111.0400     0.1743     0.5215
  349    6.960   2180.60     0.2158     0.0059     0.1563     0.0696     0.2816     2.7430   111.3600     0.1703     0.5119
  350    6.980   2181.24     0.2162     0.0060     0.1590     0.0698     0.2825     2.7922   111.6800     0.1708     0.5151
  351    7.000   2181.90     0.2137     0.0059     0.1618     0.0700     0.2815     2.7736   112.0000     0.1695     0.5393
  352    7.020   2182.54     0.2177     0.0056     0.1608     0.0702     0.2855     2.6219   112.3200     0.1732     0.5268
  353    7.040   2200.82     0.2002     0.0058     0.1507     0.0704     0.2650     3.4192   112.6400     0.1524     0.5565
  354    7.060   2227.37     0.2160     0.0060     0.1492     0.0706     0.2773     2.7744   112.9600     0.1644     0.4590
  355    7.080   2228.33     0.2085     0.0060     0.1547     0.0708     0.2727     2.8656   113.2800     0.1594     0.5153
  356    7.100   2229.34     0.2059     0.0058     0.1623     0.0710     0.2733     2.8230   113.6000     0.1597     0.5611
  357    7.120   2230.33     0.2097     0.0056     0.1666     0.0712     0.2792     2.6792   113.9200     0.1653     0.5702
  358    7.140   2231.39     0.2062     0.0052     0.1723     0.0714     0.2775     2.5161   114.2400     0.1633     0.6028
  359    7.160   2232.46     0.2071     0.0051     0.1749     0.0716     0.2798     2.4726   114.5600     0.1653     0.6142
  360    7.180   2233.46     0.2102     0.0049     0.1774     0.0718     0.2837     2.3470   114.8800     0.1688     0.6111
  361    7.200   2234.45     0.2140     0.0052     0.1804     0.0720     0.2895     2.4886   115.2000     0.1743     0.6176
  362    7.220   2235.50     0.2206     0.0058     0.1783     0.0722     0.2956     2.6611   115.5200     0.1801     0.5912
  363    7.240   2236.48     0.2229     0.0056     0.1707     0.0724     0.2955     2.5411   115.8400     0.1796     0.5594
  364    7.260   2237.48     0.2206     0.0059     0.1707     0.0726     0.2926     2.6773   116.1600     0.1764     0.5600
  365    7.280   2238.50     0.2164     0.0058     0.1639     0.0728     0.2855     2.6688   116.4800     0.1690     0.5425
  366    7.300   2239.55     0.2100     0.0054     0.1754     0.0730     0.2819     2.5359   116.8000     0.1651     0.5956
  367    7.320   2240.63     0.2054     0.0053     0.1829     0.0732     0.2812     2.5748   117.1200     0.1640     0.6537
  368    7.340   2241.63     0.1983     0.0053     0.1787     0.0734     0.2746     2.6266   117.4400     0.1571     0.6878
  369    7.360   2242.61     0.1971     0.0046     0.1829     0.0736     0.2727     2.3019   117.7600     0.1549     0.6868
  370    7.380   2243.58     0.1988     0.0047     0.1837     0.0738     0.2759     2.3936   118.0800     0.1579     0.6960
  371    7.400   2244.67     0.2032     0.0050     0.1806     0.0740     0.2801     2.5106   118.4000     0.1617     0.6750
  372    7.420   2245.71     0.2093     0.0052     0.1763     0.0742     0.2835     2.4760   118.7200     0.1648     0.6221
  373    7.440   2246.76     0.2104     0.0049     0.1779     0.0744     0.2845     2.3056   119.0400     0.1655     0.6170
  374    7.460   2247.73     0.2159     0.0055     0.1790     0.0746     0.2908     2.5503   119.3600     0.1714     0.6045
  375    7.480   2248.83     0.2214     0.0058     0.1816     0.0748     0.2976     2.6127   119.6800     0.1779     0.5999
  376    7.500   2249.82     0.2254     0.0058     0.1841     0.0750     0.3026     2.5853   120.0000     0.1826     0.5969
  377    7.520   2250.82     0.2311     0.0054     0.1831     0.0752     0.3084     2.3917   120.3200     0.1881     0.5788
  378    7.540   2251.88     0.2289     0.0053     0.1887     0.0754     0.3071     2.3027   120.6400     0.1864     0.5939
  379    7.560   2252.94     0.2290     0.0057     0.1944     0.0756     0.3105     2.4681   120.9600     0.1895     0.6250
  380    7.580   2253.93     0.2300     0.0054     0.2026     0.0758     0.3140     2.3336   121.2800     0.1928     0.6449
  381    7.600   2254.96     0.2414     0.0057     0.2017     0.0760     0.3273     2.3593   121.6000     0.2057     0.6251
  382    7.620   2255.97     0.2522     0.0060     0.1925     0.0762     0.3344     2.4003   121.9200     0.2125     0.5630
  383    7.640   2256.97     0.2681     0.0056     0.1921     0.0764     0.3493     2.1489   122.2400     0.2271     0.5147
  384    7.660   2258.01     0.2802     0.0061     0.1915     0.0766     0.3608     2.2118   122.5600     0.2383     0.4847
  385    7.680   2259.06     0.2824     0.0064     0.1896     0.0768     0.3620     2.2743   122.8800     0.2391     0.4710
  386    7.700   2260.07     0.2831     0.0057     0.1939     0.0770     0.3638     1.9747   123.2000     0.2406     0.4784
  387    7.720   2261.07     0.2738     0.0062     0.2019     0.0772     0.3568     2.2405   123.5200     0.2332     0.5157
  388    7.740   2262.09     0.2824     0.0059     0.2007     0.0774     0.3665     2.1555   123.8400     0.2427     0.5063
  389    7.760   2263.15     0.2830     0.0059     0.2031     0.0776     0.3679     2.0989   124.1600     0.2437     0.5107
  390    7.780   2264.23     0.2916     0.0060     0.2043     0.0778     0.3775     2.0764   124.4800     0.2530     0.5008
  391    7.800   2265.24     0.3012     0.0063     0.2022     0.0780     0.3864     2.1190   124.8000     0.2616     0.4778
  392    7.820   2266.20     0.2976     0.0058     0.2040     0.0782     0.3819     1.9472   125.1200     0.2568     0.4777
  393    7.840   2267.18     0.3014     0.0064     0.1969     0.0784     0.3855     2.1465   125.4400     0.2600     0.4687
  394    7.860   2268.22     0.2953     0.0065     0.1967     0.0786     0.3777     2.1762   125.7600     0.2520     0.4669
  395    7.880   2269.31     0.2891     0.0065     0.2026     0.0788     0.3737     2.2360   126.0800     0.2476     0.4953
  396    7.900   2270.29     0.2908     0.0062     0.2125     0.0790     0.3780     2.1368   126.4000     0.2516     0.5114
  397    7.920   2271.35     0.3142     0.0060     0.2044     0.0792     0.3984     1.9085   126.7200     0.2717     0.4468
  398    7.940   2272.40     0.2968     0.0059     0.2141     0.0794     0.3846     1.9829   127.0400     0.2575     0.5033
  399    7.960   2273.35     0.2943     0.0060     0.2210     0.0796     0.3847     2.0384   127.3600     0.2574     0.5273
  400    7.980   2274.41     0.3003     0.0062     0.2283     0.0798     0.3955     2.0591   127.6800     0.2679     0.5492
  401    8.000   2275.41     0.3131     0.0062     0.2201     0.0800     0.4084     1.9981   128.0000     0.2804     0.5241
  402    8.020   2276.45     0.3213     0.0067     0.2203     0.0802     0.4119     2.0689   128.3200     0.2836     0.4785
  403    8.040   2277.50     0.3210     0.0063     0.2106     0.0804     0.4120     1.9748   128.6400     0.2834     0.4811
  404    8.060   2278.52     0.3177     0.0059     0.2135     0.0806     0.4078     1.8626   128.9600     0.2788     0.4804
  405    8.080   2296.38     0.3225     0.0062     0.2064     0.0808     0.4103     1.9477   129.2800     0.2810     0.4559
  406    8.100   2317.34     0.3289     0.0062     0.2041     0.0810     0.4139     1.8955   129.6000     0.2843     0.4269
  407    8.120   2318.35     0.3186     0.0065     0.2039     0.0812     0.4038     1.9614   129.9200     0.2739     0.4443
  408    8.140   2319.40     0.2976     0.0068     0.2074     0.0814     0.3853     2.2415   130.2400     0.2550     0.4992
  409    8.160   2320.41     0.3007     0.0067     0.2203     0.0816     0.3929     2.2849   130.5600     0.2623     0.5259
  410    8.180   2321.47     0.3190     0.0054     0.2235     0.0818     0.4126     1.7185   130.8800     0.2817     0.5002
  411    8.200   2322.44     0.3097     0.0049     0.2229     0.0820     0.4033     1.5555   131.2000     0.2721     0.5176
  412    8.220   2323.47     0.3130     0.0055     0.2313     0.0822     0.4077     1.8013   131.5200     0.2762     0.5193
  413    8.240   2324.49     0.3668     0.0056     0.2338     0.0824     0.4634     1.6382   131.8400     0.3316     0.4460
  414    8.260   2325.55     0.6550     0.0077     0.2330     0.0826     0.7566     1.6659   132.1600     0.6244     0.2696
  415    8.280   2326.58     1.6825     0.0113     0.1351     0.0828     1.7558     1.0048   132.4800     1.6233     0.0624
  416    8.300   2327.58     2.9658     0.0157     0.0453     0.0830     2.9943     0.6184   132.8000     2.8615    -0.0046
  417    8.320   2328.62     3.9313     0.0205     0.0193     0.0832     3.9416     0.5566   133.1200     3.8085    -0.0153
  418    8.340   2329.68     4.5255     0.0273     0.0501     0.0834     4.5414     0.6240   133.4400     4.4079    -0.0104
  419    8.360   2330.74     4.9326     0.0328     0.0634     0.0836     4.9585     0.6908   133.7600     4.8247    -0.0045
  420    8.380   2331.75     5.2885     0.0358     0.0714     0.0838     5.3173     0.6912   134.0800     5.1832    -0.0029
  421    8.400   2332.73     5.5633     0.0382     0.0764     0.0840     5.5944     0.6974   134.4000     5.4600    -0.0018
  422    8.420   2333.89     5.8350     0.0400     0.0804     0.0842     5.8682     0.6949   134.7200     5.7335    -0.0009
  423    8.440   2334.91     6.0706     0.0399     0.0827     0.0844     6.1052     0.6686   135.0400     5.9701    -0.0004
  424    8.460   2335.93     6.3150     0.0397     0.0858     0.0846     6.3506     0.6361   135.3600     6.2153     0.0001
  425    8.480   2336.99     6.4936     0.0393     0.0878     0.0848     6.5305     0.6106   135.6800     6.3948     0.0005
  426    8.500   2338.03     6.6479     0.0389     0.0894     0.0850     6.6855     0.5894   136.0000     6.5495     0.0007
  427    8.520   2339.15     6.9056     0.0370     0.0822     0.0852     6.9405     0.5443   136.3200     6.8042    -0.0003
  428    8.540   2340.12     7.2349     0.0360     0.0809     0.0854     7.2693     0.5073   136.6400     7.1326    -0.0005
  429    8.560   2341.16     7.6917     0.0308     0.0779     0.0856     7.7251     0.4103   136.9600     7.5882    -0.0008
  430    8.580   2342.23     8.2290     0.0277     0.0649     0.0858     8.2600     0.3432   137.2800     8.1227    -0.0015
  431    8.600   2343.33     8.7871     0.0274     0.0268     0.0860     8.8057     0.3182   137.6000     8.6681    -0.0048
  432    8.620   2344.34     9.1321     0.0293    -0.0053     0.0862     9.1352     0.3236   137.9200     8.9973    -0.0088
  433    8.640   2345.34     9.2242     0.0396    -0.0057     0.0864     9.2200     0.4301   138.2400     9.0817    -0.0106
  434    8.660   2346.39     9.0717     0.0522     0.0075     0.0866     9.0744     0.5723   138.5600     8.9358    -0.0090
  435    8.680   2347.43     8.8298     0.0554     0.0451     0.0868     8.8385     0.6214   138.8800     8.6997    -0.0076
  436    8.700   2348.49     8.6824     0.0539     0.0553     0.0870     8.7026     0.6210   139.2000     8.5634    -0.0045
  437    8.720   2349.55     9.0235     0.0502     0.0741     0.0872     9.0516     0.5672   139.5200     8.9121    -0.0023
  438    8.740   2350.55     9.7996     0.0512     0.0872     0.0874     9.8338     0.5367   139.8400     9.6940    -0.0006
  439    8.760   2351.60    10.7539     0.0463     0.0723     0.0876    10.7878     0.4397   140.1600    10.6476    -0.0006
  440    8.780   2352.74    11.3980     0.0387     0.0528     0.0878    11.4219     0.3448   140.4800    11.2814    -0.0027
  441    8.800   2353.77    11.7678     0.0377     0.0549     0.0880    11.7885     0.3228   140.8000    11.6477    -0.0033
  442    8.820   2354.72    11.6153     0.0399     0.0668     0.0882    11.6405     0.3421   141.1200    11.4994    -0.0025
  443    8.840   2355.90    11.1494     0.0388     0.0708     0.0884    11.1793     0.3406   141.4400    11.0379    -0.0016
  444    8.860   2356.92    10.5090     0.0383     0.0846     0.0886    10.5438     0.3573   141.7600    10.4020    -0.0006
  445    8.880   2357.99     9.9082     0.0389     0.0868     0.0888     9.9450     0.3874   142.0800     9.8029    -0.0001
  446    8.900   2358.99     9.5470     0.0414     0.0875     0.0890     9.5849     0.4289   142.4000     9.4425     0.0001
  447    8.920   2360.01     9.1867     0.0474     0.0922     0.0892     9.2242     0.5147   142.7200     9.0814     0.0000
  448    8.940   2361.10     9.1644     0.0532     0.0922     0.0894     9.2030     0.5827   143.0400     9.0599     0.0003
  449    8.960   2362.17     9.3616     0.0605     0.0905     0.0896     9.4001     0.6557   143.3600     9.2567     0.0002
  450    8.980   2363.27    10.0184     0.0649     0.0845     0.0898    10.0543     0.6600   143.6800     9.9106    -0.0004
  451    9.000   2364.31    10.8507     0.0651     0.0741     0.0900    10.8836     0.6103   144.0000    10.7396    -0.0011
  452    9.020   2365.36    11.8284     0.0640     0.0518     0.0902    11.8511     0.5510   144.3200    11.7068    -0.0031
  453    9.040   2366.44    12.9841     0.0743     0.0243     0.0904    12.9969     0.5844   144.6400    12.8522    -0.0047
  454    9.060   2367.52    13.6644     0.0808     0.0002     0.0906    13.6667     0.5958   144.9600    13.5218    -0.0063
  455    9.080   2368.54    14.1950     0.0683     0.0393     0.0908    14.2090     0.4891   145.2800    14.0637    -0.0041
  456    9.100   2369.65    15.3404     0.0601     0.0540     0.0910    15.3606     0.4037   145.6000    15.2150    -0.0028
  457    9.120   2370.70    16.2344     0.0576     0.0676     0.0912    16.2614     0.3666   145.9200    16.1154    -0.0017
  458    9.140   2371.84    17.3383     0.0610     0.0750     0.0914    17.3742     0.3613   146.2400    17.2280    -0.0003
  459    9.160   2372.89    18.4167     0.0638     0.0712     0.0916    18.4485     0.3469   146.5600    18.3020    -0.0009
  460    9.180   2373.89    19.4409     0.0642     0.0518     0.0918    19.4645     0.3323   146.8800    19.3176    -0.0018
  461    9.200   2374.85    20.4789     0.0663     0.0590     0.0920    20.5040     0.3255   147.2000    20.3568    -0.0016
  462    9.220   2375.86    20.8346     0.0711     0.0716     0.0922    20.8608     0.3413   147.5200    20.7133    -0.0014
  463    9.240   2376.86    20.6995     0.0783     0.0759     0.0924    20.7320     0.3776   147.8400    20.5842    -0.0007
  464    9.260   2377.93    20.4196     0.0833     0.0875     0.0926    20.4559     0.4064   148.1600    20.3077    -0.0003
  465    9.280   2378.88    19.9869     0.0830     0.0902     0.0928    20.0233     0.4137   148.4800    19.8748    -0.0003
  466    9.300   2379.86    19.6318     0.0835     0.0879     0.0930    19.6680     0.4240   148.8000    19.5192    -0.0003
  467    9.320   2380.76    19.3326     0.0843     0.0909     0.0932    19.3703     0.4356   149.1200    19.2212    -0.0002
  468    9.340   2381.79    19.1569     0.0837     0.0880     0.0934    19.1941     0.4366   149.4400    19.0446    -0.0003
  469    9.360   2382.80    19.0277     0.0817     0.0916     0.0936    19.0656     0.4291   149.7600    18.9158    -0.0002
  470    9.380   2383.80    18.7762     0.0783     0.0929     0.0938    18.8160     0.4164   150.0800    18.6659     0.0001
  471    9.400   2384.83    18.4657     0.0748     0.0939     0.0940    18.5056     0.4040   150.4000    18.3552     0.0001
  472    9.420   2385.81    18.2364     0.0729     0.0952     0.0942    18.2760     0.3992   150.7200    18.1253     0.0000
  473    9.440   2386.81    18.0927     0.0716     0.0955     0.0944    18.1324     0.3954   151.0400    17.9813     0.0000
  474    9.460   2387.77    17.9988     0.0701     0.0942     0.0946    18.0381     0.3894   151.3600    17.8867    -0.0001
  475    9.480   2388.73    17.9923     0.0677     0.0942     0.0948    18.0320     0.3764   151.6800    17.8803     0.0000
  476    9.500   2389.81    17.9539     0.0645     0.0936     0.0950    17.9937     0.3590   152.0000    17.8417     0.0000
  477    9.520   2390.77    17.9357     0.0617     0.0949     0.0952    17.9755     0.3440   152.3200    17.8232     0.0000
  478    9.540   2391.82    18.0290     0.0593     0.0948     0.0954    18.0691     0.3290   152.6400    17.9165     0.0000
  479    9.560   2392.75    18.2842     0.0567     0.0949     0.0956    18.3237     0.3105   152.9600    18.1707    -0.0001
  480    9.580   2393.75    18.5800     0.0559     0.0948     0.0958    18.6196     0.3015   153.2800    18.4663    -0.0001
  481    9.600   2394.80    18.7848     0.0562     0.0942     0.0960    18.8233     0.2998   153.6000    18.6697    -0.0002
  482    9.620   2395.76    19.1288     0.0575     0.0955     0.0962    19.1688     0.3014   153.9200    19.0149    -0.0001
  483    9.640   2396.76    19.5192     0.0610     0.0950     0.0964    19.5592     0.3134   154.2400    19.4050    -0.0001
  484    9.660   2397.79    19.5353     0.0618     0.0966     0.0966    19.5764     0.3161   154.5600    19.4218     0.0001
  485    9.680   2398.75    19.3867     0.0620     0.0962     0.0968    19.4268     0.3194   154.8800    19.2719    -0.0001
  486    9.700   2399.65    19.1596     0.0650     0.0966     0.0970    19.2004     0.3388   155.2000    19.0452     0.0000
  487    9.720   2400.69    18.9947     0.0670     0.0979     0.0972    19.0354     0.3525   155.5200    18.8799     0.0000
  488    9.740   2401.69    19.0372     0.0652     0.0967     0.0974    19.0779     0.3425   155.8400    18.9221     0.0000
  489    9.760   2402.69    19.0852     0.0637     0.0971     0.0976    19.1256     0.3333   156.1600    18.9694    -0.0001
  490    9.780   2403.68    18.8072     0.0640     0.0960     0.0978    18.8478     0.3392   156.4800    18.6913    -0.0001
  491    9.800   2404.67    18.3344     0.0638     0.0987     0.0980    18.3756     0.3466   156.8000    18.2188     0.0000
  492    9.820   2405.60    18.0440     0.0630     0.0981     0.0982    18.0852     0.3485   157.1200    17.9281     0.0000
  493    9.840   2406.60    17.9597     0.0580     0.0990     0.0984    18.0014     0.3231   157.4400    17.8439     0.0000
  494    9.860   2407.64    17.7093     0.0551     0.0993     0.0986    17.7509     0.3100   157.7600    17.5932     0.0000
  495    9.880   2408.62    17.5150     0.0535     0.0996     0.0988    17.5568     0.3051   158.0800    17.3988     0.0000
  496    9.900   2409.61    17.4704     0.0502     0.0997     0.0990    17.5122     0.2872   158.4000    17.3538     0.0000
  497    9.920   2410.58    17.4899     0.0487     0.1009     0.0992    17.5322     0.2775   158.7200    17.3735     0.0001
  498    9.940   2411.57    17.6337     0.0473     0.0986     0.0994    17.6749     0.2672   159.0400    17.5159    -0.0001
  499    9.960   2412.59    17.9265     0.0460     0.1003     0.0996    17.9685     0.2569   159.3600    17.8092     0.0000
  500    9.980   2413.60    18.2962     0.0464     0.1020     0.0998    18.3385     0.2540   159.6800    18.1788     0.0001
  501   10.000   2414.59    18.8698     0.0486     0.1018     0.1000    18.9127     0.2598   160.0000    18.7527     0.0001
  502   10.020   2420.83    19.3141     0.0552     0.0897     0.1002    19.3542     0.2866   160.3200    19.1938    -0.0002
  503   10.040   2439.08    19.4387     0.0651     0.0730     0.1004    19.4717     0.3375   160.6400    19.3111    -0.0011
  504   10.060   2457.32    19.5633     0.0736     0.0620     0.1006    19.5893     0.3792   160.9600    19.4283    -0.0020
  505   10.080   2460.68    19.5820     0.0866     0.0790     0.1008    19.6131     0.4423   161.2800    19.4518    -0.0014
  506   10.100   2461.59    19.4577     0.1052     0.0842     0.1010    19.4928     0.5398   161.6000    19.3312    -0.0009
  507   10.120   2462.62    19.2496     0.1231     0.0786     0.1012    19.2834     0.6374   161.9200    19.1214    -0.0011
  508   10.140   2463.63    18.8378     0.1343     0.0764     0.1014    18.8701     0.7095   162.2400    18.7078    -0.0013
  509   10.160   2464.60    18.0690     0.1467     0.0823     0.1016    18.1024     0.8087   162.5600    17.9398    -0.0012
  510   10.180   2465.59    16.8563     0.1657     0.0914     0.1018    16.8937     0.9584   162.8800    16.7308    -0.0008
  511   10.200   2466.57    15.4347     0.1784     0.0876     0.1020    15.4726     1.1208   163.2000    15.3094    -0.0008
  512   10.220   2467.58    14.2351     0.1722     0.0946     0.1022    14.2724     1.1893   163.5200    14.1089    -0.0009
  513   10.240   2468.53    13.2000     0.1588     0.1025     0.1024    13.2426     1.1899   163.8400    13.0787    -0.0001
  514   10.260   2469.59    13.1674     0.1469     0.1099     0.1026    13.2125     1.1216   164.1600    13.0484     0.0004
  515   10.280   2470.71    13.9354     0.1365     0.1085     0.1028    13.9815     0.9862   164.4800    13.8170     0.0005
  516   10.300   2471.80    17.0300     0.1261     0.1066     0.1030    17.0747     0.7918   164.8000    16.9099     0.0002
  517   10.320   2472.89    19.7705     0.1247     0.0525     0.1032    19.8024     0.6665   165.1200    19.6373    -0.0014
  518   10.340   2473.86    22.0999     0.1337    -0.0239     0.1034    22.0962     0.6312   165.4400    21.9307    -0.0051
  519   10.360   2474.87    23.5550     0.1461    -0.0804     0.1036    23.5305     0.6317   165.7600    23.3647    -0.0069
  520   10.380   2475.92    24.5856     0.1566    -0.0003     0.1038    24.5714     0.6463   166.0800    24.4053    -0.0056
  521   10.400   2476.97    25.4165     0.1793     0.0629     0.1040    25.4371     0.7133   166.4000    25.2707    -0.0022
  522   10.420   2478.07    26.3621     0.1980     0.0687     0.1042    26.3879     0.7629   166.7200    26.2212    -0.0016
  523   10.440   2479.10    27.3688     0.2089     0.0752     0.1044    27.4016     0.7754   167.0400    27.2345    -0.0010
  524   10.460   2480.06    28.4067     0.2147     0.0927     0.1046    28.4420     0.7694   167.3600    28.2747    -0.0007
  525   10.480   2481.12    29.5631     0.2234     0.0976     0.1048    29.6036     0.7686   167.6800    29.4359    -0.0003
  526   10.500   2482.18    30.5925     0.2276     0.0788     0.1050    30.6284     0.7448   168.0000    30.4604    -0.0006
  527   10.520   2483.25    31.1769     0.2269     0.0827     0.1052    31.2072     0.7282   168.3200    31.0389    -0.0011
  528   10.540   2484.25    31.3509     0.2198     0.0944     0.1054    31.3911     0.7010   168.6400    31.2225    -0.0003
  529   10.560   2485.24    31.0300     0.2175     0.0931     0.1056    31.0700     0.7004   168.9600    30.9011    -0.0003
  530   10.580   2486.26    30.4580     0.2118     0.0814     0.1058    30.4960     0.6937   169.2800    30.3267    -0.0005
  531   10.600   2487.20    29.7961     0.2026     0.0907     0.1060    29.8319     0.6773   169.6000    29.6623    -0.0007
  532   10.620   2488.27    28.7441     0.1878     0.0824     0.1062    28.7773     0.6476   169.9200    28.6074    -0.0009
  533   10.640   2489.27    27.5634     0.1741     0.0902     0.1064    27.5952     0.6226   170.2400    27.4250    -0.0011
  534   10.660   2490.28    25.9198     0.1570     0.0928     0.1066    25.9576     0.5941   170.5600    25.7871    -0.0006
  535   10.680   2491.28    24.0490     0.1439     0.0952     0.1068    24.0904     0.5827   170.8800    23.9195    -0.0003
  536   10.700   2492.20    22.1312     0.1273     0.1036     0.1070    22.1718     0.5625   171.2000    22.0006    -0.0005
  537   10.720   2493.14    20.2274     0.1065     0.0922     0.1072    20.2671     0.5158   171.5200    20.0956    -0.0006
  538   10.740   2494.12    18.4314     0.0842     0.0953     0.1074    18.4716     0.4471   171.8400    18.2998    -0.0006
  539   10.760   2495.07    16.5567     0.0597     0.0886     0.1076    16.5953     0.3530   172.1600    16.4231    -0.0010
  540   10.780   2496.08    14.7047     0.0456     0.0887     0.1078    14.7421     0.3058   172.4800    14.5696    -0.0013
  541   10.800   2497.08    12.9476     0.0375     0.0954     0.1080    12.9870     0.2790   172.8000    12.8142    -0.0011
  542   10.820   2498.09    11.4039     0.0376     0.0966     0.1082    11.4437     0.3120   173.1200    11.2706    -0.0012
  543   10.840   2499.02    10.0434     0.0372     0.1053     0.1084    10.0870     0.3558   173.4400     9.9135    -0.0005
  544   10.860   2500.03     8.7024     0.0370     0.1073     0.1086     8.7472     0.4115   173.7600     8.5734    -0.0002
  545   10.880   2501.08     7.9473     0.0390     0.1117     0.1088     7.9937     0.4808   174.0800     7.8197     0.0002
  546   10.900   2502.15     7.4926     0.0427     0.1126     0.1090     7.5396     0.5654   174.4000     7.3652     0.0004
  547   10.920   2503.27     7.4196     0.0453     0.1138     0.1092     7.4675     0.6118   174.7200     7.2928     0.0007
  548   10.940   2504.38     7.3835     0.0488     0.1089     0.1094     7.4305     0.6601   175.0400     7.2554     0.0003
  549   10.960   2505.33     7.2153     0.0512     0.0887     0.1096     7.2590     0.7029   175.3600     7.0836    -0.0008
  550   10.980   2506.36     6.9731     0.0526     0.0728     0.1098     7.0089     0.7429   175.6800     6.8332    -0.0036
  551   11.000   2507.43     6.7791     0.0516     0.0577     0.1100     6.8046     0.7564   176.0000     6.6286    -0.0075
  552   11.020   2508.52     6.6543     0.0552     0.0673     0.1102     6.6802     0.8254   176.3200     6.5039    -0.0075
  553   11.040   2509.60     6.5340     0.0598     0.1090     0.1104     6.5762     0.9120   176.6400     6.3995    -0.0016
  554   11.060   2510.66     6.4390     0.0642     0.1006     0.1106     6.4846     0.9920   176.9600     6.3076    -0.0003
  555   11.080   2511.65     6.3394     0.0596     0.0681     0.1108     6.3725     0.9357   177.2800     6.1952    -0.0052
  556   11.100   2512.72     6.4192     0.0657     0.0796     0.1110     6.4468     1.0330   177.6000     6.2692    -0.0072
  557   11.120   2513.79     6.6278     0.0680     0.0997     0.1112     6.6698     1.0354   177.9200     6.4919    -0.0017
  558   11.140   2514.83     6.9576     0.0721     0.0667     0.1114     6.9978     1.0588   178.2400     6.8195    -0.0023
  559   11.160   2515.84     7.3907     0.0759    -0.0133     0.1116     7.4015     1.0431   178.5600     7.2229    -0.0119
  560   11.180   2516.90     7.5919     0.0785    -0.0027     0.1118     7.5947     1.0405   178.8800     7.4158    -0.0142
  561   11.200   2517.96     7.6175     0.0784    -0.0409     0.1120     7.6098     1.0281   179.2000     7.4307    -0.0175
  562   11.220   2519.05     7.4902     0.0769    -0.0490     0.1122     7.4682     1.0206   179.5200     7.2887    -0.0226
  563   11.240   2520.10     7.3991     0.0740    -0.0045     0.1124     7.3898     0.9971   179.8400     7.2099    -0.0187
  564   11.260   2521.13     7.3378     0.0699     0.0424     0.1126     7.3479     0.9494   180.1600     7.1678    -0.0123
  565   11.280   2522.21     7.1495     0.0685     0.0629     0.1128     7.1762     0.9439   180.4800     6.9957    -0.0070
  566   11.300   2523.22     6.8901     0.0644     0.0608     0.1130     6.9162     0.9227   180.8000     6.7354    -0.0075
  567   11.320   2524.24     6.6867     0.0616     0.0733     0.1132     6.7153     0.9130   181.1200     6.5342    -0.0069
  568   11.340   2525.33     6.4655     0.0598     0.0884     0.1134     6.5001     0.9072   181.4400     6.3187    -0.0049
  569   11.360   2526.34     5.9832     0.0599     0.0956     0.1136     6.0225     0.9692   181.7600     5.8407    -0.0034
  570   11.380   2527.39     5.2672     0.0570     0.0911     0.1138     5.3048     1.0333   182.0800     5.1227    -0.0047
  571   11.400   2528.41     4.5821     0.0550     0.0915     0.1140     4.6194     1.1399   182.4000     4.4370    -0.0057
  572   11.420   2529.43     3.9107     0.0509     0.1116     0.1142     3.9529     1.2219   182.7200     3.7702    -0.0035
  573   11.440   2530.45     3.3336     0.0495     0.1359     0.1144     3.3885     1.3892   183.0400     3.2055     0.0051
  574   11.460   2531.48     2.8583     0.0457     0.2281     0.1146     2.9394     1.4986   183.3600     2.7560     0.0288
  575   11.480   2532.58     2.4162     0.0390     0.3072     0.1148     2.5379     1.6035   183.6800     2.3542     0.0747
  576   11.500   2533.64     2.0647     0.0321     0.3251     0.1150     2.1994     1.4880   184.0000     2.0154     0.1022
  577   11.520   2534.63     1.7170     0.0272     0.3395     0.1152     1.8548     1.4659   184.3200     1.6705     0.1275
  578   11.540   2535.62     1.4620     0.0272     0.3976     0.1154     1.6216     1.7506   184.6400     1.4369     0.1846
  579   11.560   2536.64     1.4112     0.0291     0.4502     0.1156     1.5950     2.0756   184.9600     1.4100     0.2284
  580   11.580   2537.69     1.6062     0.0274     0.4291     0.1158     1.7876     1.8227   185.2800     1.6023     0.1977
  581   11.600   2538.74     1.8231     0.0278     0.4418     0.1160     2.0060     1.5896   185.6000     1.8204     0.1756
  582   11.620   2539.82     2.0108     0.0295     0.4259     0.1162     2.1915     1.4701   185.9200     2.0056     0.1566
  583   11.640   2540.83     2.0011     0.0304     0.4708     0.1164     2.1991     1.5063   186.2400     2.0129     0.1764
  584   11.660   2541.86     1.9907     0.0332     0.4753     0.1166     2.1903     1.6664   186.5600     2.0037     0.1789
  585   11.680   2542.91     1.9500     0.0354     0.4484     0.1168     2.1443     1.7954   186.8800     1.9575     0.1768
  586   11.700   2543.93     1.8676     0.0360     0.4522     0.1170     2.0481     1.8821   187.2000     1.8609     0.1682
  587   11.720   2544.93     1.7820     0.0389     0.5199     0.1172     1.9953     2.1467   187.5200     1.8078     0.2162
  588   11.740   2545.96     1.7446     0.0405     0.5128     0.1174     1.9555     2.3046   187.8400     1.7677     0.2177
  589   11.760   2547.04     1.7053     0.0420     0.5791     0.1176     1.9405     2.4333   188.1600     1.7524     0.2526
  590   11.780   2548.07     1.6717     0.0429     0.6133     0.1178     1.9234     2.5355   188.4800     1.7349     0.2775
  591   11.800   2549.10     1.6580     0.0436     0.5936     0.1180     1.9128     2.6155   188.8000     1.7240     0.2834
  592   11.820   2550.14     1.6185     0.0435     0.5958     0.1182     1.8670     2.6677   189.1200     1.6778     0.2821
  593   11.840   2551.13     1.5658     0.0418     0.5717     0.1184     1.8087     2.6594   189.4400     1.6193     0.2840
  594   11.860   2552.14     1.4699     0.0402     0.5756     0.1186     1.7109     2.6512   189.7600     1.5212     0.2993
  595   11.880   2553.67     1.3894     0.0395     0.5967     0.1188     1.6361     2.8125   190.0800     1.4460     0.3242
  596   11.900   2556.14     1.3706     0.0396     0.6234     0.1190     1.6285     2.8372   190.4000     1.4381     0.3445
  597   11.920   2558.60     1.3518     0.0419     0.6419     0.1192     1.6210     3.0834   190.7200     1.4303     0.3647
  598   11.940   2570.00     1.3969     0.0444     0.6384     0.1194     1.6655     3.2882   191.0400     1.4744     0.3534
  599   11.960   2582.11     1.4470     0.0438     0.6349     0.1196     1.7141     3.2447   191.3600     1.5228     0.3396
  600   11.980   2588.83     1.4970     0.0444     0.6265     0.1198     1.7597     3.0099   191.6800     1.5680     0.3225
  601   12.000   2589.83     1.5133     0.0469     0.6047     0.1200     1.7690     3.1068   192.0000     1.5770     0.3099
  602   12.020   2590.86     1.5092     0.0500     0.6605     0.1202     1.7804     3.3100   192.3200     1.5880     0.3308
  603   12.040   2591.88     1.5550     0.0520     0.6972     0.1204     1.8424     3.4096   192.6400     1.6498     0.3418
  604   12.060   2592.93     1.6591     0.0504     0.6398     0.1206     1.9395     3.1368   192.9600     1.7465     0.3133
  605   12.080   2593.94     1.7607     0.0524     0.5644     0.1208     2.0011     3.0398   193.2800     1.8078     0.2498
  606   12.100   2595.01     1.7775     0.0558     0.5750     0.1210     2.0161     3.1406   193.6000     1.8225     0.2454
  607   12.120   2595.99     1.7753     0.0575     0.5604     0.1212     2.0066     3.2384   193.9200     1.8127     0.2369
  608   12.140   2597.03     1.7017     0.0583     0.5664     0.1214     1.9457     3.3572   194.2400     1.7515     0.2623
  609   12.160   2598.06     1.6531     0.0519     0.6016     0.1216     1.9005     3.1053   194.5600     1.7059     0.2741
  610   12.180   2599.10     1.6137     0.0487     0.6204     0.1218     1.8731     2.9860   194.8800     1.6782     0.2955
  611   12.200   2600.13     1.6221     0.0508     0.6431     0.1220     1.8861     3.1534   195.2000     1.6909     0.2995
  612   12.220   2601.13     1.6483     0.0506     0.6595     0.1222     1.9244     3.0999   195.5200     1.7289     0.3096
  613   12.240   2602.19     1.6936     0.0504     0.6861     0.1224     1.9807     3.0001   195.8400     1.7849     0.3144
  614   12.260   2603.24     1.7699     0.0495     0.6091     0.1226     2.0351     2.9179   196.1600     1.8389     0.2769
  615   12.280   2604.27     1.8315     0.0523     0.5494     0.1228     2.0614     2.8757   196.4800     1.8649     0.2277
  616   12.300   2605.27     1.7908     0.0562     0.6002     0.1230     2.0390     3.0737   196.8000     1.8422     0.2540
  617   12.320   2606.24     1.7852     0.0539     0.6176     0.1232     2.0403     3.0447   197.1200     1.8431     0.2626
  618   12.340   2607.29     1.7914     0.0515     0.6214     0.1234     2.0492     2.8698   197.4400     1.8518     0.2649
  619   12.360   2608.34     1.7469     0.0521     0.6311     0.1236     2.0113     2.9396   197.7600     1.8135     0.2790
  620   12.380   2609.42     1.6922     0.0506     0.6746     0.1238     1.9705     2.9410   198.0800     1.7724     0.3041
  621   12.400   2610.48     1.6468     0.0500     0.7091     0.1240     1.9369     3.0104   198.4000     1.7385     0.3259
  622   12.420   2611.51     1.6089     0.0490     0.6875     0.1242     1.9076     3.0290   198.7200     1.7089     0.3435
  623   12.440   2612.57     1.5869     0.0493     0.6918     0.1244     1.8729     3.0611   199.0400     1.6739     0.3326
  624   12.460   2613.60     1.5083     0.0486     0.7364     0.1246     1.8117     3.1498   199.3600     1.6123     0.3708
  625   12.480   2614.59     1.4094     0.0468     0.7677     0.1248     1.7283     3.2265   199.6800     1.5286     0.4151
  626   12.500   2615.64     1.3331     0.0419     0.7922     0.1250     1.6611     3.0798   200.0000     1.4611     0.4489
  627   12.520   2616.69     1.2851     0.0421     0.8211     0.1252     1.6245     3.2568   200.3200     1.4241     0.4795
  628   12.540   2617.72     1.3343     0.0440     0.8757     0.1254     1.6949     3.4063   200.6400     1.4943     0.4907
  629   12.560   2618.78     1.5178     0.0435     0.8900     0.1256     1.8898     3.0302   200.9600     1.6889     0.4502
  630   12.580   2619.79     1.6703     0.0444     0.8349     0.1258     2.0368     2.7462   201.2800     1.8355     0.4069
  631   12.600   2620.85     1.7811     0.0483     0.7434     0.1260     2.0969     2.7984   201.6000     1.8953     0.3302
  632   12.620   2621.87     1.7389     0.0516     0.7707     0.1262     2.0475     2.9301   201.9200     1.8456     0.3298
  633   12.640   2622.88     1.6916     0.0530     0.7828     0.1264     2.0144     3.1045   202.2400     1.8121     0.3543
  634   12.660   2623.94     1.6805     0.0522     0.7837     0.1266     2.0058     3.1089   202.5600     1.8032     0.3592
  635   12.680   2624.91     1.6895     0.0509     0.7834     0.1268     2.0169     3.0211   202.8800     1.8140     0.3599
  636   12.700   2625.98     1.6882     0.0495     0.8118     0.1270     2.0214     2.9284   203.2000     1.8182     0.3664
  637   12.720   2627.01     1.6806     0.0468     0.8333     0.1272     2.0326     2.7735   203.5200     1.8291     0.3888
  638   12.740   2628.08     1.6836     0.0464     0.8328     0.1274     2.0316     2.7660   203.8400     1.8278     0.3836
  639   12.760   2629.10     1.6808     0.0439     0.8563     0.1276     2.0398     2.5994   204.1600     1.8356     0.3961
  640   12.780   2630.13     1.6578     0.0457     0.8907     0.1278     2.0258     2.7291   204.4800     1.8213     0.4109
  641   12.800   2631.16     1.6813     0.0477     0.8891     0.1280     2.0541     2.8585   204.8000     1.8493     0.4107
  642   12.820   2632.19     1.7347     0.0481     0.8758     0.1282     2.1129     2.8109   205.1200     1.9078     0.4049
  643   12.840   2633.24     1.8057     0.0488     0.8232     0.1284     2.1461     2.7267   205.4400     1.9407     0.3516
  644   12.860   2634.28     1.8075     0.0515     0.7787     0.1286     2.1425     2.8634   205.7600     1.9367     0.3454
  645   12.880   2635.33     1.8095     0.0521     0.7789     0.1288     2.1374     2.8736   206.0800     1.9313     0.3375
  646   12.900   2636.36     1.7650     0.0529     0.7657     0.1290     2.0926     2.9723   206.4000     1.8862     0.3452
  647   12.920   2637.42     1.7605     0.0526     0.7480     0.1292     2.0718     2.9719   206.7200     1.8651     0.3282
  648   12.940   2638.46     1.7036     0.0527     0.7525     0.1294     2.0144     3.0485   207.0400     1.8074     0.3378
  649   12.960   2639.48     1.6686     0.0516     0.7810     0.1296     1.9923     3.0734   207.3600     1.7850     0.3593
  650   12.980   2640.51     1.6047     0.0494     0.8088     0.1298     1.9478     3.0309   207.6800     1.7402     0.3949
  651   13.000   2641.54     1.5609     0.0466     0.7850     0.1300     1.8905     2.9536   208.0000     1.6825     0.3892
  652   13.020   2642.55     1.5143     0.0443     0.7984     0.1302     1.8435     2.8822   208.3200     1.6352     0.3998
  653   13.040   2643.60     1.4659     0.0440     0.8606     0.1304     1.8164     2.9781   208.6400     1.6077     0.4379
  654   13.060   2644.65     1.4723     0.0463     0.8889     0.1306     1.8421     3.1599   208.9600     1.6331     0.4592
  655   13.080   2645.70     1.5093     0.0431     0.8843     0.1308     1.8813     2.9090   209.2800     1.6720     0.4516
  656   13.100   2646.71     1.5767     0.0399     0.8689     0.1310     1.9465     2.5811   209.6000     1.7369     0.4315
  657   13.120   2647.74     1.6178     0.0378     0.8230     0.1312     1.9728     2.3395   209.9200     1.7628     0.4050
  658   13.140   2648.79     1.6125     0.0408     0.8049     0.1314     1.9473     2.5293   210.2400     1.7370     0.3833
  659   13.160   2649.80     1.6399     0.0436     0.8541     0.1316     1.9886     2.6824   210.5600     1.7781     0.3929
  660   13.180   2650.86     1.7178     0.0453     0.8619     0.1318     2.0909     2.7082   210.8800     1.8801     0.4026
  661   13.200   2651.87     1.8460     0.0455     0.8093     0.1320     2.1994     2.5151   211.2000     1.9882     0.3569
  662   13.220   2652.90     1.9076     0.0426     0.6939     0.1322     2.2092     2.2453   211.5200     1.9977     0.2932
  663   13.240   2653.99     1.8497     0.0412     0.7075     0.1324     2.1380     2.1957   211.8400     1.9262     0.2877
  664   13.260   2655.02     1.7739     0.0438     0.7485     0.1326     2.0797     2.4234   212.1600     1.8675     0.3189
  665   13.280   2656.07     1.6886     0.0449     0.7929     0.1328     2.0162     2.6287   212.4800     1.8038     0.3588
  666   13.300   2657.06     1.6921     0.0459     0.8111     0.1330     2.0314     2.7207   212.8000     1.8186     0.3710
  667   13.320   2658.07     1.7137     0.0438     0.8187     0.1332     2.0608     2.5775   213.1200     1.8477     0.3752
  668   13.340   2659.14     1.8334     0.0475     0.7520     0.1334     2.1576     2.6650   213.4400     1.9442     0.3285
  669   13.360   2660.17     1.8528     0.0501     0.7041     0.1336     2.1568     2.6742   213.7600     1.9431     0.3038
  670   13.380   2661.25     1.7969     0.0533     0.6767     0.1338     2.0867     2.9364   214.0800     1.8726     0.2970
  671   13.400   2662.31     1.7371     0.0516     0.6754     0.1340     2.0218     2.9296   214.4000     1.8074     0.3009
  672   13.420   2663.34     1.6667     0.0477     0.6253     0.1342     1.9402     2.8009   214.7200     1.7255     0.2996
  673   13.440   2664.32     1.5912     0.0425     0.6943     0.1344     1.8701     2.5979   215.0400     1.6551     0.3201
  674   13.460   2665.37     1.4807     0.0419     0.7313     0.1346     1.7837     2.7606   215.3600     1.5684     0.3743
  675   13.480   2666.41     1.3832     0.0377     0.7478     0.1348     1.6956     2.6424   215.6800     1.4799     0.4116
  676   13.500   2667.42     1.3235     0.0336     0.7708     0.1350     1.6464     2.4984   216.0000     1.4304     0.4432
  677   13.520   2668.51     1.3137     0.0331     0.7748     0.1352     1.6389     2.5155   216.3200     1.4225     0.4492
  678   13.540   2669.51     1.2940     0.0316     0.7705     0.1354     1.6190     2.4294   216.6400     1.4023     0.4551
  679   13.560   2670.60     1.3067     0.0324     0.7811     0.1356     1.6343     2.4948   216.9600     1.4174     0.4546
  680   13.580   2671.61     1.3402     0.0356     0.7646     0.1358     1.6658     2.6901   217.2800     1.4485     0.4415
  681   13.600   2672.60     1.4134     0.0324     0.6982     0.1360     1.7158     2.3440   217.6000     1.4982     0.3900
  682   13.620   2673.68     1.4994     0.0271     0.7023     0.1362     1.7921     1.8594   217.9200     1.5742     0.3563
  683   13.640   2674.70     1.6957     0.0325     0.6905     0.1364     1.9847     2.0019   218.2400     1.7665     0.3126
  684   13.660   2675.76     1.9618     0.0439     0.6796     0.1366     2.2474     2.3571   218.5600     2.0288     0.2679
  685   13.680   2676.77     2.3409     0.0575     0.6461     0.1368     2.6193     2.5775   218.8800     2.4004     0.2192
  686   13.700   2677.78     3.0216     0.0762     0.4661     0.1370     3.2515     2.6892   219.2000     3.0323     0.1354
  687   13.720   2678.91     4.3107     0.0953     0.2970     0.1372     4.4441     2.4473   219.5200     4.2246     0.0430
  688   13.740   2679.89     5.5419     0.1063     0.1331     0.1374     5.6292     2.0484   219.8400     5.4093     0.0133
  689   13.760   2681.04     6.4707     0.1040    -0.0095     0.1376     6.4863     1.6729   220.1600     6.2661    -0.0160
  690   13.780   2682.08     7.0634     0.0967    -0.1452     0.1378     7.0205     1.4082   220.4800     6.8001    -0.0352
  691   13.800   2683.11     7.3247     0.0930    -0.2017     0.1380     7.2431     1.2807   220.8000     7.0223    -0.0473
  692   13.820   2684.17     7.2852     0.0920    -0.2020     0.1382     7.1991     1.3042   221.1200     6.9780    -0.0492
  693   13.840   2685.20     6.7964     0.0882    -0.1994     0.1384     6.7152     1.2973   221.4400     6.4937    -0.0511
  694   13.860   2686.23     5.8751     0.0961    -0.2242     0.1386     5.7833     1.5967   221.7600     5.5616    -0.0643
  695   13.880   2687.32     4.6142     0.1071    -0.2366     0.1388     4.5166     2.2051   222.0800     4.2945    -0.0865
  696   13.900   2688.37     3.5768     0.0941    -0.2577     0.1390     3.4687     2.4910   222.4000     3.2463    -0.1224
  697   13.920   2697.04     2.7956     0.0849    -0.1422     0.1392     2.7166     3.0922   222.7200     2.4939    -0.1341
  698   13.940   2713.65     2.8997     0.0820    -0.0092     0.1394     2.8766     2.9866   223.0400     2.6536    -0.0767
  699   13.960   2725.20     2.8323     0.0744     0.1172     0.1396     2.8647     2.6628   223.3600     2.6413    -0.0235
  700   13.980   2726.24     2.5708     0.0656     0.1554     0.1398     2.6387     2.4419   223.6800     2.4150     0.0091
  701   14.000   2727.22     2.2618     0.0556     0.1034     0.1400     2.3152     2.3395   224.0000     2.0912    -0.0062
  702   14.020   2728.27     1.9630     0.0455     0.1313     0.1402     2.0154     2.1757   224.3200     1.7911    -0.0084
  703   14.040   2729.29     1.6150     0.0427     0.2559     0.1404     1.6988     2.4237   224.6400     1.4741     0.0401
  704   14.060   2730.36     1.5067     0.0342     0.3793     0.1406     1.6475     2.2591   224.9600     1.4226     0.1368
  705   14.080   2731.31     1.4990     0.0234     0.4446     0.1408     1.6798     1.5666   225.2800     1.4545     0.1991
  706   14.100   2732.39     1.5485     0.0180     0.4513     0.1410     1.7371     1.1863   225.6000     1.5115     0.2038
  707   14.120   2733.43     1.5107     0.0174     0.4725     0.1412     1.7051     1.1278   225.9200     1.4792     0.2176
  708   14.140   2734.49     1.3185     0.0161     0.5245     0.1414     1.5313     1.1393   226.2400     1.3051     0.2802
  709   14.160   2735.46     1.2378     0.0169     0.5598     0.1416     1.4694     1.3448   226.5600     1.2428     0.3297
  710   14.180   2736.47     1.2344     0.0176     0.5998     0.1418     1.4772     1.4242   226.8800     1.2504     0.3490
  711   14.200   2737.49     1.2573     0.0186     0.6054     0.1420     1.5158     1.5009   227.2000     1.2886     0.3676
  712   14.220   2738.57     1.3391     0.0184     0.5729     0.1422     1.5882     1.4112   227.5200     1.3606     0.3314
  713   14.240   2739.64     1.3578     0.0171     0.5356     0.1424     1.5856     1.2520   227.8400     1.3578     0.2947
  714   14.260   2740.68     1.2815     0.0175     0.5516     0.1426     1.5069     1.3320   228.1600     1.2788     0.3083
  715   14.280   2741.67     1.2054     0.0347     0.6308     0.1428     1.4572     2.8580   228.4800     1.2287     0.3716
  716   14.300   2742.68     1.2197     0.0553     0.6589     0.1430     1.4953     4.6006   228.8000     1.2665     0.4052
  717   14.320   2743.69     1.3472     0.0542     0.6421     0.1432     1.6171     4.1515   229.1200     1.3880     0.3601
  718   14.340   2744.77     1.4561     0.0536     0.6062     0.1434     1.7187     3.7626   229.4400     1.4892     0.3236
  719   14.360   2745.83     1.5401     0.0534     0.5353     0.1436     1.7776     3.4978   229.7600     1.5479     0.2725
  720   14.380   2823.98     1.4735     0.0505     0.4094     0.1438     1.6680     3.9632   230.0800     1.4379     0.2260
  721   14.400   3006.49     1.6278     0.0462     0.2625     0.1440     1.7570     3.6228   230.4000     1.5266     0.1102
  722   14.420   3064.75     1.4812     0.0383     0.3908     0.1442     1.6288     2.4420   230.7200     1.3981     0.1491
  723   14.440   3065.83     1.3224     0.0307     0.4934     0.1444     1.5120     2.2425   231.0400     1.2810     0.2399
  724   14.460   3066.81     1.2579     0.0281     0.5727     0.1446     1.4912     2.2095   231.3600     1.2599     0.3262
  725   14.480   3067.81     1.2809     0.0258     0.5966     0.1448     1.5274     2.0489   231.6800     1.2958     0.3413
  726   14.500   3068.91     1.3099     0.0227     0.6220     0.1450     1.5706     1.7499   232.0000     1.3386     0.3553
  727   14.520   3069.97     1.3740     0.0223     0.6067     0.1452     1.6338     1.6570   232.3200     1.4015     0.3377
  728   14.540   3071.06     1.3827     0.0231     0.5812     0.1454     1.6243     1.6736   232.6400     1.3917     0.3090
  729   14.560   3072.02     1.3319     0.0231     0.6172     0.1456     1.5846     1.6933   232.9600     1.3516     0.3374
  730   14.580   3073.03     1.3420     0.0243     0.6443     0.1458     1.6073     1.8389   233.2800     1.3740     0.3537
  731   14.600   3074.09     1.3648     0.0240     0.6483     0.1460     1.6387     1.7633   233.6000     1.4051     0.3602
  732   14.620   3075.12     1.4343     0.0273     0.6514     0.1462     1.7076     1.9487   233.9200     1.4737     0.3423
  733   14.640   3076.18     1.5559     0.0304     0.6100     0.1464     1.8205     2.0398   234.2400     1.5863     0.3053
  734   14.660   3077.19     1.6909     0.0294     0.5599     0.1466     1.9343     1.7930   234.5600     1.6997     0.2547
  735   14.680   3078.15     1.7424     0.0333     0.5069     0.1468     1.9620     1.9191   234.8800     1.7271     0.2177
  736   14.700   3079.19     1.7162     0.0338     0.5150     0.1470     1.9260     1.9457   235.2000     1.6908     0.2087
  737   14.720   3080.29     1.5763     0.0335     0.5129     0.1472     1.7932     2.0506   235.5200     1.5577     0.2371
  738   14.740   3081.34     1.4897     0.0339     0.5239     0.1474     1.7035     2.2298   235.8400     1.4677     0.2465
  739   14.760   3082.30     1.3845     0.0319     0.5717     0.1476     1.6214     2.2383   236.1600     1.3852     0.3007
  740   14.780   3083.39     1.3371     0.0296     0.6453     0.1478     1.5964     2.1685   236.4800     1.3599     0.3454
  741   14.800   3084.40     1.3135     0.0284     0.6673     0.1480     1.5916     2.1605   236.8000     1.3548     0.3795
  742   14.820   3085.47     1.3153     0.0222     0.6679     0.1482     1.5940     1.7065   237.1200     1.3569     0.3799
  743   14.840   3086.51     1.2971     0.0144     0.6925     0.1484     1.5836     1.1021   237.4400     1.3462     0.3965
  744   14.860   3087.52     1.2710     0.0110     0.7156     0.1486     1.5706     0.8642   237.7600     1.3329     0.4237
  745   14.880   3088.50     1.2983     0.0155     0.7360     0.1488     1.6058     1.2036   238.0800     1.3677     0.4265
  746   14.900   3089.53     1.4126     0.0208     0.8003     0.1490     1.7343     1.5347   238.4000     1.4959     0.4129
  747   14.920   3090.62     2.2218     0.0376     0.8289     0.1492     2.5738     2.1594   238.7200     2.3351     0.3007
  748   14.940   3091.70     3.9863     0.0619     0.4938     0.1494     4.2500     1.8613   239.0400     4.0110     0.1215
  749   14.960   3092.76     4.5680     0.0768     0.1326     0.1496     4.6727     1.6747   239.3600     4.4334     0.0219
  750   14.980   3093.81     3.8372     0.0812     0.0406     0.1498     3.8507     1.9426   239.6800     3.6111    -0.0325
  751   15.000   3094.80     3.2072     0.0850     0.0693     0.1500     3.2272     2.4811   240.0000     2.9872    -0.0343
  752   15.020   3095.79     2.6671     0.0848     0.1684     0.1502     2.7322     2.9061   240.3200     2.4918     0.0024
  753   15.040   3096.84     2.1587     0.0778     0.1830     0.1504     2.2140     3.3093   240.6400     1.9734    -0.0099
  754   15.060   3097.94     1.8365     0.0675     0.4151     0.1506     1.9878     3.4976   240.9600     1.7468     0.1203
  755   15.080   3098.96     1.7033     0.0486     0.4561     0.1508     1.8866     2.8336   241.2800     1.6453     0.1736
  756   15.100   3099.97     1.6167     0.0408     0.5890     0.1510     1.8473     2.4800   241.6000     1.6057     0.2479
  757   15.120   3100.98     1.7067     0.0321     0.5804     0.1512     1.9568     1.9620   241.9200     1.7148     0.2591
  758   15.140   3102.02     1.6838     0.0285     0.5825     0.1514     1.9251     1.6494   242.2400     1.6829     0.2515
  759   15.160   3103.00     1.7131     0.0324     0.5832     0.1516     1.9583     1.8926   242.5600     1.7158     0.2520
  760   15.180   3104.13     1.9193     0.0425     0.5467     0.1518     2.1555     2.3196   242.8800     1.9126     0.2149
  761   15.200   3105.13     2.1728     0.0471     0.5731     0.1520     2.4111     2.2571   243.2000     2.1679     0.1918
  762   15.220   3106.17     2.6060     0.0600     0.3816     0.1522     2.7997     2.4940   243.5200     2.5562     0.1218
  763   15.240   3107.18     3.1216     0.0688     0.1982     0.1524     3.2193     2.3529   243.8400     2.9754     0.0271
  764   15.260   3108.26     3.2462     0.0708     0.1820     0.1526     3.3221     2.1789   244.1600     3.0779     0.0091
  765   15.280   3109.32     2.9695     0.0693     0.1688     0.1528     3.0487     2.2203   244.4800     2.8042     0.0127
  766   15.300   3110.34     2.5913     0.0697     0.1953     0.1530     2.6654     2.5650   244.8000     2.4206     0.0099
  767   15.320   3111.37     2.3959     0.0609     0.1802     0.1532     2.4690     2.4710   245.1200     2.2239     0.0092
  768   15.340   3112.30     2.3340     0.0626     0.3172     0.1534     2.4485     2.6507   245.4400     2.2030     0.0541
  769   15.360   3113.42     2.5389     0.0721     0.3334     0.1536     2.6988     2.9501   245.7600     2.4530     0.0924
  770   15.380   3114.51     2.7824     0.0662     0.2172     0.1538     2.8862     2.4649   246.0800     2.6401     0.0354
  771   15.400   3115.58     2.9089     0.0585     0.2014     0.1540     2.9971     2.0071   246.4000     2.7507     0.0203
  772   15.420   3116.61     2.6871     0.0581     0.2138     0.1542     2.7671     2.0885   246.7200     2.5204     0.0145
  773   15.440   3117.57     2.4582     0.0683     0.3607     0.1544     2.5941     2.6723   247.0400     2.3471     0.0721
  774   15.460   3118.63     2.3491     0.0668     0.4601     0.1546     2.5322     2.7821   247.3600     2.2848     0.1231
  775   15.480   3119.63     2.3479     0.0631     0.5225     0.1548     2.5669     2.7176   247.6800     2.3192     0.1581
  776   15.500   3120.70     2.4825     0.0593     0.4093     0.1550     2.6669     2.4460   248.0000     2.4189     0.1174
  777   15.520   3121.72     2.3730     0.0659     0.3273     0.1552     2.5107     2.6897   248.3200     2.2624     0.0764
  778   15.540   3122.75     2.2121     0.0641     0.3924     0.1554     2.3603     2.8327   248.6400     2.1117     0.0937
  779   15.560   3123.84     2.0728     0.0545     0.4828     0.1556     2.2692     2.5808   248.9600     2.0202     0.1545
  780   15.580   3124.85     1.9409     0.0390     0.4722     0.1558     2.1336     1.9353   249.2800     1.8843     0.1609
  781   15.600   3125.85     1.7080     0.0485     0.6591     0.1560     1.9595     2.7669   249.6000     1.7099     0.2590
  782   15.620   3126.84     2.0238     0.0488     0.8682     0.1562     2.3520     2.6718   249.9200     2.1021     0.2972
  783   15.640   3127.95     3.7227     0.0615     0.8234     0.1564     4.1093     1.8618   250.2400     3.8590     0.2006
  784   15.660   3129.05     6.6732     0.0856     0.1909     0.1566     6.8578     1.4662   250.5600     6.6073     0.0431
  785   15.680   3130.13     7.6552     0.1098    -0.0678     0.1568     7.6357     1.4450   250.8800     7.3849    -0.0276
  786   15.700   3132.57     5.9002     0.1227    -0.0321     0.1570     5.9018     1.8746   251.2000     5.6506    -0.0271
  787   15.720   3133.60     5.1890     0.1327    -0.0485     0.1572     5.1669     2.3591   251.5200     4.9154    -0.0428
  788   15.740   3134.70     4.2335     0.1321     0.0399     0.1574     4.2276     2.9644   251.8400     3.9758    -0.0429
  789   15.760   3138.29     3.7005     0.1170     0.2295     0.1576     3.7771     3.2800   252.1600     3.5250     0.0069
  790   15.780   3139.32     3.2909     0.1003     0.2956     0.1578     3.3966     2.8665   252.4800     3.1442     0.0302
  791   15.800   3140.38     2.7864     0.0869     0.2631     0.1580     2.9155     2.9906   252.8000     2.6627     0.0558
  792   15.820   3141.36     2.6284     0.0745     0.3063     0.1582     2.7413     2.8047   253.1200     2.4881     0.0445
  793   15.840   3142.49     2.4292     0.0866     0.4652     0.1584     2.5993     3.4447   253.4400     2.3459     0.1052
  794   15.860   3143.58     2.6000     0.0875     0.5744     0.1586     2.8268     3.2639   253.7600     2.5730     0.1482
  795   15.880   3144.51     2.8745     0.0856     0.4496     0.1588     3.1056     2.9934   254.0800     2.8515     0.1373
  796   15.900   3145.54     3.2952     0.0883     0.2870     0.1590     3.4521     2.7202   254.4000     3.1977     0.0672
  797   15.920   3146.66     3.4266     0.1083     0.2251     0.1592     3.5329     3.1983   254.7200     3.2782     0.0288
  798   15.940   3147.73     3.7953     0.1107     0.4372     0.1594     3.9223     2.9829   255.0400     3.6672     0.0387
  799   15.960   3162.59     3.7474     0.1086     0.1723     0.1596     3.8581     2.9487   255.3600     3.6027     0.0286
  800   15.980   3183.30     3.8417     0.0997    -0.0501     0.1598     3.8412     2.6904   255.6800     3.5855    -0.0449
  801   16.000   3184.55     3.0779     0.0887    -0.0104     0.1600     3.0489     2.6324   256.0000     2.7929    -0.0818
  802   16.020   3185.53     2.4570     0.0756     0.1103     0.1602     2.4900     2.8022   256.3200     2.2337    -0.0363
  803   16.040   3186.61     1.9984     0.0691     0.3465     0.1604     2.1217     3.1790   256.6400     1.8650     0.0713
  804   16.060   3187.69     1.8598     0.0550     0.4434     0.1606     2.0455     2.9051   256.9600     1.7885     0.1575
  805   16.080   3188.64     1.6627     0.0416     0.6050     0.1608     1.9117     2.3962   257.2800     1.6544     0.2611
  806   16.100   3189.74     1.6753     0.0331     0.7278     0.1610     1.9717     2.0111   257.6000     1.7141     0.3177
  807   16.120   3190.72     1.8945     0.0354     0.6887     0.1612     2.1914     1.9802   257.9200     1.9335     0.2829
  808   16.140   3191.77     2.0934     0.0452     0.6354     0.1614     2.3638     2.2325   258.2400     2.1056     0.2293
  809   16.160   3192.76     2.2454     0.0549     0.6699     0.1616     2.5224     2.5069   258.5600     2.2639     0.2198
  810   16.180   3193.86     2.5254     0.0578     0.5797     0.1618     2.7893     2.4247   258.8800     2.5304     0.1846
  811   16.200   3194.87     2.8239     0.0614     0.3445     0.1620     2.9981     2.2408   259.2000     2.7389     0.0924
  812   16.220   3195.96     2.6789     0.0670     0.2797     0.1622     2.7950     2.5002   259.5200     2.5355     0.0450
  813   16.240   3196.93     2.6636     0.0840     0.3933     0.1624     2.8075     3.1881   259.8400     2.5477     0.0707
  814   16.260   3197.97     2.7275     0.0795     0.4901     0.1626     2.9397     2.9396   260.1600     2.6795     0.1278
  815   16.280   3199.00     2.8498     0.0706     0.3527     0.1628     3.0098     2.4829   260.4800     2.7493     0.0793
  816   16.300   3200.01     2.5282     0.0636     0.3102     0.1630     2.6593     2.4138   260.8000     2.3985     0.0622
  817   16.320   3201.05     2.2780     0.0689     0.4786     0.1632     2.4501     2.9534   261.1200     2.1890     0.1127
  818   16.340   3202.12     2.1817     0.0669     0.6454     0.1634     2.4186     3.0510   261.4400     2.1572     0.1858
  819   16.360   3203.19     2.1539     0.0583     0.7006     0.1636     2.4474     2.7196   261.7600     2.1856     0.2448
  820   16.380   3204.22     2.1323     0.0521     0.7007     0.1638     2.4228     2.4306   262.0800     2.1607     0.2443
  821   16.400   3205.18     2.1388     0.0458     0.7646     0.1640     2.4352     2.1314   262.4000     2.1728     0.2493
  822   16.420   3206.29     2.0673     0.0535     0.7906     0.1642     2.3994     2.5487   262.7200     2.1366     0.2933
  823   16.440   3207.28     2.1202     0.0592     0.7676     0.1644     2.4394     2.8665   263.0400     2.1764     0.2738
  824   16.460   3208.37     2.2975     0.0683     0.8178     0.1646     2.6355     3.0350   263.3600     2.3721     0.2698
  825   16.480   3209.41     2.4738     0.0740     0.7205     0.1648     2.8050     3.1202   263.6800     2.5413     0.2457
  826   16.500   3210.38     2.5332     0.0611     0.4696     0.1650     2.7646     2.3838   264.0000     2.5006     0.1541
  827   16.520   3211.44     2.2548     0.0394     0.4824     0.1652     2.4427     1.6669   264.3200     2.1784     0.1297
  828   16.540   3212.48     1.8424     0.0373     0.5373     0.1654     2.0438     1.9594   264.6400     1.7791     0.1765
  829   16.560   3213.56     1.6769     0.0404     0.8016     0.1656     1.9782     2.4041   264.9600     1.7132     0.3217
  830   16.580   3214.57     2.9072     0.0303     0.9136     0.1658     3.2786     1.2731   265.2800     3.0133     0.2421
  831   16.600   3215.70     6.2417     0.0224     0.4853     0.1660     6.5440     0.4141   265.6000     6.2784     0.0921
  832   16.620   3216.72     9.1009     0.0259    -0.0156     0.1662     9.1474     0.3030   265.9200     8.8815    -0.0057
  833   16.640   3217.79    10.6509     0.0365    -0.1026     0.1664    10.6130     0.3516   266.2400    10.3468    -0.0248
  834   16.660   3218.88    11.3498     0.0457    -0.1477     0.1666    11.2933     0.4068   266.5600    11.0267    -0.0273
  835   16.680   3219.98    11.4613     0.0518    -0.1413     0.1668    11.4000     0.4509   266.8800    11.1331    -0.0281
  836   16.700   3221.09    11.0624     0.0578    -0.1311     0.1670    11.0050     0.5171   267.2000    10.7378    -0.0283
  837   16.720   3222.10    10.8273     0.0635    -0.0724     0.1672    10.7856     0.5864   267.5200    10.5181    -0.0253
  838   16.740   3223.11    11.3658     0.0678     0.0325     0.1674    11.3632     0.6057   267.8400    11.0954    -0.0157
  839   16.760   3224.16    12.3836     0.0675     0.0777     0.1676    12.4138     0.5583   268.1600    12.1456    -0.0079
  840   16.780   3225.28    13.3227     0.0678     0.0862     0.1678    13.3565     0.5141   268.4800    13.0880    -0.0067
  841   16.800   3226.36    13.4592     0.0700     0.0903     0.1680    13.4958     0.5192   268.8000    13.2270    -0.0061
  842   16.820   3227.39    13.0231     0.0734     0.1111     0.1682    13.0692     0.5569   269.1200    12.8001    -0.0046
  843   16.840   3228.48    11.8851     0.0723     0.1268     0.1684    11.9347     0.5843   269.4400    11.6652    -0.0043
  844   16.860   3229.52    11.0485     0.0717     0.1364     0.1686    11.1037     0.6367   269.7600    10.8339    -0.0034
  845   16.880   3230.53    10.6355     0.0746     0.1536     0.1688    10.6967     0.6953   270.0800    10.4266    -0.0022
  846   16.900   3231.66    10.5751     0.0862     0.1599     0.1690    10.6416     0.8155   270.4000    10.3712    -0.0010
  847   16.920   3232.69    10.5886     0.0957     0.1600     0.1692    10.6556     0.9033   270.7200    10.3849    -0.0009
  848   16.940   3233.73    10.0988     0.0972     0.1492     0.1694    10.1626     0.9399   271.0400     9.8915    -0.0018
  849   16.960   3234.79     9.2540     0.0947     0.1406     0.1696     9.3136     0.9972   271.3600     9.0422    -0.0031
  850   16.980   3235.84     8.3247     0.0995     0.1275     0.1698     8.3801     1.1502   271.6800     8.1084    -0.0047
  851   17.000   3236.81     7.7673     0.1216     0.0979     0.1700     7.8162     1.5673   272.0000     7.5442    -0.0071
  852   17.020   3237.90     8.4938     0.1536     0.1233     0.1702     8.5247     1.8870   272.3200     8.2524    -0.0117
  853   17.040   3238.97     9.2466     0.1923     0.0650     0.1704     9.3030     2.1166   272.6400     9.0303    -0.0040
  854   17.060   3240.05     8.1829     0.1936    -0.0538     0.1706     8.1607     2.2284   272.9600     7.8878    -0.0283
  855   17.080   3241.08     6.4148     0.1530     0.0240     0.1708     6.4075     2.2252   273.2800     6.1342    -0.0306
  856   17.100   3242.09     5.1911     0.1262     0.1822     0.1710     5.2391     2.3394   273.6000     4.9655    -0.0113
  857   17.120   3243.07     4.7614     0.1148     0.3116     0.1712     4.8749     2.3856   273.9200     4.6010     0.0215
  858   17.140   3244.18     4.5096     0.1208     0.3236     0.1714     4.6269     2.6650   274.2400     4.3527     0.0248
  859   17.160   3245.26     6.0736     0.1286     0.5078     0.1716     6.2801     2.3314   274.5600     6.0055     0.0538
  860   17.180   3246.39     9.3947     0.1280     0.4875     0.1718     9.6367     1.4734   274.8800     9.3618     0.0433
  861   17.200   3247.47    11.3252     0.1112     0.0237     0.1720    11.3743     0.9946   275.2000    11.0991    -0.0049
  862   17.220   3248.45     9.9221     0.1019    -0.0055     0.1722     9.9125     0.9601   275.5200     9.6370    -0.0203
  863   17.240   3249.57     9.5038     0.1054     0.1402     0.1724     9.5379     1.1579   275.8400     9.2621    -0.0100
  864   17.260   3250.65    12.1250     0.1163     0.2011     0.1726    12.2046     1.0218   276.1600    11.9285     0.0014
  865   17.280   3251.71    14.9636     0.1271     0.1658     0.1728    15.0379     0.8892   276.4800    14.7614     0.0003
  866   17.300   3252.83    16.2645     0.1414     0.0209     0.1730    16.2880     0.8720   276.8000    16.0112    -0.0073
  867   17.320   3253.82    15.8426     0.1359     0.0013     0.1732    15.8438     0.8491   277.1200    15.5666    -0.0110
  868   17.340   3254.90    15.0009     0.1317     0.0162     0.1734    15.0046     0.8597   277.4400    14.7271    -0.0112
  869   17.360   3255.94    13.9020     0.1412     0.0595     0.1736    13.9178     0.9872   277.7600    13.6401    -0.0100
  870   17.380   3257.00    13.7069     0.1525     0.1614     0.1738    13.7571     1.1187   278.0800    13.4791    -0.0040
  871   17.400   3258.05    15.3027     0.1491     0.1937     0.1740    15.3858     0.9756   278.4000    15.1074     0.0016
  872   17.420   3259.14    16.0552     0.1647     0.1275     0.1742    16.1072     1.0253   278.7200    15.8285    -0.0032
  873   17.440   3260.16    15.1116     0.1736     0.0163     0.1744    15.1347     1.1366   279.0400    14.8557    -0.0081
  874   17.460   3261.18    14.2171     0.1809    -0.0694     0.1746    14.1965     1.2424   279.3600    13.9171    -0.0161
  875   17.480   3262.17    12.9139     0.1958    -0.0042     0.1748    12.9023     1.4407   279.6800    12.6226    -0.0160
  876   17.500   3263.17     9.9915     0.2059    -0.0147     0.1750     9.9833     1.8299   280.0000     9.7033    -0.0201
  877   17.520   3264.23     6.8532     0.1920    -0.0188     0.1752     6.8455     2.4356   280.3200     6.5652    -0.0297
  878   17.540   3265.24     5.5932     0.1637     0.0519     0.1754     5.6058     2.7086   280.6400     5.3252    -0.0273
  879   17.560   3266.28     4.6679     0.1526     0.2070     0.1756     4.7350     3.1368   280.9600     4.4541    -0.0032
  880   17.580   3267.29     4.0622     0.1443     0.3332     0.1758     4.1817     3.3535   281.2800     3.9005     0.0282
  881   17.600   3268.38     3.4383     0.1200     0.5359     0.1760     3.6353     3.3748   281.6000     3.3537     0.0876
  882   17.620   3269.36     3.3418     0.0936     0.6542     0.1762     3.6041     2.8250   281.9200     3.3222     0.1349
  883   17.640   3270.44     3.5139     0.0772     0.6435     0.1764     3.7886     2.2375   282.2400     3.5063     0.1362
  884   17.660   3271.38     3.5008     0.0617     0.6521     0.1766     3.7743     1.7550   282.5600     3.4918     0.1360
  885   17.680   3272.56     3.3637     0.0554     0.7116     0.1768     3.6485     1.6157   282.8800     3.3656     0.1490
  886   17.700   3273.57     3.1757     0.0544     0.7363     0.1770     3.4817     1.6750   283.2000     3.1985     0.1725
  887   17.720   3274.60     3.0863     0.0489     0.8186     0.1772     3.4338     1.5962   283.5200     3.1503     0.2066
  888   17.740   3275.63     3.6167     0.0458     0.7650     0.1774     3.9627     1.3470   283.8400     3.6789     0.1761
  889   17.760   3276.64     4.0345     0.0460     0.5302     0.1776     4.2704     1.2324   284.1600     3.9862     0.0964
  890   17.780   3277.75     4.1667     0.0461     0.5596     0.1778     4.3894     1.1616   284.4800     4.1049     0.0859
  891   17.800   3278.75     4.0522     0.0463     0.5889     0.1780     4.2977     1.1304   284.8000     4.0129     0.1013
  892   17.820   3279.83     3.9226     0.0440     0.6335     0.1782     4.1818     1.1007   285.1200     3.8966     0.1127
  893   17.840   3280.86     3.7560     0.0408     0.6638     0.1784     4.0296     1.0623   285.4400     3.7442     0.1264
  894   17.860   3287.86     3.2759     0.0369     0.7600     0.1786     3.5782     1.0578   285.7600     3.2924     0.1738
  895   17.880   3303.90     2.7443     0.0353     0.8765     0.1788     3.0956     1.0138   286.0800     2.8095     0.2539
  896   17.900   3319.95     2.2128     0.0337     1.0110     0.1790     2.6130     0.9672   286.4000     2.3266     0.3340
  897   17.920   3321.47     1.9842     0.0330     1.1670     0.1792     2.4533     1.6053   286.7200     2.1666     0.4329
  898   17.940   3322.51     1.9184     0.0319     1.2217     0.1794     2.4300     1.6557   287.0400     2.1429     0.4846
  899   17.960   3323.49     1.9056     0.0306     1.2473     0.1796     2.4207     1.5989   287.3600     2.1334     0.4907
  900   17.980   3324.58     1.8777     0.0319     1.2772     0.1798     2.4122     1.6917   287.6800     2.1246     0.5144
  901   18.000   3325.59     1.8673     0.0320     1.3114     0.1800     2.4132     1.7095   288.0000     2.1252     0.5269
  902   18.020   3326.68     1.8936     0.0323     1.3217     0.1802     2.4456     1.7200   288.3200     2.1573     0.5258
  903   18.040   3327.65     1.8937     0.0328     1.3425     0.1804     2.4566     1.7338   288.6400     2.1679     0.5350
  904   18.060   3328.67     1.8853     0.0346     1.3389     0.1806     2.4488     1.8357   288.9600     2.1598     0.5376
  905   18.080   3329.74     1.9013     0.0351     1.3525     0.1808     2.4679     1.8536   289.2800     2.1786     0.5362
  906   18.100   3330.78     1.9254     0.0327     1.3588     0.1810     2.4955     1.7027   289.6000     2.2059     0.5333
  907   18.120   3331.82     1.9633     0.0279     1.3591     0.1812     2.5340     1.4319   289.9200     2.2441     0.5247
  908   18.140   3332.77     1.9911     0.0337     1.3655     0.1814     2.5619     1.6997   290.2400     2.2716     0.5184
  909   18.160   3333.91     1.9990     0.0379     1.3958     0.1816     2.5829     1.9011   290.5600     2.2924     0.5273
  910   18.180   3334.93     2.0915     0.0382     1.3924     0.1818     2.6833     1.8868   290.8800     2.3924     0.5130
  911   18.200   3336.01     2.6113     0.0368     1.2530     0.1820     3.1642     1.4769   291.2000     2.8730     0.3949
  912   18.220   3337.02     2.6871     0.0376     0.5906     0.1822     2.9350     1.3783   291.5200     2.6435     0.1538
  913   18.240   3337.93     2.3307     0.0381     0.9540     0.1824     2.6819     1.4988   291.8400     2.3900     0.2743
  914   18.260   3339.06     2.1406     0.0387     1.1213     0.1826     2.5963     1.7902   292.1600     2.3041     0.3916
  915   18.280   3340.09     2.1536     0.0381     1.2115     0.1828     2.6494     1.7807   292.4800     2.3569     0.4232
  916   18.300   3341.18     2.1944     0.0378     1.2775     0.1830     2.7236     1.7290   292.8000     2.4308     0.4431
  917   18.320   3342.21     2.1947     0.0383     1.3307     0.1832     2.7446     1.7417   293.1200     2.4515     0.4594
  918   18.340   3343.22     2.1811     0.0394     1.4073     0.1834     2.7616     1.8058   293.4400     2.4681     0.4857
  919   18.360   3344.23     2.1952     0.0415     1.4604     0.1836     2.8021     1.8971   293.7600     2.5084     0.5029
  920   18.380   3345.31     2.2511     0.0430     1.5074     0.1838     2.8757     1.9190   294.0800     2.5816     0.5049
  921   18.400   3346.34     2.3032     0.0457     1.5540     0.1840     2.9511     2.0011   294.4000     2.6567     0.5113
  922   18.420   3347.42     2.3759     0.0474     1.5782     0.1842     3.0351     2.0194   294.7200     2.7404     0.5055
  923   18.440   3348.50     2.4244     0.0502     1.6118     0.1844     3.0953     2.0874   295.0400     2.8003     0.5046
  924   18.460   3349.48     2.4189     0.0510     1.6317     0.1846     3.1051     2.1004   295.3600     2.8098     0.5158
  925   18.480   3350.59     2.3898     0.0512     1.6820     0.1848     3.0873     2.1361   295.6800     2.7916     0.5287
  926   18.500   3351.61     2.3849     0.0513     1.7001     0.1850     3.0969     2.1514   296.0000     2.8009     0.5392
  927   18.520   3352.61     2.3761     0.0513     1.7102     0.1852     3.0980     2.1559   296.3200     2.8017     0.5474
  928   18.540   3353.64     2.3775     0.0530     1.6998     0.1854     3.0940     2.2260   296.6400     2.7974     0.5436
  929   18.560   3354.75     2.3864     0.0565     1.6894     0.1856     3.0982     2.3772   296.9600     2.8013     0.5387
  930   18.580   3355.75     2.4029     0.0564     1.6530     0.1858     3.1060     2.3531   297.2800     2.8088     0.5299
  931   18.600   3356.87     2.3682     0.0530     1.6030     0.1860     3.0461     2.2111   297.6000     2.7485     0.5196
  932   18.620   3357.88     2.3298     0.0514     1.5653     0.1862     2.9934     2.2071   297.9200     2.6954     0.5171
  933   18.640   3358.85     2.3079     0.0498     1.5723     0.1864     2.9650     2.1526   298.2400     2.6667     0.5167
  934   18.660   3359.91     2.3245     0.0511     1.5961     0.1866     2.9943     2.2075   298.5600     2.6957     0.5224
  935   18.680   3360.90     2.3492     0.0528     1.5441     0.1868     3.0095     2.2551   298.8800     2.7107     0.5111
  936   18.700   3362.06     2.3232     0.0531     1.4497     0.1870     2.9440     2.2627   299.2000     2.6448     0.4882
  937   18.720   3363.07     2.2353     0.0507     1.3671     0.1872     2.8241     2.2282   299.5200     2.5246     0.4811
  938   18.740   3364.10     2.0675     0.0462     1.2972     0.1874     2.6235     2.1664   299.8400     2.3237     0.4891
  939   18.760   3365.20     1.9052     0.0419     1.2777     0.1876     2.4430     2.1245   300.1600     2.1428     0.5102
  940   18.780   3366.17     1.7650     0.0377     1.2995     0.1878     2.3074     2.0863   300.4800     2.0070     0.5501
  941   18.800   3367.21     1.6657     0.0329     1.2984     0.1880     2.2120     1.9428   300.8000     1.9112     0.5823
  942   18.820   3368.24     1.5883     0.0284     1.3000     0.1882     2.1348     1.7701   301.1200     1.8337     0.6070
  943   18.840   3369.29     1.5506     0.0265     1.2977     0.1884     2.0954     1.7022   301.4400     1.7940     0.6180
  944   18.860   3370.37     1.5184     0.0249     1.3183     0.1886     2.0696     1.6287   301.7600     1.7678     0.6357
  945   18.880   3371.44     1.5330     0.0238     1.3185     0.1888     2.0872     1.5622   302.0800     1.7851     0.6334
  946   18.900   3372.48     1.5643     0.0233     1.3227     0.1890     2.1177     1.4994   302.4000     1.8153     0.6217
  947   18.920   3373.43     1.6021     0.0236     1.3230     0.1892     2.1598     1.4814   302.7200     1.8571     0.6132
  948   18.940   3374.56     1.6455     0.0257     1.3164     0.1894     2.1992     1.5778   303.0400     1.8961     0.5953
  949   18.960   3375.57     1.7091     0.0310     1.2999     0.1896     2.2601     1.8503   303.3600     1.9567     0.5737
  950   18.980   3376.64     2.1113     0.0426     1.2978     0.1898     2.6566     2.2156   303.6800     2.3529     0.4729
  951   19.000   3377.72     2.9724     0.0557     1.1882     0.1900     3.4979     2.1004   304.0000     3.1939     0.3347
  952   19.020   3378.78     4.0706     0.0532     0.8077     0.1902     4.4690     1.4352   304.3200     4.1647     0.1840
  953   19.040   3379.82     4.7885     0.0423     0.5852     0.1904     5.0466     0.8949   304.6400     4.7420     0.0895
  954   19.060   3380.84     4.6311     0.0336     0.6082     0.1906     4.8803     0.7089   304.9600     4.5753     0.0881
  955   19.080   3381.92     4.0535     0.0280     0.7205     0.1908     4.3284     0.6607   305.2800     4.0231     0.1155
  956   19.100   3382.95     3.1902     0.0408     1.0136     0.1910     3.5501     1.2193   305.6000     3.2445     0.2058
  957   19.120   3384.06     4.1908     0.0699     1.2947     0.1912     4.7292     1.8956   305.9200     4.4233     0.2473
  958   19.140   3385.15     6.8200     0.1089     0.4162     0.1914     7.1696     1.8418   306.2400     6.8633     0.0954
  959   19.160   3386.15     7.7160     0.1316     0.1714     0.1916     7.8076     1.7109   306.5600     7.5010     0.0034
  960   19.180   3387.17     6.5203     0.1384     0.1714     0.1918     6.5870     1.9636   306.8800     6.2801    -0.0052
  961   19.200   3388.25     5.3275     0.1326     0.2527     0.1920     5.4206     2.3439   307.2000     5.1134     0.0059
  962   19.220   3389.28     4.6184     0.1294     0.3663     0.1922     4.7597     2.6861   307.5200     4.4522     0.0326
  963   19.240   3390.37     3.9259     0.1153     0.4279     0.1924     4.0922     2.7233   307.8400     3.7844     0.0540
  964   19.260   3391.41     3.1658     0.0994     0.5756     0.1926     3.3832     2.9241   308.1600     3.0750     0.1062
  965   19.280   3392.42     2.6399     0.0751     0.8283     0.1928     2.9468     2.7088   308.4800     2.6383     0.2046
  966   19.300   3393.44     2.3776     0.0546     1.0394     0.1930     2.7985     2.2355   308.8000     2.4897     0.3251
  967   19.320   3394.54     2.1848     0.0434     1.1338     0.1932     2.6397     1.9363   309.1200     2.3305     0.3819
  968   19.340   3395.54     2.0727     0.0409     1.2424     0.1934     2.5835     1.9620   309.4400     2.2740     0.4497
  969   19.360   3396.68     2.0995     0.0384     1.2335     0.1936     2.6259     1.8379   309.7600     2.3162     0.4575
  970   19.380   3397.71     2.1249     0.0372     1.2457     0.1938     2.6398     1.7518   310.0800     2.3297     0.4430
  971   19.400   3398.70     2.1620     0.0387     1.2820     0.1940     2.6943     1.8092   310.4000     2.3839     0.4503
  972   19.420   3399.81     2.2592     0.0414     1.3294     0.1942     2.8096     1.8692   310.7200     2.4989     0.4468
  973   19.440   3400.88     2.4674     0.0452     1.3590     0.1944     3.0394     1.8894   311.0400     2.7284     0.4281
  974   19.460   3401.94     2.7537     0.0424     1.2266     0.1946     3.2967     1.5684   311.3600     2.9853     0.3680
  975   19.480   3402.98     2.9338     0.0431     1.2130     0.1948     3.4414     1.4912   311.6800     3.1298     0.3239
  976   19.500   3403.95     3.0978     0.0412     1.2687     0.1950     3.6203     1.3386   312.0000     3.3083     0.3171
  977   19.520   3405.01     3.2208     0.0575     1.2706     0.1952     3.7601     1.7950   312.3200     3.4477     0.3158
  978   19.540   3406.15     4.0961     0.0753     1.4563     0.1954     4.6735     1.9362   312.6400     4.3608     0.2712
  979   19.560   3407.24     6.3176     0.0865     1.2891     0.1956     6.9111     1.5112   312.9600     6.5981     0.1867
  980   19.580   3408.33     9.2014     0.0950     0.3318     0.1958     9.4524     1.1081   313.2800     9.1391     0.0455
  981   19.600   3409.34    11.1604     0.0995    -0.0613     0.1960    11.1781     0.9328   313.6000    10.8645    -0.0138
  982   19.620   3410.49    12.7875     0.1130    -0.1390     0.1962    12.7382     0.9067   313.9200    12.4243    -0.0252
  983   19.640   3411.52    13.6649     0.1215    -0.1788     0.1964    13.5857     0.9060   314.2400    13.2715    -0.0290
  984   19.660   3412.63    14.2121     0.1224    -0.1759     0.1966    14.1380     0.8760   314.5600    13.8234    -0.0270
  985   19.680   3413.68    14.4391     0.1291    -0.1557     0.1968    14.3704     0.8987   314.8800    14.0555    -0.0256
  986   19.700   3414.74    14.3969     0.1456    -0.1550     0.1970    14.3305     1.0090   315.2000    14.0153    -0.0253
  987   19.720   3415.72    14.2555     0.1512    -0.1331     0.1972    14.1960     1.0553   315.5200    13.8804    -0.0244
  988   19.740   3416.79    14.0938     0.1530    -0.1070     0.1974    14.0451     1.0811   315.8400    13.7292    -0.0228
  989   19.760   3417.79    13.9477     0.1511    -0.0734     0.1976    13.9118     1.0817   316.1600    13.5956    -0.0208
  990   19.780   3418.85    13.9231     0.1586    -0.0450     0.1978    13.9026     1.1392   316.4800    13.5861    -0.0182
  991   19.800   3419.91    14.2626     0.1522    -0.0290     0.1980    14.2443     1.0728   316.8000    13.9275    -0.0173
  992   19.820   3420.93    14.6534     0.1418     0.0102     0.1982    14.6548     0.9751   317.1200    14.3376    -0.0136
  993   19.840   3421.93    15.0478     0.1306     0.0225     0.1984    15.0594     0.8721   317.4400    14.7419    -0.0116
  994   19.860   3422.89    15.3981     0.1130     0.0182     0.1986    15.4080     0.7363   317.7600    15.0902    -0.0116
  995   19.880   3423.94    16.0490     0.1011    -0.0365     0.1988    16.0336     0.6339   318.0800    15.7155    -0.0150
  996   19.900   3430.72    16.7415     0.0989    -0.0067     0.1990    16.7350     0.5953   318.4000    16.4166    -0.0131
  997   19.920   3445.91    17.0633     0.1074     0.0190     0.1992    17.0676     0.6464   318.7200    16.7488    -0.0113
  998   19.940   3461.09    17.3851     0.1286     0.0321     0.1994    17.4001     0.7719   319.0400    17.0811    -0.0096
  999   19.960   3465.37    17.1591     0.1498    -0.0355     0.1996    17.1495     0.8974   319.3600    16.8302    -0.0132
 1000   19.980   3466.39    16.3728     0.1696    -0.0509     0.1998    16.3550     1.0352   319.6800    16.0353    -0.0151
 1001   20.000   3467.39    15.4605     0.1754    -0.0744     0.2000    15.4320     1.1133   320.0000    15.1120    -0.0177
 1002   20.020   3468.31    14.9176     0.1519    -0.0595     0.2002    14.8881     1.0071   320.3200    14.5678    -0.0186
 1003   20.040   3471.77    15.5855     0.1238    -0.0238     0.2004    15.5704     0.8327   320.6400    15.2497    -0.0158
 1004   20.060   3475.84    16.4837     0.0987     0.0118     0.2006    16.4835     0.6642   320.9600    16.1625    -0.0128
 1005   20.080   3479.91    17.3818     0.0799    -0.0313     0.2008    17.3966     0.4682   321.2800    17.0753    -0.0097
 1006   20.100   3481.01    18.4016     0.0589    -0.1675     0.2010    18.3470     0.3217   321.6000    18.0254    -0.0184
 1007   20.120   3482.06    18.8525     0.0516    -0.2070     0.2012    18.7654     0.2744   321.9200    18.4435    -0.0221
 1008   20.140   3483.02    18.4266     0.0585    -0.2149     0.2014    18.3360     0.3155   322.2400    18.0138    -0.0231
 1009   20.160   3484.06    17.5193     0.0723    -0.2195     0.2016    17.4294     0.4091   322.5600    17.1068    -0.0243
 1010   20.180   3485.06    16.5073     0.0830    -0.2210     0.2018    16.4147     0.4970   322.8800    16.0918    -0.0262
 1011   20.200   3486.04    15.4295     0.1168    -0.2227     0.2020    15.3357     0.7496   323.2000    15.0125    -0.0283
 1012   20.220   3486.93    14.2929     0.1464    -0.2106     0.2022    14.2023     0.9926   323.5200    13.8787    -0.0301
 1013   20.240   3487.92    13.3106     0.1677    -0.1759     0.2024    13.2295     1.2295   323.8400    12.9057    -0.0306
 1014   20.260   3488.95    12.2713     0.1750    -0.0935     0.2026    12.2212     1.3899   324.1600    11.8971    -0.0270
 1015   20.280   3489.90    11.6379     0.1555    -0.0077     0.2028    11.6250     1.3177   324.4800    11.3006    -0.0206
 1016   20.300   3490.97    11.0471     0.1475    -0.0658     0.2030    11.0256     1.3196   324.8000    10.7008    -0.0238
 1017   20.320   3492.06    11.2004     0.1364    -0.3034     0.2032    11.0992     1.2452   325.1200    10.7741    -0.0412
 1018   20.340   3493.15    11.6526     0.1299    -0.3237     0.2034    11.5181     1.1338   325.4400    11.1927    -0.0468
 1019   20.360   3494.24    12.7957     0.1098    -0.3018     0.2036    12.6651     0.8854   325.7600    12.3393    -0.0417
 1020   20.380   3495.24    13.8691     0.0826    -0.3108     0.2038    13.7389     0.6210   326.0800    13.4128    -0.0383
 1021   20.400   3496.28    15.2403     0.0700    -0.3068     0.2040    15.1108     0.4752   326.4000    14.7844    -0.0347
 1022   20.420   3497.31    17.4797     0.0642    -0.3005     0.2042    17.3526     0.3799   326.7200    17.0259    -0.0298
 1023   20.440   3498.36    19.9602     0.0652    -0.2916     0.2044    19.8360     0.3313   327.0400    19.5090    -0.0257
 1024   20.460   3499.44    21.7919     0.0751    -0.2622     0.2046    21.6762     0.3503   327.3600    21.3488    -0.0225
 1025   20.480   3500.43    22.8518     0.0933    -0.2346     0.2048    22.7496     0.4120   327.6800    22.4219    -0.0200
 1026   20.500   3501.36    23.1043     0.1146    -0.2351     0.2050    23.0067     0.4953   328.0000    22.6787    -0.0193
 1027   20.520   3502.42    22.6363     0.1353    -0.2466     0.2052    22.5351     0.5922   328.3200    22.2068    -0.0201
 1028   20.540   3503.35    21.3447     0.1541    -0.2531     0.2054    21.2385     0.7082   328.6400    20.9099    -0.0219
 1029   20.560   3504.34    19.2261     0.1622    -0.2540     0.2056    19.1200     0.8192   328.9600    18.7910    -0.0244
 1030   20.580   3505.29    16.8143     0.1570    -0.2602     0.2058    16.7055     0.9150   329.2800    16.3763    -0.0284
 1031   20.600   3506.26    14.5251     0.1392    -0.2550     0.2060    14.4168     0.9510   329.6000    14.0872    -0.0330
 1032   20.620   3507.25    12.8152     0.1206    -0.2419     0.2062    12.7117     0.9176   329.9200    12.3818    -0.0366
 1033   20.640   3508.17    11.6532     0.1039    -0.2205     0.2064    11.5570     0.8601   330.2400    11.2268    -0.0388
 1034   20.660   3509.24    10.8551     0.0922    -0.1989     0.2066    10.7683     0.8306   330.5600    10.4378    -0.0396
 1035   20.680   3510.27     9.9470     0.0902    -0.1611     0.2068     9.8738     0.8722   330.8800     9.5430    -0.0399
 1036   20.700   3511.28     8.8149     0.1006    -0.1401     0.2070     8.7518     1.0807   331.2000     8.4206    -0.0425
 1037   20.720   3512.33     7.2472     0.1144    -0.1042     0.2072     7.1981     1.4559   331.5200     6.8666    -0.0473
 1038   20.740   3513.39     5.8415     0.1044    -0.0425     0.2074     5.8102     1.6534   331.8400     5.4783    -0.0515
 1039   20.760   3514.44     4.8459     0.0998     0.1076     0.2076     4.8636     1.9227   332.1600     4.5314    -0.0365
 1040   20.780   3515.48     4.0977     0.0842     0.2982     0.2078     4.1878     1.9483   332.4800     3.8553     0.0019
 1041   20.800   3516.49     3.3922     0.0806     0.4688     0.2080     3.5651     2.2464   332.8000     3.2323     0.0632
 1042   20.820   3517.51     3.0040     0.0747     0.6171     0.2082     3.2388     2.4270   333.1200     2.9057     0.1207
 1043   20.840   3518.58     3.1444     0.0632     0.7195     0.2084     3.4478     2.0670   333.4400     3.1144     0.1652
 1044   20.860   3519.67     3.5253     0.0522     0.4523     0.2086     3.7627     1.5172   333.7600     3.4289     0.1037
 1045   20.880   3520.73     3.1946     0.0417     0.2620     0.2088     3.2661     1.2524   334.0800     2.9321    -0.0126
 1046   20.900   3521.75     2.9097     0.0403     0.4081     0.2090     3.0541     1.3471   334.4000     2.7197     0.0498
 1047   20.920   3522.78     2.7369     0.0338     0.5839     0.2092     2.9625     1.2061   334.7200     2.6278     0.1250
 1048   20.940   3523.83     2.5420     0.0308     0.6861     0.2094     2.8153     1.1754   335.0400     2.4802     0.1781
 1049   20.960   3524.88     2.3249     0.0306     0.8049     0.2096     2.6441     1.2891   335.3600     2.3087     0.2385
 1050   20.980   3525.94     2.3022     0.0294     0.8849     0.2098     2.6703     1.2874   335.6800     2.3346     0.2855
 1051   21.000   3527.03     2.3987     0.0255     0.9245     0.2100     2.7795     1.0765   336.0000     2.4435     0.2850
 1052   21.020   3528.03     2.4500     0.0259     0.9947     0.2102     2.8590     1.0624   336.3200     2.5227     0.3027
 1053   21.040   3529.04     2.5499     0.0275     0.9945     0.2104     2.9716     1.0876   336.6400     2.6350     0.3012
 1054   21.060   3530.14     2.4988     0.0285     0.9425     0.2106     2.9062     1.1188   336.9600     2.5693     0.2956
 1055   21.080   3531.18     2.3386     0.0255     0.9390     0.2108     2.7264     1.0565   337.2800     2.3891     0.2984
 1056   21.100   3532.23     2.2576     0.0232     0.9476     0.2110     2.6534     1.0269   337.6000     2.3158     0.3158
 1057   21.120   3533.25     2.2730     0.0237     0.9394     0.2112     2.6660     1.0408   337.9200     2.3281     0.3112
 1058   21.140   3534.34     2.1954     0.0227     0.9770     0.2114     2.5984     1.0182   338.2400     2.2602     0.3311
 1059   21.160   3535.35     2.1203     0.0213     1.0287     0.2116     2.5451     0.9883   338.5600     2.2065     0.3624
 1060   21.180   3536.32     2.1012     0.0222     1.0279     0.2118     2.5408     1.0635   338.8800     2.2019     0.3791
 1061   21.200   3537.36     2.0910     0.0221     0.9890     0.2120     2.5113     1.0407   339.2000     2.1721     0.3631
 1062   21.220   3538.50     2.0837     0.0221     1.0021     0.2122     2.5036     1.0583   339.5200     2.1641     0.3639
 1063   21.240   3539.54     2.0724     0.0207     1.0192     0.2124     2.4950     0.9989   339.8400     2.1552     0.3683
 1064   21.260   3540.53     2.0885     0.0212     1.0092     0.2126     2.5158     1.0201   340.1600     2.1756     0.3699
 1065   21.280   3541.58     2.0876     0.0212     1.0179     0.2128     2.5069     1.0102   340.4800     2.1664     0.3627
 1066   21.300   3542.64     1.8907     0.0211     1.0988     0.2130     2.3383     1.0695   340.8000     1.9975     0.4273
 1067   21.320   3543.65     1.7488     0.0208     1.1726     0.2132     2.2340     1.1709   341.1200     1.8928     0.4977
 1068   21.340   3544.69     1.7265     0.0214     1.1667     0.2134     2.2188     1.2399   341.4400     1.8774     0.5108
 1069   21.360   3545.73     1.7276     0.0213     1.1883     0.2136     2.2300     1.2337   341.7600     1.8883     0.5204
 1070   21.380   3546.79     1.7136     0.0215     1.1947     0.2138     2.2162     1.2508   342.0800     1.8742     0.5245
 1071   21.400   3547.82     1.7035     0.0222     1.1830     0.2140     2.2023     1.3064   342.4000     1.8599     0.5235
 1072   21.420   3548.91     1.7135     0.0204     1.1515     0.2142     2.2045     1.1968   342.7200     1.8618     0.5130
 1073   21.440   3549.92     1.7345     0.0222     1.1403     0.2144     2.2114     1.2839   343.0400     1.8683     0.4929
 1074   21.460   3550.87     1.7591     0.0217     1.1133     0.2146     2.2362     1.2403   343.3600     1.8928     0.4868
 1075   21.480   3551.96     1.7948     0.0207     1.0542     0.2148     2.2439     1.1542   343.6800     1.9002     0.4497
 1076   21.500   3553.02     1.8177     0.0205     1.0688     0.2150     2.2605     1.1323   344.0000     1.9165     0.4379
 1077   21.520   3554.10     1.8236     0.0203     1.0370     0.2152     2.2689     1.1159   344.3200     1.9246     0.4391
 1078   21.540   3555.08     1.8440     0.0234     1.0129     0.2154     2.2771     1.2685   344.6400     1.9325     0.4221
 1079   21.560   3556.14     1.8368     0.0226     1.0351     0.2156     2.2665     1.2256   344.9600     1.9216     0.4202
 1080   21.580   3557.17     1.8605     0.0231     1.0556     0.2158     2.2990     1.2530   345.2800     1.9537     0.4239
 1081   21.600   3558.23     1.9076     0.0236     0.9996     0.2160     2.3388     1.2464   345.6000     1.9932     0.4067
 1082   21.620   3559.25     1.9389     0.0237     0.9838     0.2162     2.3548     1.2256   345.9200     2.0089     0.3853
 1083   21.640   3560.23     1.8848     0.0260     0.9838     0.2164     2.2949     1.3667   346.2400     1.9486     0.3900
 1084   21.660   3561.29     1.8486     0.0269     1.0412     0.2166     2.2806     1.4452   346.5600     1.9340     0.4198
 1085   21.680   3562.39     1.8619     0.0284     1.0517     0.2168     2.2995     1.5186   346.8800     1.9526     0.4226
 1086   21.700   3563.45     1.8826     0.0317     1.0644     0.2170     2.3315     1.7044   347.2000     1.9843     0.4293
 1087   21.720   3564.46     2.0201     0.0314     1.0636     0.2172     2.4727     1.6136   347.5200     2.1252     0.4049
 1088   21.740   3565.45     2.2436     0.0404     0.9871     0.2174     2.6657     1.8728   347.8400     2.3179     0.3400
 1089   21.760   3566.52     2.3449     0.0500     0.9003     0.2176     2.7405     2.1554   348.1600     2.3923     0.3027
 1090   21.780   3567.58     2.1935     0.0517     0.9196     0.2178     2.5688     2.3315   348.4800     2.2203     0.3045
 1091   21.800   3568.63     2.0779     0.0505     0.9784     0.2180     2.4747     2.4174   348.8000     2.1259     0.3419
 1092   21.820   3569.70     2.0599     0.0491     1.0239     0.2182     2.4859     2.4004   349.1200     2.1368     0.3726
 1093   21.840   3582.46     2.0701     0.0417     0.9789     0.2184     2.4916     2.0910   349.4400     2.1421     0.3687
 1094   21.860   3603.72     2.2047     0.0373     0.9073     0.2186     2.5961     1.8680   349.7600     2.2464     0.3196
 1095   21.880   3616.50     2.2366     0.0362     0.9084     0.2188     2.6154     1.5884   350.0800     2.2653     0.3016
 1096   21.900   3617.59     2.2089     0.0320     0.9721     0.2190     2.6124     1.4367   350.4000     2.2620     0.3279
 1097   21.920   3618.69     2.0952     0.0293     1.0470     0.2192     2.5219     1.3609   350.7200     2.1712     0.3672
 1098   21.940   3619.66     2.0128     0.0269     1.0017     0.2194     2.4476     1.3173   351.0400     2.0966     0.3891
 1099   21.960   3620.66     1.9587     0.0240     0.9569     0.2196     2.3623     1.2133   351.3600     2.0110     0.3687
 1100   21.980   3621.70     1.8988     0.0224     0.9186     0.2198     2.2935     1.1610   351.6800     1.9418     0.3707
 1101   22.000   3622.76     1.7407     0.0214     0.9656     0.2200     2.1381     1.1901   352.0000     1.7861     0.4068
 1102   22.020   3623.85     1.6155     0.0207     1.0252     0.2202     2.0404     1.2407   352.3200     1.6881     0.4691
 1103   22.040   3624.85     1.5529     0.0196     1.0424     0.2204     1.9885     1.2429   352.6400     1.6359     0.4994
 1104   22.060   3625.89     1.5203     0.0176     1.0483     0.2206     1.9599     1.1549   352.9600     1.6070     0.5141
 1105   22.080   3626.92     1.5007     0.0164     1.0557     0.2208     1.9421     1.0904   353.2800     1.5888     0.5224
 1106   22.100   3627.94     1.4790     0.0147     1.0677     0.2210     1.9254     0.9872   353.6000     1.5718     0.5355
 1107   22.120   3628.99     1.4399     0.0166     1.0909     0.2212     1.8952     1.1438   353.9200     1.5413     0.5598
 1108   22.140   3629.98     1.4542     0.0199     1.1093     0.2214     1.9179     1.3829   354.2400     1.5637     0.5644
 1109   22.160   3631.03     1.5527     0.0194     1.1118     0.2216     2.0228     1.2889   354.5600     1.6682     0.5380
 1110   22.180   3632.11     1.7423     0.0186     1.0665     0.2218     2.1974     1.1063   354.8800     1.8426     0.4679
 1111   22.200   3633.21     1.8248     0.0183     0.9317     0.2220     2.2296     1.0057   355.2000     1.8744     0.3956
 1112   22.220   3634.17     1.7526     0.0181     0.8704     0.2222     2.1239     1.0151   355.5200     1.7684     0.3743
 1113   22.240   3635.20     1.6375     0.0186     0.8626     0.2224     1.9930     1.1010   355.8400     1.6372     0.3815
 1114   22.260   3636.26     1.5206     0.0194     0.9251     0.2226     1.9044     1.2466   356.1600     1.5482     0.4466
 1115   22.280   3637.34     1.4588     0.0191     0.9700     0.2228     1.8567     1.2974   356.4800     1.5002     0.4831
 1116   22.300   3638.35     1.4332     0.0175     1.0091     0.2230     1.8522     1.2230   356.8000     1.4954     0.5180
 1117   22.320   3639.43     1.4647     0.0176     1.0270     0.2232     1.8941     1.2170   357.1200     1.5369     0.5199
 1118   22.340   3640.43     1.5270     0.0197     1.0412     0.2234     1.9621     1.3101   357.4400     1.6047     0.5065
 1119   22.360   3641.44     1.6156     0.0207     1.0263     0.2236     2.0527     1.3060   357.7600     1.6950     0.4822
 1120   22.380   3642.55     1.7689     0.0213     0.9774     0.2238     2.2007     1.2438   358.0800     1.8426     0.4365
 1121   22.400   3643.59     1.9783     0.0242     0.8784     0.2240     2.3595     1.2726   358.4000     2.0011     0.3416
 1122   22.420   3644.55     2.0864     0.0267     0.8369     0.2242     2.4419     1.3003   358.7200     2.0832     0.2987
 1123   22.440   3645.63     2.0315     0.0290     0.8749     0.2244     2.3902     1.3977   359.0400     2.0312     0.3100
 1124   22.460   3646.68     2.0363     0.0302     0.8931     0.2246     2.4143     1.5061   359.3600     2.0550     0.3288
 1125   22.480   3647.80     2.0558     0.0285     0.8809     0.2248     2.4285     1.3801   359.6800     2.0689     0.3203
 1126   22.500   3648.78     2.0829     0.0231     0.8758     0.2250     2.4541     1.1181   360.0000     2.0941     0.3146
 1127   22.520   3649.80     1.9814     0.0217     0.9430     0.2252     2.3584     1.0569   360.3200     1.9981     0.3372
 1128   22.540   3650.83     1.9499     0.0318     1.0116     0.2254     2.3718     1.6590   360.6400     2.0112     0.3874
 1129   22.560   3651.88     2.2809     0.0381     0.9913     0.2256     2.6977     1.7911   360.9600     2.3368     0.3290
 1130   22.580   3652.90     3.0814     0.0394     0.9088     0.2258     3.4921     1.4143   361.2800     3.1309     0.2418
 1131   22.600   3654.03     4.6514     0.0407     0.5933     0.2260     4.9507     0.9992   361.6000     4.5891     0.1065
 1132   22.620   3655.06     6.2979     0.0438     0.2820     0.2262     6.4482     0.7555   361.9200     6.0863     0.0217
 1133   22.640   3656.12     7.8126     0.0448     0.1358     0.2264     7.8725     0.6014   362.2400     7.5102    -0.0112
 1134   22.660   3657.17     8.7715     0.0405     0.0435     0.2266     8.8152     0.4721   362.5600     8.4526    -0.0144
 1135   22.680   3658.21     9.0331     0.0444    -0.0028     0.2268     9.0293     0.4928   362.8800     8.6664    -0.0272
 1136   22.700   3659.29     8.9118     0.0584    -0.0034     0.2270     8.9138     0.6503   363.2000     8.5506    -0.0260
 1137   22.720   3660.28     8.7757     0.0742    -0.0760     0.2272     8.7508     0.8394   363.5200     8.3872    -0.0342
 1138   22.740   3661.40     8.4464     0.0845    -0.0410     0.2274     8.4213     0.9873   363.8400     8.0574    -0.0356
 1139   22.760   3662.50     8.0129     0.0877     0.0123     0.2276     8.0107     1.0774   364.1600     7.6465    -0.0304
 1140   22.780   3663.48     7.6951     0.0825     0.0582     0.2278     7.7107     1.0638   364.4800     7.3462    -0.0260
 1141   22.800   3664.57     7.8005     0.0705     0.0470     0.2280     7.8274     0.9097   364.8000     7.4626    -0.0220
 1142   22.820   3665.65     7.9157     0.0594    -0.0132     0.2282     7.9210     0.7509   365.1200     7.5559    -0.0285
 1143   22.840   3666.65     7.7430     0.0512    -0.0140     0.2284     7.7326     0.6538   365.4400     7.3672    -0.0343
 1144   22.860   3667.74     7.4896     0.0609    -0.0869     0.2286     7.4627     0.8059   365.7600     7.0969    -0.0413
 1145   22.880   3668.83     7.3102     0.0790    -0.0793     0.2288     7.2744     1.0703   366.0800     6.9084    -0.0454
 1146   22.900   3669.86     6.9018     0.0878    -0.0475     0.2290     6.8746     1.2283   366.4000     6.5082    -0.0451
 1147   22.920   3670.94     5.9133     0.0878     0.0313     0.2292     5.9137     1.4062   366.7200     5.5470    -0.0411
 1148   22.940   3671.95     4.9381     0.0849     0.1305     0.2294     4.9774     1.6174   367.0400     4.6104    -0.0293
 1149   22.960   3672.99     4.0692     0.0799     0.2895     0.2296     4.1725     1.8490   367.3600     3.8051     0.0044
 1150   22.980   3674.00     3.5188     0.0787     0.4914     0.2298     3.6815     2.1441   367.6800     3.3138     0.0476
 1151   23.000   3675.10     2.9641     0.0675     0.7213     0.2300     3.2329     2.1953   368.0000     2.8649     0.1433
 1152   23.020   3676.11     2.7156     0.0759     0.9143     0.2302     3.0733     2.7692   368.3200     2.7049     0.2297
 1153   23.040   3677.19     3.1859     0.0907     1.0292     0.2304     3.6042     3.2423   368.6400     3.2355     0.2401
 1154   23.060   3678.23     5.6320     0.0895     0.8970     0.2306     6.0217     1.7019   368.9600     5.6527     0.1236
 1155   23.080   3679.31     7.0267     0.0863     0.4759     0.2308     7.3068     1.3754   369.2800     6.9375     0.0649
 1156   23.100   3680.37     8.2975     0.0881    -0.0089     0.2310     8.3405     1.0366   369.6000     7.9709    -0.0165
 1157   23.120   3681.46     7.7004     0.0847    -0.0138     0.2312     7.6874     1.1027   369.9200     7.3175    -0.0358
 1158   23.140   3682.52     7.6441     0.0778     0.0691     0.2314     7.6520     1.0142   370.2400     7.2817    -0.0292
 1159   23.160   3683.58     7.5091     0.0592     0.0576     0.2316     7.5363     0.7795   370.5600     7.1657    -0.0233
 1160   23.180   3684.61     7.2292     0.0609     0.0357     0.2318     7.2274     0.8299   370.8800     6.8565    -0.0344
 1161   23.200   3685.67     6.8659     0.0799     0.1132     0.2320     6.9075     1.1467   371.2000     6.5363    -0.0203
 1162   23.220   3686.77     6.4429     0.0915     0.1569     0.2322     6.5013     1.3832   371.5200     6.1297    -0.0152
 1163   23.240   3687.80     5.8097     0.0888     0.1922     0.2324     5.8892     1.4675   371.8400     5.5174    -0.0078
 1164   23.260   3688.80     5.0180     0.0832     0.2261     0.2326     5.1024     1.5637   372.1600     4.7303    -0.0066
 1165   23.280   3689.89     4.0940     0.0830     0.3359     0.2328     4.2175     1.8759   372.4800     3.8450     0.0162
 1166   23.300   3690.93     3.3184     0.0728     0.4755     0.2330     3.5013     2.0371   372.8000     3.1285     0.0651
 1167   23.320   3691.99     2.7570     0.0595     0.6520     0.2332     3.0027     2.0340   373.1200     2.6295     0.1339
 1168   23.340   3693.05     2.3323     0.0523     0.8493     0.2334     2.6671     2.1318   373.4400     2.2936     0.2458
 1169   23.360   3694.06     2.2963     0.0449     0.8610     0.2336     2.6580     1.9790   373.7600     2.2843     0.2748
 1170   23.380   3695.04     2.4532     0.0378     0.8281     0.2338     2.8111     1.5776   374.0800     2.4370     0.2538
 1171   23.400   3696.10     2.5884     0.0377     0.7819     0.2340     2.9202     1.4764   374.4000     2.5458     0.2185
 1172   23.420   3697.22     2.5621     0.0403     0.8046     0.2342     2.8975     1.5514   374.7200     2.5228     0.2238
 1173   23.440   3698.28     2.4350     0.0421     0.8697     0.2344     2.7885     1.7045   375.0400     2.4134     0.2516
 1174   23.460   3699.31     2.3626     0.0423     0.9137     0.2346     2.7421     1.7780   375.3600     2.3668     0.2826
 1175   23.480   3700.31     2.3546     0.0417     0.9606     0.2348     2.7539     1.7746   375.6800     2.3783     0.3011
 1176   23.500   3701.37     2.4966     0.0454     0.9252     0.2350     2.8917     1.8678   376.0000     2.5157     0.2807
 1177   23.520   3702.49     2.7328     0.0534     0.8489     0.2352     3.0961     2.0303   376.3200     2.7198     0.2316
 1178   23.540   3703.51     3.0327     0.0566     0.8305     0.2354     3.3884     1.9235   376.6400     3.0118     0.2031
 1179   23.560   3704.54     3.4088     0.0569     0.8041     0.2356     3.7538     1.7297   376.9600     3.3768     0.1734
 1180   23.580   3705.52     4.1566     0.0502     0.6558     0.2358     4.4575     1.2726   377.2800     4.0802     0.1179
 1181   23.600   3706.55     5.5444     0.0441     0.4697     0.2360     5.7681     0.8516   377.6000     5.3905     0.0553
 1182   23.620   3707.73     7.1376     0.0453     0.3491     0.2362     7.2988     0.6718   377.9200     6.9208     0.0215
 1183   23.640   3708.78     8.3078     0.0598     0.2810     0.2364     8.4309     0.7416   378.2400     8.0527     0.0071
 1184   23.660   3709.87     8.9001     0.0903     0.2564     0.2366     9.0101     1.0245   378.5600     8.6315     0.0029
 1185   23.680   3710.85     8.9607     0.1109     0.2920     0.2368     9.0738     1.2443   378.8800     8.6949     0.0037
 1186   23.700   3711.95     8.9133     0.1387     0.3541     0.2370     9.0536     1.5590   379.2000     8.6744     0.0112
 1187   23.720   3713.00     9.2673     0.2145     0.4116     0.2372     9.4396     2.3626   379.5200     9.0600     0.0191
 1188   23.740   3714.11    10.0723     0.2525     0.4141     0.2374    10.2508     2.5946   379.8400     9.8709     0.0190
 1189   23.760   3715.17    10.5951     0.2693     0.3321     0.2376    10.7560     2.5657   380.1600    10.3758     0.0140
 1190   23.780   3733.93    11.2243     0.2520     0.0016     0.2378    11.2718     2.5233   380.4800    10.8913    -0.0094
 1191   23.800   3761.05    12.6497     0.1682    -0.2463     0.2380    12.5650     1.5341   380.8000    12.1842    -0.0361
 1192   23.820   3762.17    12.0119     0.1161    -0.3040     0.2382    11.8898     0.9458   381.1200    11.5087    -0.0460
 1193   23.840   3763.26    11.1823     0.0937    -0.3285     0.2384    11.0477     0.8089   381.4400    10.6663    -0.0524
 1194   23.860   3764.28    10.1144     0.0937    -0.3256     0.2386     9.9770     0.8890   381.7600     9.5952    -0.0590
 1195   23.880   3765.31     8.9453     0.0945    -0.3189     0.2388     8.8102     0.9995   382.0800     8.4281    -0.0666
 1196   23.900   3766.37     7.4604     0.0979    -0.3097     0.2390     7.3290     1.2052   382.4000     6.9466    -0.0797
 1197   23.920   3767.38     5.9034     0.0973    -0.3049     0.2392     5.7749     1.5335   382.7200     5.3922    -0.1013
 1198   23.940   3768.48     4.7845     0.1001    -0.3016     0.2394     4.6573     1.9243   383.0400     4.2742    -0.1271
 1199   23.960   3769.44     4.0941     0.0889    -0.2929     0.2396     3.9690     2.0564   383.3600     3.5856    -0.1500
 1200   23.980   3770.49     3.6027     0.0661    -0.2738     0.2398     3.4849     1.7542   383.6800     3.1012    -0.1678
 1201   24.000   3771.52     3.5183     0.0450    -0.2603     0.2400     3.4074     1.2768   384.0000     3.0234    -0.1667
 1202   24.020   3772.63     3.5405     0.0354    -0.2459     0.2402     3.4354     0.9996   384.3200     3.0511    -0.1608
 1203   24.040   3773.60     3.5085     0.0286    -0.2298     0.2404     3.4094     0.8128   384.6400     3.0247    -0.1575
 1204   24.060   3774.64     3.4883     0.0264    -0.1952     0.2406     3.4011     0.7530   384.9600     3.0162    -0.1485
 1205   24.080   3775.69     3.4356     0.0253    -0.1350     0.2408     3.3693     0.7312   385.2800     2.9841    -0.1335
 1206   24.100   3776.71     3.2836     0.0284    -0.0486     0.2410     3.2489     0.8516   385.6000     2.8633    -0.1130
 1207   24.120   3777.82     3.1887     0.0339     0.0398     0.2412     3.1917     1.0494   385.9200     2.8058    -0.0833
 1208   24.140   3778.83     2.9280     0.0299     0.2235     0.2414     2.9889     0.9990   386.2400     2.6026    -0.0367
 1209   24.160   3779.82     2.8188     0.0226     0.4577     0.2416     2.9751     0.8042   386.5600     2.5885     0.0502
 1210   24.180   3780.88     2.9828     0.0307     0.6494     0.2418     3.2348     1.0318   386.8800     2.8479     0.1255
 1211   24.200   3781.97     3.8967     0.0322     0.8302     0.2420     4.2150     0.8552   387.2000     3.8278     0.1347
 1212   24.220   3783.09     7.0282     0.0335     0.9129     0.2422     7.4309     0.5422   387.5200     7.0434     0.1039
 1213   24.240   3784.17    12.9189     0.0406     0.3279     0.2424    13.1255     0.3586   387.8400    12.7376     0.0202
 1214   24.260   3785.31    18.2570     0.0571    -0.1120     0.2426    18.2641     0.3488   388.1600    17.8760    -0.0123
 1215   24.280   3786.40    22.4688     0.0760    -0.1877     0.2428    22.3823     0.3565   388.4800    21.9938    -0.0204
 1216   24.300   3787.48    24.2256     0.0957    -0.1733     0.2430    24.1531     0.4021   388.8000    23.7643    -0.0175
 1217   24.320   3788.52    24.8062     0.1017    -0.1632     0.2432    24.7360     0.4119   389.1200    24.3469    -0.0169
 1218   24.340   3789.53    25.2318     0.1139    -0.1391     0.2434    25.1682     0.4526   389.4400    24.7787    -0.0159
 1219   24.360   3790.60    25.9711     0.1253    -0.1036     0.2436    25.9236     0.4852   389.7600    25.5339    -0.0140
 1220   24.380   3791.56    27.2596     0.1314    -0.0330     0.2438    27.2305     0.4832   390.0800    26.8405    -0.0117
 1221   24.400   3792.68    29.7731     0.1322     0.0476     0.2440    29.7811     0.4477   390.4000    29.3907    -0.0077
 1222   24.420   3793.75    33.1201     0.1401     0.1171     0.2442    33.1597     0.4244   390.7200    32.7690    -0.0046
 1223   24.440   3794.87    37.4987     0.1597     0.1057     0.2444    37.5521     0.4339   391.0400    37.1610    -0.0032
 1224   24.460   3796.00    41.7535     0.1876     0.0028     0.2446    41.7650     0.4505   391.3600    41.3736    -0.0053
 1225   24.480   3797.06    44.5769     0.2222    -0.0095     0.2448    44.5550     0.4978   391.6800    44.1633    -0.0067
 1226   24.500   3798.17    46.7166     0.2625     0.0671     0.2450    46.7283     0.5592   392.0000    46.3363    -0.0047
 1227   24.520   3799.33    48.0964     0.3009     0.1169     0.2452    48.1354     0.6243   392.3200    47.7430    -0.0032
 1228   24.540   3800.42    48.3745     0.3342     0.1669     0.2454    48.4471     0.6921   392.6400    48.0545    -0.0015
 1229   24.560   3801.54    47.8322     0.3558     0.1641     0.2456    47.9186     0.7469   392.9600    47.5257    -0.0008
 1230   24.580   3802.68    47.4429     0.3693     0.2097     0.2458    47.5219     0.7777   393.2800    47.1286    -0.0012
 1231   24.600   3803.82    47.6754     0.3854     0.2162     0.2460    47.7607     0.8055   393.6000    47.3671    -0.0009
 1232   24.620   3804.98    48.1549     0.4100     0.2269     0.2462    48.2507     0.8482   393.9200    47.8568    -0.0004
 1233   24.640   3806.23    48.6851     0.4320     0.1747     0.2464    48.7623     0.8849   394.2400    48.3680    -0.0013
 1234   24.660   3807.60    48.9894     0.4406     0.1435     0.2466    49.0424     0.8966   394.5600    48.6478    -0.0025
 1235   24.680   3808.83    49.3650     0.4561     0.1154     0.2468    49.4250     0.9241   394.8800    49.0302    -0.0021
 1236   24.700   3810.06    48.9091     0.4724     0.1270     0.2470    48.9739     0.9680   395.2000    48.5787    -0.0019
 1237   24.720   3811.24    48.5576     0.4760     0.1461     0.2472    48.6148     0.9811   395.5200    48.2193    -0.0023
 1238   24.740   3812.36    48.4287     0.4759     0.1082     0.2474    48.4795     0.9823   395.8400    48.0837    -0.0026
 1239   24.760   3813.44    48.4070     0.4756     0.1341     0.2476    48.4557     0.9824   396.1600    48.0596    -0.0027
 1240   24.780   3814.64    48.2380                0.0866     0.2478    48.2782              396.4800    47.8817    -0.0032
 1241   24.800   3815.81    47.9945                0.1664     0.2480    48.0611              396.8000    47.6643    -0.0019
 1242   24.820   3816.98    47.8912                0.1635     0.2482    47.9482              397.1200    47.5511    -0.0024
 1243   24.840   3818.23    47.6767                0.1775     0.2484    47.7465              397.4400    47.3490    -0.0017
 1244   24.860   3819.48    47.0891                0.2020     0.2486    47.1733              397.7600    46.7756    -0.0010
 1245   24.880   3820.50    46.6780                           0.2488    46.7601              398.0800    46.3620    -0.0012
 
 
