

 Program UNIPLOT                         version 05.36.02
 _______________
 (c) Fugro Netherlands Marine, Nootdorp, The Netherlands


 ASCII representation of data plotted on a graph.

 This ASCII file presents data interpolated to values per fixed depth interval.
 The data are corrected for the depth-offset differences between the various 
 transducers in the penetrometer.

 The records at the start of penetration may include no values or anomalous
 values where a depth offset implies incomplete penetration of a particular
 sensor into the ground.

 The records at the end of penetration may include no values for data channels
 where the transducer did not reach this depth.

 The reference level for test values is (1) the ground surface for onshore tests and (2) the seafloor for nearshore and offshore tests.

 UNICAS data file          : CPT-2029.000                            
 Output using command file : PlotASCII.cmd

 ASCII file created at : date          :31-Dec-2021
                         time          :10:15:21
 Project number                        :20024805
 Date of testing                       :16-Dec-2021
 Location                              :Hong Kong Offshore Wind Farm Project
 Test name                             :CPT-2029
 Penetrometer                          :F7.5CKE2HAW2/B/3284
 Serial no                             :1701-3284

 Table description:
 Column ID                             :Parameter name
 ___________________________________________________________________________________
 Rec                                   :Record ID, Record ID [-]
 Depth                                 :Depth, Depth [m]
 Time                                  :Time, Time [s]
 Cone                                  :Cone Resistance, Cone Resistance [MPa]
 Friction                              :Sleeve Friction, Sleeve Friction [MPa]
 Pore 2                                :Porewater Pressure, Porewater Pressure at Shoulder [MPa]
 HydroPress                            :Hydrostatic Pressure, Hydrostatic Pressure [MPa]
 qt                                    :Total Cone Resistance, Total Cone Resistance [MPa]
 Fric_ratio                            :Friction Ratio, Friction Ratio [%]
 SigmaVert                             :Vertical stress, Vertical stress [kPa] as specified in ground model
 Qnet                                  :Net Cone Resistance, Net Cone Resistance [MPa], unit weight as specified in ground model
 Bq                                    :Porewater Pressure Ratio, Porewater Pressure Ratio [-], unit weight as specified in ground model


 Data table:
  Rec    Depth      Time       Cone   Friction     Pore 2 HydroPress         qt Fric_ratio  SigmaVert       Qnet         Bq
   No        m         s        MPa        MPa        MPa        MPa        MPa          %        kPa        MPa          -
    1    0.000   3085.41     0.0000                           0.0000     0.0000                0.0000     0.0000           
    2    0.020   3086.36     0.0027                0.0012     0.0002     0.0031                0.3200     0.0028     0.2829
    3    0.040   3087.35     0.0038                0.0021     0.0004     0.0046                0.6400     0.0040     0.3747
    4    0.060   3088.34     0.0017     0.0005     0.0027     0.0006     0.0025    52.5982     0.9600     0.0016     0.9586
    5    0.080   3089.23     0.0067     0.0005     0.0040     0.0008     0.0082    25.8482     1.2800     0.0069     0.4505
    6    0.100   3090.22     0.0065     0.0006     0.0053     0.0010     0.0085    17.0466     1.6000     0.0069     0.7056
    7    0.120   3092.29     0.0106     0.0006     0.0059     0.0012     0.0130     8.2451     1.9200     0.0111     0.4213
    8    0.140   3094.56     0.0132     0.0005     0.0064     0.0014     0.0158     5.9955     2.2400     0.0136     0.3702
    9    0.160   3096.58     0.0157     0.0006     0.0062     0.0016     0.0185     5.3268     2.5600     0.0159     0.3104
   10    0.180   3097.76     0.0160     0.0005     0.0052     0.0018     0.0181     2.9053     2.8800     0.0153     0.2160
   11    0.200   3100.21     0.0202     0.0007     0.0055     0.0020     0.0225     3.5906     3.2000     0.0193     0.1866
   12    0.220   3102.67     0.0244     0.0010     0.0058     0.0022     0.0268     4.0099     3.5200     0.0233     0.1572
   13    0.240   3104.33     0.0270     0.0012     0.0072     0.0024     0.0299     4.2985     3.8400     0.0261     0.1706
   14    0.260   3105.32     0.0297     0.0011     0.0083     0.0026     0.0329     3.8780     4.1600     0.0288     0.1788
   15    0.280   3106.28     0.0290     0.0010     0.0093     0.0028     0.0329     3.4070     4.4800     0.0284     0.2206
   16    0.300   3113.05     0.0304     0.0012     0.0088     0.0030     0.0343     4.2205     4.8000     0.0295     0.2177
   17    0.320   3129.52     0.0372     0.0014     0.0080     0.0032     0.0407     5.1437     5.1200     0.0356     0.1589
   18    0.340   3145.99     0.0440     0.0013     0.0070     0.0034     0.0471     4.5090     5.4400     0.0417     0.1001
   19    0.360   3148.75     0.0438     0.0012     0.0065     0.0036     0.0465     2.7215     5.7600     0.0407     0.0694
   20    0.380   3149.71     0.0487     0.0012     0.0075     0.0038     0.0517     2.4442     6.0800     0.0456     0.0697
   21    0.400   3150.67     0.0417     0.0014     0.0093     0.0040     0.0454     3.2654     6.4000     0.0390     0.1240
   22    0.420   3151.62     0.0404     0.0016     0.0097     0.0042     0.0444     3.8939     6.7200     0.0377     0.1411
   23    0.440   3152.58     0.0418     0.0011     0.0103     0.0044     0.0460     2.6437     7.0400     0.0390     0.1455
   24    0.460   3153.53     0.0399     0.0017     0.0110     0.0046     0.0445     4.2208     7.3600     0.0372     0.1701
   25    0.480   3154.54     0.0395     0.0011     0.0118     0.0048     0.0443     2.8399     7.6800     0.0367     0.1804
   26    0.500   3155.45     0.0413     0.0013     0.0129     0.0050     0.0466     3.0656     8.0000     0.0386     0.1966
   27    0.520   3156.40     0.0404     0.0013     0.0133     0.0052     0.0459     3.3152     8.3200     0.0376     0.2140
   28    0.540   3157.36     0.0435     0.0016     0.0137     0.0054     0.0492     3.9070     8.6400     0.0405     0.2017
   29    0.560   3158.35     0.0408     0.0015     0.0135     0.0056     0.0464     3.4672     8.9600     0.0374     0.2040
   30    0.580   3159.33     0.0435     0.0014     0.0142     0.0058     0.0494     3.3519     9.2800     0.0401     0.2077
   31    0.600   3160.26     0.0416     0.0016     0.0147     0.0060     0.0476     3.5582     9.6000     0.0380     0.2181
   32    0.620   3161.27     0.0549     0.0014     0.0106     0.0062     0.0595     2.9719     9.9200     0.0495     0.1001
   33    0.640   3162.22     0.0440     0.0014     0.0151     0.0064     0.0498     3.1682    10.2400     0.0395     0.1893
   34    0.660   3163.20     0.0464     0.0015     0.0166     0.0066     0.0533     2.9829    10.5600     0.0427     0.2282
   35    0.680   3164.16     0.0450     0.0013     0.0173     0.0068     0.0522     2.7744    10.8800     0.0413     0.2505
   36    0.700   3165.12     0.0461     0.0012     0.0165     0.0070     0.0531     2.4953    11.2000     0.0419     0.2298
   37    0.720   3166.08     0.0459     0.0014     0.0152     0.0072     0.0525     3.0435    11.5200     0.0410     0.2086
   38    0.740   3167.05     0.0478     0.0013     0.0156     0.0074     0.0543     2.8527    11.8400     0.0425     0.1923
   39    0.760   3168.04     0.0454     0.0014     0.0175     0.0076     0.0525     3.0147    12.1600     0.0404     0.2327
   40    0.780   3169.00     0.0424     0.0017     0.0186     0.0078     0.0499     3.9757    12.4800     0.0374     0.2683
   41    0.800   3169.95     0.0455     0.0014     0.0198     0.0080     0.0535     2.9906    12.8000     0.0407     0.2749
   42    0.820   3170.91     0.0500     0.0016     0.0204     0.0082     0.0586     3.1409    13.1200     0.0455     0.2695
   43    0.840   3171.83     0.0482     0.0018     0.0201     0.0084     0.0568     3.7750    13.4400     0.0434     0.2796
   44    0.860   3172.79     0.0496     0.0018     0.0196     0.0086     0.0578     3.5115    13.7600     0.0440     0.2470
   45    0.880   3173.78     0.0467     0.0015     0.0211     0.0088     0.0554     3.0784    14.0800     0.0413     0.2853
   46    0.900   3174.74     0.0477     0.0016     0.0210     0.0090     0.0565     3.4574    14.4000     0.0421     0.2857
   47    0.920   3175.69     0.0499     0.0011     0.0217     0.0092     0.0590     2.0580    14.7200     0.0443     0.2806
   48    0.940   3176.67     0.0512     0.0012     0.0229     0.0094     0.0607     2.3236    15.0400     0.0456     0.2877
   49    0.960   3177.66     0.0531     0.0017     0.0234     0.0096     0.0628     3.3960    15.3600     0.0475     0.2874
   50    0.980   3178.61     0.0585     0.0014     0.0237     0.0098     0.0685     2.4510    15.6800     0.0528     0.2647
   51    1.000   3179.58     0.0593     0.0014     0.0225     0.0100     0.0691     2.3160    16.0000     0.0531     0.2510
   52    1.020   3180.52     0.0603     0.0016     0.0228     0.0102     0.0700     2.6269    16.3200     0.0537     0.2399
   53    1.040   3181.47     0.0584     0.0017     0.0231     0.0104     0.0678     2.7702    16.6400     0.0512     0.2378
   54    1.060   3182.47     0.0585     0.0017     0.0231     0.0106     0.0681     2.9084    16.9600     0.0512     0.2424
   55    1.080   3183.42     0.0587     0.0020     0.0244     0.0108     0.0690     3.4666    17.2800     0.0517     0.2638
   56    1.100   3184.38     0.0591     0.0017     0.0240     0.0110     0.0692     2.8991    17.6000     0.0516     0.2528
   57    1.120   3185.34     0.0576     0.0021     0.0246     0.0112     0.0678     3.5049    17.9200     0.0499     0.2637
   58    1.140   3186.34     0.0606     0.0020     0.0254     0.0114     0.0711     3.4387    18.2400     0.0528     0.2564
   59    1.160   3187.30     0.0620     0.0021     0.0260     0.0116     0.0729     3.2935    18.5600     0.0543     0.2620
   60    1.180   3188.26     0.0626     0.0014     0.0254     0.0118     0.0734     2.2309    18.8800     0.0545     0.2553
   61    1.200   3189.21     0.0647     0.0020     0.0272     0.0120     0.0758     3.2085    19.2000     0.0566     0.2529
   62    1.220   3190.17     0.0715     0.0017     0.0275     0.0122     0.0831     2.4130    19.5200     0.0636     0.2451
   63    1.240   3191.13     0.0743     0.0017     0.0271     0.0124     0.0855     2.3363    19.8400     0.0656     0.2183
   64    1.260   3192.11     0.0714     0.0023     0.0261     0.0126     0.0825     3.0703    20.1600     0.0624     0.2230
   65    1.280   3193.11     0.0687     0.0019     0.0212     0.0128     0.0780     2.7509    20.4800     0.0575     0.1626
   66    1.300   3194.07     0.0640     0.0022     0.0244     0.0130     0.0735     3.3278    20.8000     0.0527     0.1806
   67    1.320   3195.03     0.0651     0.0026     0.0255     0.0132     0.0761     4.1228    21.1200     0.0550     0.2368
   68    1.340   3196.00     0.0793     0.0026     0.0312     0.0134     0.0919     3.5575    21.4400     0.0704     0.2387
   69    1.360   3196.96     0.1093     0.0025     0.0348     0.0136     0.1231     2.4951    21.7600     0.1014     0.1900
   70    1.380   3197.95     0.1267     0.0027     0.0275     0.0138     0.1389     2.2047    22.0800     0.1168     0.1291
   71    1.400   3198.90     0.1245     0.0026     0.0264     0.0140     0.1356     2.0529    22.4000     0.1132     0.1109
   72    1.420   3199.86     0.1142     0.0027     0.0282     0.0142     0.1252     2.2203    22.7200     0.1024     0.1151
   73    1.440   3200.82     0.0997     0.0025     0.0317     0.0144     0.1127     2.4312    23.0400     0.0897     0.1851
   74    1.460   3201.77     0.1005     0.0025     0.0358     0.0146     0.1147     2.4573    23.3600     0.0914     0.2105
   75    1.480   3202.78     0.1125     0.0015     0.0403     0.0148     0.1289     1.4269    23.6800     0.1053     0.2322
   76    1.500   3203.73     0.1152     0.0025     0.0401     0.0150     0.1323     2.1621    24.0000     0.1083     0.2380
   77    1.520   3204.72     0.1179     0.0028     0.0390     0.0152     0.1345     2.4427    24.3200     0.1102     0.2203
   78    1.540   3205.67     0.1173     0.0033     0.0344     0.0154     0.1320     2.7581    24.6400     0.1074     0.1817
   79    1.560   3206.60     0.1220     0.0033     0.0402     0.0156     0.1381     2.7493    24.9600     0.1131     0.2012
   80    1.580   3207.56     0.1304     0.0031     0.0371     0.0158     0.1462     2.4690    25.2800     0.1209     0.1809
   81    1.600   3208.53     0.1269     0.0034     0.0359     0.0160     0.1426     2.6070    25.6000     0.1170     0.1822
   82    1.620   3209.52     0.1285     0.0037     0.0384     0.0162     0.1446     2.8695    25.9200     0.1186     0.1852
   83    1.640   3210.49     0.1252     0.0034     0.0396     0.0164     0.1416     2.6615    26.2400     0.1153     0.1968
   84    1.660   3211.45     0.1215     0.0037     0.0396     0.0166     0.1380     3.0401    26.5600     0.1115     0.2048
   85    1.680   3212.43     0.1203     0.0039     0.0405     0.0168     0.1368     3.2975    26.8800     0.1099     0.2033
   86    1.700   3213.36     0.1314     0.0032     0.0410     0.0170     0.1486     2.5373    27.2000     0.1214     0.1979
   87    1.720   3214.35     0.1330     0.0031     0.0364     0.0172     0.1492     2.2248    27.5200     0.1216     0.1749
   88    1.740   3215.30     0.1346     0.0034     0.0339     0.0174     0.1486     2.3812    27.8400     0.1207     0.1317
   89    1.760   3216.27     0.1278     0.0031     0.0391     0.0176     0.1434     2.4103    28.1600     0.1152     0.1703
   90    1.780   3217.23     0.1287     0.0033     0.0442     0.0178     0.1467     2.5228    28.4800     0.1182     0.2108
   91    1.800   3218.18     0.1378     0.0034     0.0380     0.0180     0.1547     2.4753    28.8000     0.1259     0.1768
   92    1.820   3219.14     0.1388     0.0033     0.0466     0.0182     0.1570     2.3945    29.1200     0.1278     0.1955
   93    1.840   3220.10     0.1378     0.0038     0.0452     0.0184     0.1576     2.7111    29.4400     0.1281     0.2234
   94    1.860   3221.06     0.1323     0.0035     0.0374     0.0186     0.1492     2.6363    29.7600     0.1195     0.1809
   95    1.880   3222.01     0.1204     0.0034     0.0404     0.0188     0.1367     2.7050    30.0800     0.1066     0.1880
   96    1.900   3222.97     0.1128     0.0033     0.0454     0.0190     0.1309     2.8353    30.4000     0.1005     0.2378
   97    1.920   3223.93     0.1186     0.0037     0.0500     0.0192     0.1391     3.1777    30.7200     0.1084     0.2729
   98    1.940   3224.89     0.1269     0.0035     0.0524     0.0194     0.1489     2.7626    31.0400     0.1178     0.2801
   99    1.960   3225.84     0.1379     0.0033     0.0520     0.0196     0.1601     2.4472    31.3600     0.1287     0.2578
  100    1.980   3226.82     0.1515     0.0035     0.0476     0.0198     0.1723     2.3565    31.6800     0.1406     0.2115
  101    2.000   3227.79     0.1485     0.0038     0.0418     0.0200     0.1667     2.5847    32.0000     0.1347     0.1730
  102    2.020   3228.77     0.1390     0.0037     0.0438     0.0202     0.1577     2.5739    32.3200     0.1253     0.1938
  103    2.040   3229.73     0.1329     0.0041     0.0392     0.0204     0.1495     3.0415    32.6400     0.1169     0.1638
  104    2.060   3230.67     0.1252     0.0036     0.0444     0.0206     0.1432     2.8702    32.9600     0.1103     0.2027
  105    2.080   3231.66     0.1356     0.0037     0.0481     0.0208     0.1550     2.7602    33.2800     0.1217     0.2077
  106    2.100   3232.63     0.1369     0.0036     0.0532     0.0210     0.1585     2.5927    33.6000     0.1249     0.2443
  107    2.120   3233.56     0.1339     0.0035     0.0516     0.0212     0.1567     2.6094    33.9200     0.1228     0.2704
  108    2.140   3234.54     0.1410     0.0036     0.0404     0.0214     0.1587     2.5655    34.2400     0.1244     0.1660
  109    2.160   3235.51     0.1394     0.0036     0.0488     0.0216     0.1581     2.5390    34.5600     0.1236     0.1864
  110    2.180   3236.51     0.1340     0.0034     0.0448     0.0218     0.1544     2.4927    34.8800     0.1195     0.2237
  111    2.200   3237.48     0.1270     0.0039     0.0417     0.0220     0.1444     3.0606    35.2000     0.1092     0.1787
  112    2.220   3238.42     0.1147     0.0036     0.0411     0.0222     0.1313     3.0259    35.5200     0.0958     0.1812
  113    2.240   3239.37     0.1029     0.0037     0.0438     0.0224     0.1205     3.5043    35.8400     0.0847     0.2303
  114    2.260   3240.29     0.1013     0.0043     0.0485     0.0226     0.1211     4.3216    36.1600     0.0849     0.2885
  115    2.280   3241.27     0.1206     0.0044     0.0533     0.0228     0.1422     3.8752    36.4800     0.1057     0.2707
  116    2.300   3242.27     0.1387     0.0048     0.0570     0.0230     0.1625     3.4582    36.8000     0.1257     0.2673
  117    2.320   3243.23     0.1467     0.0047     0.0488     0.0232     0.1688     3.2530    37.1200     0.1317     0.2243
  118    2.340   3244.21     0.1363     0.0049     0.0413     0.0234     0.1541     3.5921    37.4400     0.1166     0.1630
  119    2.360   3245.17     0.1221     0.0039     0.0448     0.0236     0.1404     2.9375    37.7600     0.1027     0.1973
  120    2.380   3246.12     0.1211     0.0044     0.0490     0.0238     0.1408     3.3475    38.0800     0.1028     0.2251
  121    2.400   3247.08     0.1289     0.0049     0.0508     0.0240     0.1502     3.7575    38.4000     0.1118     0.2391
  122    2.420   3248.04     0.1285     0.0043     0.0580     0.0242     0.1518     3.4061    38.7200     0.1131     0.2768
  123    2.440   3249.00     0.1349     0.0043     0.0553     0.0244     0.1594     3.1884    39.0400     0.1204     0.2808
  124    2.460   3250.78     0.1438     0.0044     0.0494     0.0246     0.1640     3.1268    39.3600     0.1246     0.1897
  125    2.480   3267.72     0.1325     0.0046     0.0530     0.0248     0.1542     3.1809    39.6800     0.1145     0.2426
  126    2.500   3284.66     0.1212     0.0050     0.0566     0.0250     0.1444     3.4805    40.0000     0.1044     0.2955
  127    2.520   3293.42     0.1157     0.0047     0.0486     0.0252     0.1379     4.0745    40.3200     0.0976     0.2839
  128    2.540   3294.38     0.1068     0.0046     0.0463     0.0254     0.1267     4.0872    40.6400     0.0861     0.2553
  129    2.560   3295.34     0.0991     0.0043     0.0527     0.0256     0.1201     4.1514    40.9600     0.0791     0.3094
  130    2.580   3296.29     0.0886     0.0045     0.0611     0.0258     0.1134     4.9174    41.2800     0.0721     0.4601
  131    2.600   3297.27     0.0799     0.0042     0.0634     0.0260     0.1064     5.2042    41.6000     0.0648     0.5711
  132    2.620   3298.26     0.0822     0.0039     0.0668     0.0262     0.1096     4.6971    41.9200     0.0677     0.5772
  133    2.640   3299.26     0.0940     0.0040     0.0679     0.0264     0.1225     4.5412    42.2400     0.0803     0.5190
  134    2.660   3300.20     0.1135     0.0039     0.0698     0.0266     0.1423     3.6738    42.5600     0.0998     0.4220
  135    2.680   3301.12     0.1171     0.0043     0.0679     0.0268     0.1463     3.7065    42.8800     0.1035     0.4133
  136    2.700   3302.13     0.1207     0.0050     0.0578     0.0270     0.1461     4.2819    43.2000     0.1029     0.3260
  137    2.720   3303.08     0.1306     0.0048     0.0589     0.0272     0.1545     3.6804    43.5200     0.1110     0.2668
  138    2.740   3304.02     0.1394     0.0052     0.0562     0.0274     0.1635     3.8276    43.8400     0.1196     0.2510
  139    2.760   3304.99     0.1484     0.0053     0.0625     0.0276     0.1742     3.6101    44.1600     0.1301     0.2603
  140    2.780   3305.94     0.1618     0.0054     0.0582     0.0278     0.1870     3.6454    44.4800     0.1425     0.2263
  141    2.800   3306.94     0.1387     0.0055     0.0670     0.0280     0.1649     3.8861    44.8000     0.1201     0.2871
  142    2.820   3307.90     0.1466     0.0044     0.0737     0.0282     0.1760     3.3866    45.1200     0.1309     0.3188
  143    2.840   3308.85     0.1268     0.0049     0.0775     0.0284     0.1589     3.7308    45.4400     0.1135     0.4232
  144    2.860   3309.81     0.1324     0.0050     0.0801     0.0286     0.1658     3.7433    45.7600     0.1200     0.4238
  145    2.880   3310.76     0.1431     0.0046     0.0824     0.0288     0.1775     3.3850    46.0800     0.1314     0.4044
  146    2.900   3311.72     0.1691     0.0067     0.0800     0.0290     0.2032     4.3806    46.4000     0.1568     0.3354
  147    2.920   3312.68     0.1900     0.0065     0.0524     0.0292     0.2174     3.6859    46.7200     0.1707     0.2148
  148    2.940   3313.66     0.2241     0.0066     0.0501     0.0294     0.2442     3.1506    47.0400     0.1972     0.0929
  149    2.960   3314.62     0.2231     0.0072     0.0408     0.0296     0.2409     3.2296    47.3600     0.1935     0.0655
  150    2.980   3315.58     0.2483     0.0070     0.0415     0.0298     0.2637     2.8877    47.6800     0.2160     0.0317
  151    3.000   3316.57     0.2021     0.0066     0.0595     0.0300     0.2235     2.8410    48.0000     0.1755     0.1280
  152    3.020   3317.51     0.1536     0.0059     0.0628     0.0302     0.1793     3.7896    48.3200     0.1310     0.2355
  153    3.040   3318.49     0.1536     0.0058     0.0683     0.0304     0.1813     3.7064    48.6400     0.1327     0.2695
  154    3.060   3319.45     0.1519     0.0059     0.0748     0.0306     0.1822     3.8565    48.9600     0.1333     0.3121
  155    3.080   3320.38     0.1562     0.0062     0.0796     0.0308     0.1886     4.0796    49.2800     0.1394     0.3330
  156    3.100   3321.33     0.1543     0.0065     0.0820     0.0310     0.1885     4.1835    49.6000     0.1389     0.3633
  157    3.120   3322.29     0.1564     0.0063     0.0782     0.0312     0.1900     4.1308    49.9200     0.1401     0.3474
  158    3.140   3323.29     0.1495     0.0057     0.0721     0.0314     0.1801     3.8224    50.2400     0.1298     0.3188
  159    3.160   3324.27     0.1448     0.0064     0.0739     0.0316     0.1754     4.3183    50.5600     0.1248     0.3313
  160    3.180   3325.24     0.1373     0.0058     0.0749     0.0318     0.1690     4.1951    50.8800     0.1182     0.3703
  161    3.200   3326.17     0.1325     0.0054     0.0757     0.0320     0.1638     4.0043    51.2000     0.1126     0.3777
  162    3.220   3327.15     0.1282     0.0050     0.0801     0.0322     0.1611     3.8276    51.5200     0.1095     0.4203
  163    3.240   3328.09     0.1287     0.0050     0.0788     0.0324     0.1622     3.9852    51.8400     0.1103     0.4279
  164    3.260   3329.06     0.1262     0.0052     0.0805     0.0326     0.1592     4.0775    52.1600     0.1070     0.4298
  165    3.280   3330.05     0.1281     0.0046     0.0776     0.0328     0.1616     3.6164    52.4800     0.1091     0.4310
  166    3.300   3331.00     0.1315     0.0053     0.0791     0.0330     0.1648     4.0047    52.8000     0.1120     0.4134
  167    3.320   3331.96     0.1287     0.0052     0.0806     0.0332     0.1620     4.0566    53.1200     0.1088     0.4229
  168    3.340   3332.95     0.1325     0.0052     0.0807     0.0334     0.1661     3.9276    53.4400     0.1127     0.4131
  169    3.360   3333.90     0.1404     0.0056     0.0806     0.0336     0.1747     4.0982    53.7600     0.1210     0.3983
  170    3.380   3334.88     0.1437     0.0048     0.0794     0.0338     0.1752     3.3915    54.0800     0.1211     0.3397
  171    3.400   3335.83     0.1325     0.0051     0.0844     0.0340     0.1680     3.8488    54.4000     0.1136     0.4445
  172    3.420   3336.80     0.1299     0.0052     0.0839     0.0342     0.1652     4.0867    54.7200     0.1105     0.4506
  173    3.440   3337.78     0.1261     0.0053     0.0870     0.0344     0.1619     4.2237    55.0400     0.1069     0.4755
  174    3.460   3338.72     0.1216     0.0053     0.0905     0.0346     0.1593     4.2303    55.3600     0.1039     0.5309
  175    3.480   3339.69     0.1228     0.0055     0.0905     0.0348     0.1610     4.5330    55.6800     0.1053     0.5324
  176    3.500   3340.66     0.1187     0.0051     0.0929     0.0350     0.1572     4.3012    56.0000     0.1012     0.5601
  177    3.520   3341.64     0.1178     0.0044     0.0967     0.0352     0.1579     3.7636    56.3200     0.1016     0.5940
  178    3.540   3342.59     0.1220     0.0047     0.0989     0.0354     0.1631     3.8518    56.6400     0.1064     0.5858
  179    3.560   3343.58     0.1233     0.0045     0.1018     0.0356     0.1658     3.7366    56.9600     0.1089     0.6024
  180    3.580   3344.54     0.1226     0.0043     0.1021     0.0358     0.1660     3.5120    57.2800     0.1087     0.6212
  181    3.600   3345.49     0.1245     0.0043     0.1021     0.0360     0.1675     3.5352    57.6000     0.1099     0.6045
  182    3.620   3346.50     0.1289     0.0044     0.0945     0.0362     0.1699     3.4384    57.9200     0.1120     0.5475
  183    3.640   3347.45     0.1336     0.0045     0.0938     0.0364     0.1727     3.3710    58.2400     0.1145     0.4962
  184    3.660   3348.45     0.1350     0.0053     0.0948     0.0366     0.1755     3.9486    58.5600     0.1169     0.5103
  185    3.680   3349.40     0.1319     0.0052     0.0929     0.0368     0.1711     3.9506    58.8800     0.1123     0.5050
  186    3.700   3350.35     0.1457     0.0052     0.0897     0.0370     0.1841     3.7042    59.2000     0.1249     0.4375
  187    3.720   3351.31     0.1426     0.0055     0.0871     0.0372     0.1792     3.9215    59.5200     0.1197     0.4166
  188    3.740   3352.31     0.1439     0.0058     0.0890     0.0374     0.1810     4.0377    59.8400     0.1211     0.4193
  189    3.760   3353.27     0.1418     0.0057     0.0883     0.0376     0.1790     3.9846    60.1600     0.1189     0.4289
  190    3.780   3354.26     0.1461     0.0054     0.0864     0.0378     0.1827     3.7738    60.4800     0.1222     0.4038
  191    3.800   3355.23     0.1505     0.0062     0.0820     0.0380     0.1855     4.1571    60.8000     0.1247     0.3648
  192    3.820   3356.19     0.1510     0.0061     0.0849     0.0382     0.1858     3.9306    61.1200     0.1247     0.3599
  193    3.840   3357.17     0.1473     0.0057     0.0880     0.0384     0.1841     3.8371    61.4400     0.1226     0.4014
  194    3.860   3358.11     0.1452     0.0056     0.0862     0.0386     0.1816     3.8289    61.7600     0.1199     0.4016
  195    3.880   3359.08     0.1439     0.0051     0.0845     0.0388     0.1796     3.5281    62.0800     0.1175     0.3922
  196    3.900   3360.05     0.1381     0.0054     0.0842     0.0390     0.1737     3.8091    62.4000     0.1113     0.4114
  197    3.920   3361.05     0.1349     0.0056     0.0867     0.0392     0.1695     4.0763    62.7200     0.1068     0.4065
  198    3.940   3362.00     0.1275     0.0050     0.0889     0.0394     0.1640     3.9247    63.0400     0.1010     0.4708
  199    3.960   3362.96     0.1215     0.0057     0.0912     0.0396     0.1600     4.6304    63.3600     0.0967     0.5380
  200    3.980   3363.96     0.1279     0.0053     0.0812     0.0398     0.1641     4.2310    63.6800     0.1005     0.4626
  201    4.000   3364.92     0.1303     0.0053     0.0846     0.0400     0.1659     4.0199    64.0000     0.1019     0.4397
  202    4.020   3365.89     0.1297     0.0055     0.0847     0.0402     0.1647     4.1723    64.3200     0.1004     0.4303
  203    4.040   3366.82     0.1350     0.0052     0.0873     0.0404     0.1712     3.9265    64.6400     0.1066     0.4302
  204    4.060   3367.80     0.1349     0.0055     0.0893     0.0406     0.1725     4.0605    64.9600     0.1075     0.4551
  205    4.080   3368.79     0.1389     0.0057     0.0825     0.0408     0.1748     4.1037    65.2800     0.1096     0.4080
  206    4.100   3369.75     0.1484     0.0058     0.0760     0.0410     0.1808     3.9468    65.6000     0.1152     0.3147
  207    4.120   3370.74     0.1584     0.0059     0.0755     0.0412     0.1902     3.7855    65.9200     0.1243     0.2785
  208    4.140   3371.68     0.1663     0.0060     0.0773     0.0414     0.1983     3.6487    66.2400     0.1321     0.2626
  209    4.160   3372.65     0.1675     0.0064     0.0798     0.0416     0.2007     3.9040    66.5600     0.1341     0.2789
  210    4.180   3373.63     0.1650     0.0069     0.0795     0.0418     0.1986     4.1755    66.8800     0.1317     0.2903
  211    4.200   3374.58     0.1604     0.0068     0.0829     0.0420     0.1948     4.1618    67.2000     0.1276     0.3136
  212    4.220   3375.55     0.1562     0.0067     0.0790     0.0422     0.1897     4.2668    67.5200     0.1221     0.3066
  213    4.240   3376.52     0.1577     0.0067     0.0788     0.0424     0.1912     4.2305    67.8400     0.1233     0.3028
  214    4.260   3385.30     0.1493     0.0063     0.0796     0.0426     0.1826     4.0897    68.1600     0.1144     0.3221
  215    4.280   3400.06     0.1425     0.0057     0.0807     0.0428     0.1762     3.7114    68.4800     0.1077     0.3517
  216    4.300   3414.82     0.1356     0.0052     0.0813     0.0430     0.1698     3.4808    68.8000     0.1010     0.3813
  217    4.320   3416.79     0.1347     0.0053     0.0830     0.0432     0.1693     3.9085    69.1200     0.1002     0.3922
  218    4.340   3417.75     0.1298     0.0050     0.0837     0.0434     0.1650     3.6913    69.4400     0.0955     0.4240
  219    4.360   3418.69     0.1271     0.0054     0.0787     0.0436     0.1611     4.2556    69.7600     0.0913     0.4075
  220    4.380   3419.64     0.1378     0.0051     0.0716     0.0438     0.1692     3.7395    70.0800     0.0991     0.3108
  221    4.400   3420.63     0.1416     0.0057     0.0693     0.0440     0.1704     4.1176    70.4000     0.1000     0.2469
  222    4.420   3421.57     0.1457     0.0061     0.0719     0.0442     0.1756     4.2124    70.7200     0.1049     0.2566
  223    4.440   3422.49     0.1465     0.0058     0.0711     0.0444     0.1768     3.9939    71.0400     0.1058     0.2638
  224    4.460   3423.51     0.1481     0.0061     0.0721     0.0446     0.1787     4.0630    71.3600     0.1074     0.2641
  225    4.480   3424.42     0.1359     0.0063     0.0657     0.0448     0.1654     4.5701    71.6800     0.0937     0.2718
  226    4.500   3425.46     0.1509     0.0060     0.0626     0.0450     0.1763     4.0634    72.0000     0.1043     0.1480
  227    4.520   3426.41     0.1441     0.0064     0.0705     0.0452     0.1732     4.3270    72.3200     0.1009     0.2389
  228    4.540   3427.39     0.1424     0.0063     0.0747     0.0454     0.1730     4.3541    72.6400     0.1003     0.2725
  229    4.560   3428.34     0.1490     0.0061     0.0814     0.0456     0.1824     4.1158    72.9600     0.1094     0.3088
  230    4.580   3429.29     0.1510     0.0060     0.0872     0.0458     0.1868     3.9818    73.2800     0.1135     0.3477
  231    4.600   3430.25     0.1482     0.0067     0.0938     0.0460     0.1867     4.5364    73.6000     0.1131     0.4027
  232    4.620   3431.21     0.1457     0.0060     0.0973     0.0462     0.1861     3.9795    73.9200     0.1122     0.4462
  233    4.640   3432.20     0.1437     0.0057     0.1029     0.0464     0.1860     3.9019    74.2400     0.1118     0.4873
  234    4.660   3433.15     0.1411     0.0056     0.1070     0.0466     0.1858     3.9706    74.5600     0.1112     0.5363
  235    4.680   3434.15     0.1386     0.0057     0.1096     0.0468     0.1841     4.1014    74.8800     0.1092     0.5640
  236    4.700   3435.11     0.1370     0.0059     0.1090     0.0470     0.1831     4.2770    75.2000     0.1079     0.5830
  237    4.720   3436.07     0.1374     0.0060     0.1086     0.0472     0.1829     4.3248    75.5200     0.1074     0.5702
  238    4.740   3437.05     0.1390     0.0057     0.1093     0.0474     0.1846     4.0878    75.8400     0.1087     0.5628
  239    4.760   3438.01     0.1328     0.0056     0.1122     0.0476     0.1793     4.1719    76.1600     0.1031     0.6132
  240    4.780   3438.98     0.1257     0.0050     0.1134     0.0478     0.1732     3.8692    76.4800     0.0967     0.6737
  241    4.800   3439.94     0.1254     0.0052     0.1164     0.0480     0.1739     4.2164    76.8000     0.0971     0.6950
  242    4.820   3440.90     0.1201     0.0051     0.1179     0.0482     0.1696     4.2654    77.1200     0.0925     0.7542
  243    4.840   3441.87     0.1227     0.0050     0.1170     0.0484     0.1718     4.0087    77.4400     0.0943     0.7256
  244    4.860   3442.84     0.1338     0.0049     0.1194     0.0486     0.1835     3.7195    77.7600     0.1058     0.6594
  245    4.880   3443.78     0.1458     0.0053     0.1152     0.0488     0.1951     3.8893    78.0800     0.1170     0.5877
  246    4.900   3444.74     0.1655     0.0045     0.1038     0.0490     0.2107     2.7494    78.4000     0.1323     0.4439
  247    4.920   3445.73     0.1684     0.0047     0.1012     0.0492     0.2109     2.7945    78.7200     0.1321     0.3929
  248    4.940   3446.67     0.1655     0.0051     0.1054     0.0494     0.2089     2.9815    79.0400     0.1299     0.4156
  249    4.960   3447.69     0.1586     0.0051     0.1088     0.0496     0.2039     3.1671    79.3600     0.1245     0.4668
  250    4.980   3448.65     0.1498     0.0051     0.1120     0.0498     0.1961     3.3435    79.6800     0.1164     0.5193
  251    5.000   3449.59     0.1422     0.0052     0.1150     0.0500     0.1907     3.6460    80.0000     0.1107     0.5907
  252    5.020   3450.56     0.1374     0.0053     0.1181     0.0502     0.1868     3.8232    80.3200     0.1065     0.6322
  253    5.040   3451.54     0.1290     0.0052     0.1223     0.0504     0.1788     4.0336    80.6400     0.0982     0.6956
  254    5.060   3452.54     0.1300     0.0052     0.1287     0.0506     0.1835     3.9863    80.9600     0.1025     0.7491
  255    5.080   3453.49     0.1275     0.0055     0.1258     0.0508     0.1810     4.2683    81.2800     0.0997     0.7674
  256    5.100   3454.42     0.1272     0.0054     0.1208     0.0510     0.1787     4.2913    81.6000     0.0971     0.7376
  257    5.120   3455.42     0.1247     0.0053     0.1225     0.0512     0.1762     4.2647    81.9200     0.0942     0.7567
  258    5.140   3456.37     0.1249     0.0057     0.1235     0.0514     0.1760     4.6853    82.2400     0.0938     0.7495
  259    5.160   3457.37     0.1229     0.0051     0.1270     0.0516     0.1757     4.0139    82.5600     0.0932     0.7974
  260    5.180   3458.32     0.1256     0.0045     0.1309     0.0518     0.1799     3.6078    82.8800     0.0971     0.7982
  261    5.200   3459.33     0.1283     0.0048     0.1294     0.0520     0.1835     3.7866    83.2000     0.1003     0.7937
  262    5.220   3460.28     0.1322     0.0055     0.1312     0.0522     0.1868     4.2017    83.5200     0.1033     0.7530
  263    5.240   3461.17     0.1318     0.0058     0.1338     0.0524     0.1876     4.3063    83.8400     0.1038     0.7761
  264    5.260   3462.04     0.1406     0.0056     0.1330     0.0526     0.1966     4.1307    84.1600     0.1125     0.7198
  265    5.280   3462.94     0.1391     0.0058     0.1297     0.0528     0.1948     4.1428    84.4800     0.1104     0.7244
  266    5.300   3463.90     0.1472     0.0057     0.1290     0.0530     0.2012     3.8651    84.8000     0.1164     0.6491
  267    5.320   3464.85     0.1502     0.0059     0.1300     0.0532     0.2052     4.0620    85.1200     0.1200     0.6475
  268    5.340   3465.89     0.1529     0.0057     0.1278     0.0534     0.2067     3.8024    85.4400     0.1212     0.6152
  269    5.360   3466.84     0.1589     0.0063     0.1317     0.0536     0.2132     4.0944    85.7600     0.1274     0.5935
  270    5.380   3467.80     0.1665     0.0067     0.1386     0.0538     0.2240     4.0413    86.0800     0.1379     0.6021
  271    5.400   3468.75     0.1698     0.0067     0.1341     0.0540     0.2271     3.9888    86.4000     0.1407     0.5859
  272    5.420   3469.70     0.1721     0.0064     0.1306     0.0542     0.2270     3.7440    86.7200     0.1403     0.5457
  273    5.440   3470.69     0.1734     0.0063     0.1336     0.0544     0.2292     3.6509    87.0400     0.1422     0.5515
  274    5.460   3471.68     0.1709     0.0063     0.1356     0.0546     0.2281     3.6260    87.3600     0.1407     0.5789
  275    5.480   3472.64     0.1791     0.0068     0.1336     0.0548     0.2345     3.8914    87.6800     0.1469     0.5257
  276    5.500   3473.58     0.1950     0.0070     0.1376     0.0550     0.2524     3.6824    88.0000     0.1644     0.4973
  277    5.520   3474.36     0.2133     0.0063     0.1344     0.0552     0.2701     3.1297    88.3200     0.1817     0.4402
  278    5.540   3475.17     0.2069     0.0057     0.1244     0.0554     0.2610     2.7497    88.6400     0.1723     0.4252
  279    5.560   3476.05     0.2032     0.0057     0.1263     0.0556     0.2550     2.7900    88.9600     0.1660     0.4075
  280    5.580   3477.00     0.1980     0.0059     0.1360     0.0558     0.2542     3.0138    89.2800     0.1650     0.4742
  281    5.600   3477.96     0.2127     0.0062     0.1408     0.0560     0.2713     2.9131    89.6000     0.1817     0.4593
  282    5.620   3478.95     0.2148     0.0062     0.1367     0.0562     0.2735     2.9118    89.9200     0.1836     0.4544
  283    5.640   3479.97     0.2172     0.0053     0.1323     0.0564     0.2734     2.4290    90.2400     0.1831     0.4218
  284    5.660   3480.97     0.1988     0.0054     0.1383     0.0566     0.2557     2.5886    90.5600     0.1651     0.4773
  285    5.680   3481.93     0.1888     0.0053     0.1455     0.0568     0.2481     2.8033    90.8800     0.1572     0.5359
  286    5.700   3482.87     0.1837     0.0053     0.1528     0.0570     0.2473     2.8277    91.2000     0.1561     0.6050
  287    5.720   3483.81     0.1892     0.0051     0.1550     0.0572     0.2545     2.6822    91.5200     0.1630     0.6028
  288    5.740   3484.79     0.1921     0.0050     0.1459     0.0574     0.2541     2.6648    91.8400     0.1623     0.5567
  289    5.760   3485.77     0.1811     0.0050     0.1463     0.0576     0.2426     2.6945    92.1600     0.1505     0.5914
  290    5.780   3486.73     0.1639     0.0048     0.1378     0.0578     0.2235     2.8619    92.4800     0.1310     0.6414
  291    5.800   3487.68     0.1607     0.0057     0.1294     0.0580     0.2158     3.5345    92.8000     0.1230     0.5951
  292    5.820   3488.67     0.1704     0.0049     0.1283     0.0582     0.2243     2.9819    93.1200     0.1312     0.5359
  293    5.840   3489.62     0.1853     0.0047     0.1206     0.0584     0.2378     2.6537    93.4400     0.1444     0.4641
  294    5.860   3490.57     0.2277     0.0049     0.1077     0.0586     0.2737     2.2815    93.7600     0.1799     0.2850
  295    5.880   3491.51     0.2679     0.0049     0.0969     0.0588     0.3104     1.8922    94.0800     0.2164     0.1964
  296    5.900   3492.47     0.2654     0.0061     0.0758     0.0590     0.3019     2.3048    94.4000     0.2075     0.1339
  297    5.920   3493.46     0.3017     0.0064     0.0582     0.0592     0.3273     2.1847    94.7200     0.2326     0.0081
  298    5.940   3494.45     0.2951     0.0069     0.0556     0.0594     0.3192     2.2636    95.0400     0.2242    -0.0087
  299    5.960   3495.43     0.2670     0.0080     0.0489     0.0596     0.2886     2.8923    95.3600     0.1933    -0.0425
  300    5.980   3496.39     0.2319     0.0088     0.0351     0.0598     0.2501     3.5993    95.6800     0.1544    -0.1060
  301    6.000   3497.35     0.2033     0.0088     0.0463     0.0600     0.2195     4.1695    96.0000     0.1235    -0.1735
  302    6.020   3498.35     0.1880     0.0078     0.0504     0.0602     0.2099     4.1271    96.3200     0.1135    -0.0713
  303    6.040   3499.30     0.1855     0.0080     0.0575     0.0604     0.2083     4.3987    96.6400     0.1116    -0.0552
  304    6.060   3500.24     0.1909     0.0067     0.0660     0.0606     0.2171     3.5018    96.9600     0.1202     0.0153
  305    6.080   3501.21     0.2003     0.0058     0.0751     0.0608     0.2312     3.0159    97.2800     0.1340     0.0959
  306    6.100   3502.21     0.2306     0.0054     0.0693     0.0610     0.2606     2.4819    97.6000     0.1630     0.0655
  307    6.120   3503.19     0.2480     0.0064     0.0693     0.0612     0.2770     2.8957    97.9200     0.1791     0.0437
  308    6.140   3504.16     0.2374     0.0075     0.0746     0.0614     0.2681     3.3095    98.2400     0.1698     0.0699
  309    6.160   3505.13     0.2184     0.0083     0.0532     0.0616     0.2446     3.7490    98.5600     0.1460     0.0037
  310    6.180   3506.10     0.2140     0.0066     0.0353     0.0618     0.2305     3.0823    98.8800     0.1316    -0.1716
  311    6.200   3507.05     0.1993     0.0066     0.0328     0.0620     0.2124     3.1784    99.2000     0.1132    -0.2737
  312    6.220   3517.63     0.1700     0.0057     0.0432     0.0622     0.1866     3.0851    99.5200     0.0871    -0.2349
  313    6.240   3533.90     0.1443     0.0057     0.0537     0.0624     0.1653     3.0807    99.8400     0.0655    -0.1480
  314    6.260   3548.04     0.1225     0.0064     0.0668     0.0626     0.1483     4.6486   100.1600     0.0482    -0.0293
  315    6.280   3549.00     0.1573     0.0070     0.0759     0.0628     0.1882     5.2073   100.4800     0.0877     0.1221
  316    6.300   3549.95     0.2512     0.0081     0.0821     0.0630     0.2850     4.4514   100.8000     0.1842     0.0946
  317    6.320   3550.90     0.3216     0.0093     0.0838     0.0632     0.3563     3.6954   101.1200     0.2552     0.0765
  318    6.340   3551.88     0.3634     0.0104     0.0935     0.0634     0.4019     2.9551   101.4400     0.3005     0.0943
  319    6.360   3552.82     0.3737     0.0112     0.0989     0.0636     0.4157     3.0088   101.7600     0.3139     0.1161
  320    6.380   3553.79     0.3846     0.0110     0.1006     0.0638     0.4264     2.8868   102.0800     0.3244     0.1103
  321    6.400   3571.01     0.4059     0.0117     0.1017     0.0640     0.4484     3.0333   102.4000     0.3460     0.1083
  322    6.420   3590.80     0.4280     0.0116     0.1028     0.0642     0.4710     2.9873   102.7200     0.3683     0.1044
  323    6.440   3610.58     0.4501     0.0127     0.1039     0.0644     0.4936     3.2736   103.0400     0.3906     0.1004
  324    6.460   3618.33     0.4579     0.0132     0.0929     0.0646     0.4995     2.9604   103.3600     0.3961     0.0872
  325    6.480   3618.93     0.4625     0.0132     0.0704     0.0648     0.4950     2.8524   103.6800     0.3914     0.0323
  326    6.500   3619.59     0.4456     0.0136     0.0651     0.0650     0.4721     2.9637   104.0000     0.3681    -0.0048
  327    6.520   3620.24     0.4298     0.0149     0.0773     0.0652     0.4603     3.4221   104.3200     0.3560     0.0210
  328    6.540   3620.90     0.4407     0.0171     0.0842     0.0654     0.4767     3.9939   104.6400     0.3721     0.0549
  329    6.560   3621.56     0.4698     0.0168     0.0715     0.0656     0.5025     3.5980   104.9600     0.3975     0.0310
  330    6.580   3622.21     0.5013     0.0173     0.0777     0.0658     0.5324     3.4715   105.2800     0.4271     0.0191
  331    6.600   3622.85     0.5282     0.0176     0.0691     0.0660     0.5572     3.3977   105.6000     0.4516     0.0066
  332    6.620   3623.48     0.5378     0.0177     0.0770     0.0662     0.5686     3.3338   105.9200     0.4627     0.0154
  333    6.640   3624.15     0.5473     0.0178     0.0813     0.0664     0.5813     3.2700   106.2400     0.4750     0.0306
  334    6.660   3624.80     0.5546     0.0178     0.0796     0.0666     0.5882     3.2430   106.5600     0.4817     0.0279
  335    6.680   3625.42     0.5526     0.0182     0.0801     0.0668     0.5862     3.2840   106.8800     0.4793     0.0274
  336    6.700   3628.29     0.5968     0.0179     0.0868     0.0670     0.6315     3.1599   107.2000     0.5243     0.0303
  337    6.720   3641.40     0.5677     0.0169     0.0992     0.0672     0.6075     2.8007   107.5200     0.5000     0.0582
  338    6.740   3654.50     0.5386     0.0165     0.1115     0.0674     0.5836     2.7347   107.8400     0.4758     0.0862
  339    6.760   3664.69     0.5140     0.0154     0.1092     0.0676     0.5634     2.9751   108.1600     0.4552     0.1099
  340    6.780   3665.68     0.4812     0.0142     0.0951     0.0678     0.5186     2.9055   108.4800     0.4102     0.0520
  341    6.800   3666.69     0.4697     0.0129     0.0937     0.0680     0.5099     2.7359   108.8000     0.4011     0.0687
  342    6.820   3667.68     0.4570     0.0126     0.0731     0.0682     0.4914     2.7504   109.1200     0.3823     0.0357
  343    6.840   3668.64     0.4375     0.0121     0.0579     0.0684     0.4627     2.7156   109.4400     0.3533    -0.0239
  344    6.860   3669.60     0.4301     0.0132     0.0450     0.0686     0.4510     3.0653   109.7600     0.3412    -0.0552
  345    6.880   3670.57     0.4229     0.0152     0.0017     0.0688     0.4299     3.5547   110.0800     0.3198    -0.1637
  346    6.900   3671.55     0.4078     0.0172    -0.0234     0.0690     0.4024     4.1584   110.4000     0.2920    -0.2821
  347    6.920   3672.50     0.3706     0.0183    -0.0483     0.0692     0.3533     4.8203   110.7200     0.2426    -0.4571
  348    6.940   3673.48     0.3366     0.0189    -0.0573     0.0694     0.3125     5.5414   111.0400     0.2014    -0.6299
  349    6.960   3674.44     0.3390     0.0196    -0.0519     0.0696     0.3166     5.8407   111.3600     0.2052    -0.6000
  350    6.980   3675.42     0.3866     0.0191    -0.0371     0.0698     0.3674     5.0898   111.6800     0.2557    -0.4517
  351    7.000   3676.43     0.4420     0.0192    -0.0141     0.0700     0.4327     4.4768   112.0000     0.3207    -0.2877
  352    7.020   3677.40     0.5005     0.0195     0.0086     0.0702     0.5013     3.9997   112.3200     0.3890    -0.1760
  353    7.040   3678.37     0.5384     0.0189     0.0337     0.0704     0.5488     3.5638   112.6400     0.4362    -0.1043
  354    7.060   3679.36     0.5481     0.0192     0.0554     0.0706     0.5693     3.5042   112.9600     0.4563    -0.0442
  355    7.080   3680.32     0.5593     0.0184     0.0636     0.0708     0.5837     3.3207   113.2800     0.4704    -0.0272
  356    7.100   3681.30     0.5627     0.0186     0.0724     0.0710     0.5917     3.3046   113.6000     0.4781    -0.0041
  357    7.120   3682.30     0.5573     0.0201     0.0924     0.0712     0.5931     3.6012   113.9200     0.4792     0.0294
  358    7.140   3683.29     0.5788     0.0248     0.1117     0.0714     0.6234     4.3955   114.2400     0.5092     0.0684
  359    7.160   3684.27     0.6554     0.0248     0.1274     0.0716     0.7069     3.9499   114.5600     0.5924     0.0861
  360    7.180   3685.25     0.8287     0.0226     0.1344     0.0718     0.8847     2.9198   114.8800     0.7698     0.0803
  361    7.200   3686.23     0.9955     0.0263     0.1271     0.0720     1.0503     2.7391   115.2000     0.9351     0.0629
  362    7.220   3687.23     1.1323     0.0288     0.1251     0.0722     1.1848     2.6076   115.5200     1.0693     0.0493
  363    7.240   3688.18     1.2375     0.0318     0.1457     0.0724     1.2929     2.6075   115.8400     1.1771     0.0505
  364    7.260   3689.17     1.3777     0.0354     0.1463     0.0726     1.4448     2.6361   116.1600     1.3286     0.0657
  365    7.280   3690.12     1.4596     0.0355     0.0837     0.0728     1.5009     2.4423   116.4800     1.3845     0.0185
  366    7.300   3691.14     1.3714     0.0327     0.0650     0.0730     1.4027     2.3439   116.8000     1.2859     0.0012
  367    7.320   3692.10     1.3623     0.0320     0.0066     0.0732     1.3723     2.3268   117.1200     1.2551    -0.0396
  368    7.340   3693.09     1.2583     0.0298    -0.0851     0.0734     1.2418     2.2847   117.4400     1.1243    -0.1025
  369    7.360   3694.07     1.0280     0.0257    -0.0975     0.0736     0.9902     2.3720   117.7600     0.8724    -0.1890
  370    7.380   3695.02     0.8674     0.0217    -0.0617     0.0738     0.8375     2.4179   118.0800     0.7195    -0.2015
  371    7.400   3695.96     0.6971     0.0234    -0.0324     0.0740     0.6782     3.2448   118.4000     0.5598    -0.2124
  372    7.420   3696.93     0.6070     0.0239     0.0168     0.0742     0.6067     3.8182   118.7200     0.4879    -0.1539
  373    7.440   3697.92     0.5585     0.0253     0.0581     0.0744     0.5764     4.4745   119.0400     0.4574    -0.0692
  374    7.460   3698.89     0.6445     0.0260     0.0826     0.0746     0.6779     4.2382   119.3600     0.5585     0.0086
  375    7.480   3699.90     0.7581     0.0263     0.0716     0.0748     0.7908     3.6109   119.6800     0.6711     0.0043
  376    7.500   3700.89     0.7930     0.0281     0.0559     0.0750     0.8146     3.5444   120.0000     0.6946    -0.0340
  377    7.520   3701.85     0.7921     0.0296     0.0783     0.0752     0.8224     3.7408   120.3200     0.7020    -0.0046
  378    7.540   3702.82     0.8247     0.0299     0.0955     0.0754     0.8627     3.6423   120.6400     0.7420     0.0201
  379    7.560   3703.80     0.8587     0.0287     0.0922     0.0756     0.8990     3.3906   120.9600     0.7781     0.0264
  380    7.580   3704.76     0.8991     0.0294     0.0811     0.0758     0.9343     3.2639   121.2800     0.8131     0.0100
  381    7.600   3705.76     0.8616     0.0313     0.0773     0.0760     0.8937     3.6243   121.6000     0.7721     0.0003
  382    7.620   3706.71     0.8432     0.0318     0.0989     0.0762     0.8817     3.7700   121.9200     0.7598     0.0205
  383    7.640   3707.71     0.8643     0.0324     0.1274     0.0764     0.9115     3.8179   122.2400     0.7892     0.0451
  384    7.660   3708.72     1.0300     0.0344     0.1615     0.0766     1.0941     3.5327   122.5600     0.9716     0.0783
  385    7.680   3709.72     1.2681     0.0358     0.1627     0.0768     1.3393     2.9341   122.8800     1.2164     0.0764
  386    7.700   3710.71     1.4947     0.0357     0.1139     0.0770     1.5511     2.4904   123.2000     1.4279     0.0405
  387    7.720   3711.65     1.6411     0.0331     0.0499     0.0772     1.6696     2.0369   123.5200     1.5461    -0.0060
  388    7.740   3712.63     1.6239     0.0290     0.0384     0.0774     1.6411     1.7662   123.8400     1.5173    -0.0239
  389    7.760   3713.59     1.5021     0.0234     0.0133     0.0776     1.5121     1.5287   124.1600     1.3880    -0.0389
  390    7.780   3714.58     1.3311     0.0221     0.0082     0.0778     1.3335     1.6174   124.4800     1.2090    -0.0598
  391    7.800   3715.57     1.1205     0.0203     0.0116     0.0780     1.1236     1.7359   124.8000     0.9988    -0.0708
  392    7.820   3716.56     0.9361     0.0149     0.0235     0.0782     0.9423     1.5186   125.1200     0.8172    -0.0774
  393    7.840   3717.55     0.7573     0.0109     0.0547     0.0784     0.7763     1.3634   125.4400     0.6509    -0.0503
  394    7.860   3718.55     0.6359     0.0092     0.1038     0.0786     0.6718     1.3896   125.7600     0.5460     0.0129
  395    7.880   3719.51     0.5412     0.0109     0.1485     0.0788     0.5969     1.9238   126.0800     0.4708     0.1149
  396    7.900   3720.48     0.5011     0.0149     0.1996     0.0790     0.5768     3.0140   126.4000     0.4504     0.2247
  397    7.920   3721.44     0.7398     0.0176     0.2174     0.0792     0.8320     2.6501   126.7200     0.7052     0.2001
  398    7.940   3722.42     1.2299     0.0198     0.1507     0.0794     1.3179     1.7058   127.0400     1.1909     0.1095
  399    7.960   3723.40     1.5337     0.0199     0.0363     0.0796     1.5580     1.3389   127.3600     1.4307    -0.0151
  400    7.980   3724.35     1.6903     0.0198     0.0110     0.0798     1.6979     1.1802   127.6800     1.5703    -0.0393
  401    8.000   3725.37     1.7964     0.0183    -0.0016     0.0800     1.8016     1.0323   128.0000     1.6736    -0.0403
  402    8.020   3726.38     1.8728     0.0164    -0.0163     0.0802     1.8664     0.8830   128.3200     1.7381    -0.0549
  403    8.040   3727.36     1.9658     0.0146    -0.0207     0.0804     1.9583     0.7545   128.6400     1.8296    -0.0537
  404    8.060   3728.32     2.1915     0.0138    -0.0287     0.0806     2.1801     0.6392   128.9600     2.0512    -0.0525
  405    8.080   3729.35     2.4718     0.0161    -0.0402     0.0808     2.4572     0.6626   129.2800     2.3279    -0.0496
  406    8.100   3730.29     2.7220     0.0270    -0.0402     0.0810     2.7042     1.0015   129.6000     2.5746    -0.0479
  407    8.120   3731.31     3.0062     0.0349    -0.0229     0.0812     2.9931     1.1666   129.9200     2.8632    -0.0393
  408    8.140   3732.27     3.3145     0.0411    -0.0045     0.0814     3.3105     1.2488   130.2400     3.1803    -0.0287
  409    8.160   3733.27     3.8031     0.0353     0.0086     0.0816     3.8037     0.9723   130.5600     3.6732    -0.0218
  410    8.180   3734.28     4.3346     0.0225     0.0197     0.0818     4.3426     0.5919   130.8800     4.2117    -0.0150
  411    8.200   3735.31     5.2564     0.0097     0.0005     0.0820     5.2629     0.2115   131.2000     5.1317    -0.0130
  412    8.220   3736.30     6.5369     0.0072    -0.0484     0.0822     6.5244     0.1218   131.5200     6.3929    -0.0175
  413    8.240   3737.34     7.7181     0.0037    -0.1402     0.0824     7.6766     0.0503   131.8400     7.5448    -0.0240
  414    8.260   3738.28     8.3991     0.0023    -0.1943     0.0826     8.3147     0.0281   132.1600     8.1826    -0.0346
  415    8.280   3754.56     8.6224     0.0026    -0.1472     0.0828     8.5538     0.0305   132.4800     8.4213    -0.0294
  416    8.300   3772.38     8.8071     0.0093    -0.1001     0.0830     8.7583     0.1097   132.8000     8.6255    -0.0232
  417    8.320   3781.43     9.1012     0.0095    -0.1019     0.0832     9.0575     0.1051   133.1200     8.9243    -0.0210
  418    8.340   3782.46     9.4836     0.0079    -0.1019     0.0834     9.4403     0.0841   133.4400     9.3069    -0.0200
  419    8.360   3783.44     9.9221     0.0061    -0.0955     0.0836     9.8821     0.0622   133.7600     9.7483    -0.0184
  420    8.380   3784.47    10.3557     0.0051    -0.1065     0.0838    10.3150     0.0494   134.0800    10.1809    -0.0178
  421    8.400   3785.45    10.5891     0.0049    -0.1441     0.0840    10.5328     0.0461   134.4000    10.3984    -0.0210
  422    8.420   3786.43    10.4315     0.0050    -0.1553     0.0842    10.3670     0.0474   134.7200    10.2323    -0.0232
  423    8.440   3787.43     9.8287     0.0042    -0.1487     0.0844     9.7649     0.0417   135.0400     9.6299    -0.0245
  424    8.460   3788.41     9.3104     0.0038    -0.1373     0.0846     9.2508     0.0406   135.3600     9.1155    -0.0248
  425    8.480   3789.37     8.6556     0.0043    -0.1235     0.0848     8.6013     0.0489   135.6800     8.4656    -0.0253
  426    8.500   3790.35     7.8874     0.0075    -0.1062     0.0850     7.8390     0.0934   136.0000     7.7030    -0.0260
  427    8.520   3791.33     6.7621     0.0108    -0.0914     0.0852     6.7225     0.1533   136.3200     6.5862    -0.0273
  428    8.540   3792.33     5.4557     0.0177    -0.0849     0.0854     5.4194     0.3063   136.6400     5.2828    -0.0326
  429    8.560   3793.29     4.1236     0.0283    -0.0797     0.0856     4.0892     0.6407   136.9600     3.9522    -0.0426
  430    8.580   3794.25     3.0206     0.0353    -0.0727     0.0858     2.9891     1.0760   137.2800     2.8518    -0.0569
  431    8.600   3795.24     2.0965     0.0351    -0.0648     0.0860     2.0680     1.5199   137.6000     1.9304    -0.0804
  432    8.620   3796.24     1.4929     0.0320    -0.0512     0.0862     1.4691     1.9817   137.9200     1.3312    -0.1079
  433    8.640   3797.20     1.1657     0.0288    -0.0275     0.0864     1.1499     2.3265   138.2400     1.0117    -0.1227
  434    8.660   3798.16     0.8967     0.0248     0.0226     0.0866     0.8978     2.6089   138.5600     0.7592    -0.1100
  435    8.680   3799.14     0.6483     0.0199     0.1182     0.0868     0.6816     2.8648   138.8800     0.5427    -0.0104
  436    8.700   3800.09     0.5433     0.0135     0.2001     0.0870     0.6181     2.4822   139.2000     0.4789     0.1898
  437    8.720   3801.07     0.5474     0.0098     0.2434     0.0872     0.6446     1.7830   139.5200     0.5050     0.2854
  438    8.740   3802.06     0.5465     0.0091     0.2626     0.0874     0.6542     1.6624   139.8400     0.5144     0.3287
  439    8.760   3803.07     0.5372     0.0097     0.2802     0.0876     0.6526     1.7987   140.1600     0.5125     0.3653
  440    8.780   3804.01     0.5267     0.0101     0.2779     0.0878     0.6441     1.9194   140.4800     0.5036     0.3804
  441    8.800   3805.03     0.5161     0.0100     0.2777     0.0880     0.6327     1.9158   140.8000     0.4919     0.3854
  442    8.820   3805.98     0.5054     0.0098     0.2758     0.0882     0.6208     1.9221   141.1200     0.4797     0.3889
  443    8.840   3806.93     0.5011     0.0104     0.2800     0.0884     0.6179     2.0596   141.4400     0.4764     0.3980
  444    8.860   3807.91     0.5006     0.0107     0.2828     0.0886     0.6204     2.1281   141.7600     0.4786     0.4107
  445    8.880   3808.85     0.4939     0.0103     0.2828     0.0888     0.6129     2.0865   142.0800     0.4708     0.4132
  446    8.900   3809.81     0.4920     0.0098     0.2782     0.0890     0.6089     1.9916   142.4000     0.4665     0.4060
  447    8.920   3810.79     0.4863     0.0101     0.2794     0.0892     0.6042     2.0751   142.7200     0.4615     0.4150
  448    8.940   3811.82     0.4845     0.0103     0.2648     0.0894     0.5961     2.1233   143.0400     0.4531     0.3889
  449    8.960   3812.80     0.4675     0.0099     0.2735     0.0896     0.5815     2.1042   143.3600     0.4381     0.4150
  450    8.980   3813.79     0.4688     0.0106     0.2759     0.0898     0.5844     2.2559   143.6800     0.4407     0.4209
  451    9.000   3814.78     0.4750     0.0106     0.2808     0.0900     0.5921     2.2433   144.0000     0.4481     0.4215
  452    9.020   3815.73     0.4707     0.0108     0.2851     0.0902     0.5900     2.2788   144.3200     0.4457     0.4348
  453    9.040   3816.72     0.4616     0.0108     0.2895     0.0904     0.5827     2.3369   144.6400     0.4380     0.4518
  454    9.060   3817.65     0.4552     0.0108     0.2881     0.0906     0.5765     2.3652   144.9600     0.4316     0.4593
  455    9.080   3818.64     0.4533     0.0104     0.2905     0.0908     0.5745     2.2823   145.2800     0.4292     0.4604
  456    9.100   3819.65     0.4413     0.0106     0.2952     0.0910     0.5649     2.4046   145.6000     0.4193     0.4850
  457    9.120   3820.65     0.4368     0.0106     0.2951     0.0912     0.5606     2.4247   145.9200     0.4146     0.4905
  458    9.140   3821.62     0.4379     0.0105     0.2978     0.0914     0.5621     2.3926   146.2400     0.4158     0.4913
  459    9.160   3822.59     0.4327     0.0111     0.3009     0.0916     0.5588     2.5596   146.5600     0.4122     0.5063
  460    9.180   3823.60     0.4352     0.0112     0.3007     0.0918     0.5616     2.5898   146.8800     0.4147     0.5047
  461    9.200   3824.58     0.4335     0.0117     0.3029     0.0920     0.5601     2.7087   147.2000     0.4129     0.5074
  462    9.220   3825.54     0.4311     0.0116     0.3051     0.0922     0.5590     2.7037   147.5200     0.4115     0.5159
  463    9.240   3826.50     0.4332     0.0120     0.3062     0.0924     0.5618     2.7761   147.8400     0.4139     0.5162
  464    9.260   3827.52     0.4313     0.0120     0.3110     0.0926     0.5613     2.7778   148.1600     0.4131     0.5249
  465    9.280   3828.47     0.4300     0.0122     0.3141     0.0928     0.5616     2.8399   148.4800     0.4132     0.5339
  466    9.300   3829.47     0.4245     0.0120     0.3189     0.0930     0.5576     2.8341   148.8000     0.4088     0.5479
  467    9.320   3830.42     0.4226     0.0124     0.3189     0.0932     0.5561     2.9251   149.1200     0.4070     0.5523
  468    9.340   3831.40     0.4204     0.0124     0.3250     0.0934     0.5564     2.9366   149.4400     0.4069     0.5659
  469    9.360   3832.40     0.4207     0.0131     0.3287     0.0936     0.5582     3.1054   149.7600     0.4085     0.5723
  470    9.380   3833.41     0.4259     0.0130     0.3313     0.0938     0.5646     3.0447   150.0800     0.4145     0.5703
  471    9.400   3834.36     0.4365     0.0128     0.3314     0.0940     0.5754     2.9513   150.4000     0.4250     0.5574
  472    9.420   3835.35     0.4396     0.0133     0.3294     0.0942     0.5782     3.0371   150.7200     0.4275     0.5512
  473    9.440   3836.31     0.4409     0.0136     0.3313     0.0944     0.5798     3.0818   151.0400     0.4288     0.5512
  474    9.460   3837.33     0.4327     0.0137     0.3339     0.0946     0.5724     3.1498   151.3600     0.4210     0.5655
  475    9.480   3838.33     0.4330     0.0140     0.3345     0.0948     0.5736     3.2664   151.6800     0.4219     0.5689
  476    9.500   3839.30     0.4363     0.0139     0.3340     0.0950     0.5770     3.2229   152.0000     0.4250     0.5648
  477    9.520   3840.26     0.4453     0.0144     0.3340     0.0952     0.5849     3.2358   152.3200     0.4326     0.5483
  478    9.540   3841.24     0.4375     0.0147     0.3415     0.0954     0.5798     3.3531   152.6400     0.4272     0.5698
  479    9.560   3842.21     0.4245     0.0142     0.3468     0.0956     0.5696     3.3291   152.9600     0.4166     0.5996
  480    9.580   3843.18     0.4216     0.0141     0.3527     0.0958     0.5690     3.3468   153.2800     0.4158     0.6140
  481    9.600   3844.16     0.4263     0.0142     0.3577     0.0960     0.5755     3.3408   153.6000     0.4219     0.6145
  482    9.620   3845.19     0.4334     0.0142     0.3573     0.0962     0.5841     3.2896   153.9200     0.4301     0.6101
  483    9.640   3846.21     0.4314     0.0140     0.3560     0.0964     0.5810     3.2340   154.2400     0.4268     0.6087
  484    9.660   3847.18     0.4287     0.0137     0.3552     0.0966     0.5781     3.1836   154.5600     0.4235     0.6115
  485    9.680   3848.13     0.4295     0.0139     0.3613     0.0968     0.5801     3.2075   154.8800     0.4253     0.6158
  486    9.700   3849.12     0.4157     0.0140     0.3678     0.0970     0.5691     3.3529   155.2000     0.4139     0.6481
  487    9.720   3850.09     0.4234     0.0140     0.3671     0.0972     0.5784     3.3283   155.5200     0.4228     0.6427
  488    9.740   3851.08     0.4246     0.0143     0.3687     0.0974     0.5788     3.3532   155.8400     0.4229     0.6378
  489    9.760   3852.05     0.4243     0.0145     0.3640     0.0976     0.5781     3.4199   156.1600     0.4219     0.6366
  490    9.780   3853.02     0.4306     0.0147     0.3628     0.0978     0.5828     3.4460   156.4800     0.4264     0.6209
  491    9.800   3854.05     0.4389     0.0151     0.3642     0.0980     0.5912     3.4544   156.8000     0.4344     0.6091
  492    9.820   3855.01     0.4358     0.0156     0.3700     0.0982     0.5917     3.5823   157.1200     0.4346     0.6280
  493    9.840   3855.99     0.4438     0.0154     0.3733     0.0984     0.5996     3.4711   157.4400     0.4422     0.6167
  494    9.860   3856.95     0.4502     0.0152     0.3720     0.0986     0.6065     3.3873   157.7600     0.4487     0.6094
  495    9.880   3857.90     0.4451     0.0158     0.3765     0.0988     0.6031     3.5611   158.0800     0.4450     0.6231
  496    9.900   3858.91     0.4508     0.0159     0.3783     0.0990     0.6100     3.5275   158.4000     0.4516     0.6198
  497    9.920   3859.90     0.4525     0.0159     0.3802     0.0992     0.6112     3.5240   158.7200     0.4525     0.6157
  498    9.940   3860.85     0.4559     0.0155     0.3809     0.0994     0.6160     3.4190   159.0400     0.4569     0.6164
  499    9.960   3861.88     0.4660     0.0157     0.3822     0.0996     0.6256     3.3883   159.3600     0.4663     0.6014
  500    9.980   3862.84     0.4670     0.0156     0.3818     0.0998     0.6277     3.3482   159.6800     0.4680     0.6043
  501   10.000   3863.80     0.4685     0.0161     0.3854     0.1000     0.6302     3.4574   160.0000     0.4702     0.6059
  502   10.020   3864.80     0.4689     0.0158     0.3799     0.1002     0.6287     3.3809   160.3200     0.4684     0.5985
  503   10.040   3865.76     0.4774     0.0163     0.3872     0.1004     0.6384     3.4165   160.6400     0.4777     0.5923
  504   10.060   3866.76     0.4680     0.0166     0.3902     0.1006     0.6321     3.5388   160.9600     0.4711     0.6159
  505   10.080   3867.75     0.4759     0.0157     0.3905     0.1008     0.6399     3.3310   161.2800     0.4786     0.6052
  506   10.100   3868.77     0.4896     0.0141     0.3897     0.1010     0.6529     2.8910   161.6000     0.4913     0.5858
  507   10.120   3869.74     0.4936     0.0139     0.3846     0.1012     0.6565     2.8346   161.9200     0.4946     0.5798
  508   10.140   3870.67     0.5003     0.0155     0.3898     0.1014     0.6621     3.1358   162.2400     0.4999     0.5680
  509   10.160   3871.66     0.5447     0.0199     0.3967     0.1016     0.7106     3.7877   162.5600     0.5480     0.5364
  510   10.180   3872.69     0.6821     0.0210     0.3904     0.1018     0.8496     3.2770   162.8800     0.6867     0.4344
  511   10.200   3873.64     0.8356     0.0210     0.3229     0.1020     0.9810     2.5830   163.2000     0.8178     0.2992
  512   10.220   3874.62     0.8319     0.0223     0.2695     0.1022     0.9491     2.8792   163.5200     0.7856     0.2250
  513   10.240   3875.59     0.7234     0.0236     0.2797     0.1024     0.8370     3.1755   163.8400     0.6731     0.2502
  514   10.260   3876.57     0.6170     0.0225     0.2775     0.1026     0.7336     3.5770   164.1600     0.5695     0.3078
  515   10.280   3877.57     0.5265     0.0199     0.3288     0.1028     0.6599     3.6993   164.4800     0.4954     0.4340
  516   10.300   3878.53     0.5078     0.0166     0.3459     0.1030     0.6504     3.2532   164.8000     0.4856     0.4870
  517   10.320   3890.70     0.4965     0.0147     0.3617     0.1032     0.6461     2.9363   165.1200     0.4810     0.5260
  518   10.340   3909.41     0.4918     0.0142     0.3774     0.1034     0.6481     2.8456   165.4400     0.4826     0.5564
  519   10.360   3918.50     0.4864     0.0151     0.3860     0.1036     0.6477     3.0835   165.7600     0.4819     0.5821
  520   10.380   3919.49     0.4926     0.0157     0.3861     0.1038     0.6542     3.2206   166.0800     0.4881     0.5756
  521   10.400   3920.49     0.4919     0.0157     0.3853     0.1040     0.6539     3.1876   166.4000     0.4875     0.5779
  522   10.420   3921.46     0.4899     0.0154     0.3811     0.1042     0.6513     3.1276   166.7200     0.4846     0.5779
  523   10.440   3922.39     0.4949     0.0151     0.3836     0.1044     0.6551     3.0559   167.0400     0.4881     0.5678
  524   10.460   3923.34     0.4976     0.0156     0.3917     0.1046     0.6600     3.1200   167.3600     0.4927     0.5727
  525   10.480   3924.33     0.4942     0.0158     0.4032     0.1048     0.6627     3.2100   167.6800     0.4951     0.5990
  526   10.500   3925.33     0.5019     0.0157     0.3971     0.1050     0.6700     3.1485   168.0000     0.5020     0.5879
  527   10.520   3926.29     0.5048     0.0152     0.3971     0.1052     0.6715     3.0207   168.3200     0.5032     0.5798
  528   10.540   3927.31     0.5059     0.0154     0.3911     0.1054     0.6710     3.0389   168.6400     0.5024     0.5729
  529   10.560   3928.30     0.5071     0.0157     0.3889     0.1056     0.6699     3.0871   168.9600     0.5010     0.5632
  530   10.580   3929.28     0.5012     0.0153     0.4012     0.1058     0.6683     3.0574   169.2800     0.4990     0.5854
  531   10.600   3930.27     0.4970     0.0156     0.4005     0.1060     0.6655     3.1330   169.6000     0.4959     0.5952
  532   10.620   3931.20     0.5025     0.0156     0.3934     0.1062     0.6686     3.1085   169.9200     0.4987     0.5803
  533   10.640   3932.16     0.5046     0.0155     0.3965     0.1064     0.6713     3.0735   170.2400     0.5010     0.5795
  534   10.660   3933.16     0.5063     0.0153     0.3973     0.1066     0.6732     3.0111   170.5600     0.5027     0.5785
  535   10.680   3934.10     0.5009     0.0152     0.3972     0.1068     0.6679     3.0630   170.8800     0.4970     0.5852
  536   10.700   3935.11     0.5115     0.0152     0.3953     0.1070     0.6763     2.9612   171.2000     0.5051     0.5649
  537   10.720   3936.13     0.5050     0.0154     0.4056     0.1072     0.6741     3.0433   171.5200     0.5026     0.5881
  538   10.740   3937.06     0.5090     0.0155     0.4042     0.1074     0.6797     3.0615   171.8400     0.5078     0.5889
  539   10.760   3938.05     0.5202     0.0157     0.4026     0.1076     0.6894     3.0293   172.1600     0.5172     0.5709
  540   10.780   3939.03     0.5321     0.0149     0.4150     0.1078     0.7039     2.8105   172.4800     0.5314     0.5666
  541   10.800   3940.01     0.5438     0.0144     0.4128     0.1080     0.7178     2.6666   172.8000     0.5450     0.5619
  542   10.820   3940.97     0.5604     0.0139     0.4095     0.1082     0.7338     2.5027   173.1200     0.5606     0.5432
  543   10.840   3941.92     0.5708     0.0143     0.4073     0.1084     0.7417     2.5216   173.4400     0.5682     0.5254
  544   10.860   3942.91     0.5733     0.0148     0.4187     0.1086     0.7466     2.5817   173.7600     0.5728     0.5307
  545   10.880   3943.89     0.5749     0.0155     0.4166     0.1088     0.7513     2.6933   174.0800     0.5772     0.5391
  546   10.900   3944.88     0.5856     0.0158     0.4085     0.1090     0.7577     2.6962   174.4000     0.5833     0.5154
  547   10.920   3945.90     0.5977     0.0155     0.4039     0.1092     0.7654     2.6285   174.7200     0.5906     0.4909
  548   10.940   3946.87     0.5918     0.0157     0.4158     0.1094     0.7647     2.6568   175.0400     0.5897     0.5127
  549   10.960   3947.83     0.5873     0.0161     0.4310     0.1096     0.7651     2.7293   175.3600     0.5897     0.5321
  550   10.980   3948.81     0.5827     0.0159     0.4484     0.1098     0.7681     2.7233   175.6800     0.5924     0.5597
  551   11.000   3949.79     0.5754     0.0160     0.4657     0.1100     0.7692     2.7700   176.0000     0.5932     0.5923
  552   11.020   3950.73     0.5721     0.0163     0.4725     0.1102     0.7697     2.8504   176.3200     0.5934     0.6073
  553   11.040   3951.75     0.5718     0.0163     0.4720     0.1104     0.7695     2.8487   176.6400     0.5929     0.6076
  554   11.060   3952.72     0.5696     0.0161     0.4848     0.1106     0.7717     2.8070   176.9600     0.5947     0.6231
  555   11.080   3953.71     0.5659     0.0168     0.4903     0.1108     0.7714     2.9778   177.2800     0.5941     0.6371
  556   11.100   3954.71     0.5724     0.0167     0.4929     0.1110     0.7790     2.9052   177.6000     0.6014     0.6333
  557   11.120   3955.72     0.5714     0.0167     0.4976     0.1112     0.7797     2.9127   177.9200     0.6017     0.6391
  558   11.140   3956.68     0.5782     0.0161     0.4971     0.1114     0.7872     2.7820   178.2400     0.6089     0.6343
  559   11.160   3957.64     0.5779     0.0161     0.4961     0.1116     0.7863     2.7841   178.5600     0.6077     0.6330
  560   11.180   3958.62     0.5672     0.0160     0.5043     0.1118     0.7774     2.8147   178.8800     0.5985     0.6495
  561   11.200   3959.58     0.5621     0.0155     0.5118     0.1120     0.7766     2.7591   179.2000     0.5974     0.6674
  562   11.220   3960.57     0.5660     0.0153     0.5191     0.1122     0.7829     2.7106   179.5200     0.6034     0.6700
  563   11.240   3961.54     0.5639     0.0151     0.5168     0.1124     0.7818     2.6834   179.8400     0.6019     0.6751
  564   11.260   3962.53     0.5720     0.0156     0.5105     0.1126     0.7878     2.7452   180.1600     0.6076     0.6603
  565   11.280   3963.56     0.5898     0.0156     0.4891     0.1128     0.7998     2.6640   180.4800     0.6194     0.6255
  566   11.300   3964.57     0.6005     0.0155     0.4831     0.1130     0.8048     2.5767   180.8000     0.6240     0.5984
  567   11.320   3965.49     0.6127     0.0158     0.4728     0.1132     0.8124     2.5904   181.1200     0.6313     0.5740
  568   11.340   3966.51     0.6168     0.0157     0.4790     0.1134     0.8168     2.5457   181.4400     0.6353     0.5710
  569   11.360   3967.43     0.6153     0.0155     0.4863     0.1136     0.8183     2.5225   181.7600     0.6365     0.5807
  570   11.380   3968.43     0.6201     0.0152     0.4955     0.1138     0.8272     2.4568   182.0800     0.6451     0.5879
  571   11.400   3969.42     0.6173     0.0161     0.4990     0.1140     0.8268     2.6117   182.4000     0.6444     0.5972
  572   11.420   3970.38     0.6107     0.0159     0.5017     0.1142     0.8203     2.6064   182.7200     0.6376     0.6036
  573   11.440   3971.41     0.6085     0.0156     0.5101     0.1144     0.8207     2.5648   183.0400     0.6376     0.6130
  574   11.460   3972.37     0.5975     0.0157     0.5073     0.1146     0.8132     2.6287   183.3600     0.6298     0.6333
  575   11.480   3973.36     0.6092     0.0157     0.5009     0.1148     0.8170     2.5840   183.6800     0.6333     0.6000
  576   11.500   3974.32     0.6041     0.0165     0.5155     0.1150     0.8194     2.7221   184.0000     0.6354     0.6259
  577   11.520   3975.28     0.6035     0.0161     0.5181     0.1152     0.8207     2.6749   184.3200     0.6364     0.6315
  578   11.540   3976.34     0.6085     0.0158     0.5100     0.1154     0.8248     2.6077   184.6400     0.6402     0.6243
  579   11.560   3977.34     0.6106     0.0158     0.5034     0.1156     0.8229     2.5960   184.9600     0.6379     0.6110
  580   11.580   3978.30     0.6079     0.0157     0.5082     0.1158     0.8196     2.5788   185.2800     0.6343     0.6119
  581   11.600   3979.30     0.6023     0.0155     0.5218     0.1160     0.8204     2.5670   185.6000     0.6348     0.6355
  582   11.620   3980.29     0.6166     0.0153     0.5187     0.1162     0.8353     2.4985   185.9200     0.6494     0.6232
  583   11.640   3981.25     0.6286     0.0153     0.5068     0.1164     0.8439     2.4331   186.2400     0.6577     0.6025
  584   11.660   3982.28     0.6265     0.0162     0.4967     0.1166     0.8350     2.5805   186.5600     0.6484     0.5859
  585   11.680   3983.25     0.6149     0.0155     0.4993     0.1168     0.8241     2.5171   186.8800     0.6373     0.5984
  586   11.700   3984.26     0.6022     0.0158     0.5026     0.1170     0.8131     2.6194   187.2000     0.6259     0.6155
  587   11.720   3985.22     0.5854     0.0156     0.5197     0.1172     0.8004     2.6335   187.5200     0.6129     0.6444
  588   11.740   3986.25     0.5758     0.0153     0.5227     0.1174     0.7953     2.6864   187.8400     0.6074     0.6670
  589   11.760   3987.24     0.5872     0.0156     0.5305     0.1176     0.8091     2.6404   188.1600     0.6210     0.6616
  590   11.780   3988.22     0.5781     0.0158     0.5239     0.1178     0.7998     2.7279   188.4800     0.6113     0.6708
  591   11.800   3989.18     0.5892     0.0157     0.5246     0.1180     0.8085     2.6727   188.8000     0.6197     0.6522
  592   11.820   3990.21     0.6027     0.0160     0.5143     0.1182     0.8206     2.6696   189.1200     0.6315     0.6343
  593   11.840   3991.17     0.5989     0.0160     0.5094     0.1184     0.8131     2.6544   189.4400     0.6237     0.6282
  594   11.860   3992.16     0.5868     0.0152     0.5185     0.1186     0.8044     2.5829   189.7600     0.6147     0.6500
  595   11.880   3993.11     0.5765     0.0152     0.5259     0.1188     0.7957     2.6360   190.0800     0.6056     0.6657
  596   11.900   3994.11     0.5687     0.0149     0.5365     0.1190     0.7925     2.6341   190.4000     0.6021     0.6875
  597   11.920   3995.14     0.5677     0.0157     0.5375     0.1192     0.7930     2.7616   190.7200     0.6023     0.6927
  598   11.940   3996.13     0.5743     0.0161     0.5280     0.1194     0.7979     2.8016   191.0400     0.6068     0.6803
  599   11.960   3997.12     0.5740     0.0158     0.5173     0.1196     0.7938     2.7535   191.3600     0.6024     0.6699
  600   11.980   3998.09     0.5749     0.0161     0.5187     0.1198     0.7927     2.7949   191.6800     0.6010     0.6635
  601   12.000   3999.08     0.5790     0.0169     0.5162     0.1200     0.7962     2.9158   192.0000     0.6042     0.6572
  602   12.020   4000.06     0.5803     0.0167     0.5184     0.1202     0.7961     2.8797   192.3200     0.6038     0.6520
  603   12.040   4001.02     0.5775     0.0162     0.5163     0.1204     0.7952     2.8109   192.6400     0.6026     0.6604
  604   12.060   4002.09     0.5904     0.0166     0.5232     0.1206     0.8109     2.8258   192.9600     0.6179     0.6544
  605   12.080   4003.05     0.5925     0.0168     0.5145     0.1208     0.8100     2.8451   193.2800     0.6168     0.6440
  606   12.100   4004.07     0.5921     0.0171     0.5282     0.1210     0.8123     2.8827   193.6000     0.6187     0.6519
  607   12.120   4005.03     0.5990     0.0177     0.5326     0.1212     0.8219     2.9588   193.9200     0.6279     0.6518
  608   12.140   4006.06     0.6020     0.0177     0.5262     0.1214     0.8227     2.9332   194.2400     0.6285     0.6432
  609   12.160   4006.97     0.5930     0.0171     0.5312     0.1216     0.8164     2.8878   194.5600     0.6218     0.6596
  610   12.180   4016.63     0.6030     0.0169     0.5215     0.1218     0.8236     2.8343   194.8800     0.6287     0.6420
  611   12.200   4034.14     0.6131     0.0172     0.5107     0.1220     0.8292     2.8711   195.2000     0.6340     0.6193
  612   12.220   4050.04     0.6225     0.0170     0.5128     0.1222     0.8352     2.7393   195.5200     0.6397     0.6008
  613   12.240   4051.04     0.6247     0.0172     0.5167     0.1224     0.8417     2.7533   195.8400     0.6458     0.6104
  614   12.260   4052.05     0.6212     0.0169     0.5166     0.1226     0.8377     2.7083   196.1600     0.6415     0.6123
  615   12.280   4053.03     0.6141     0.0170     0.5074     0.1228     0.8258     2.7599   196.4800     0.6293     0.6056
  616   12.300   4053.99     0.6214     0.0172     0.5099     0.1230     0.8346     2.7801   196.8000     0.6378     0.6030
  617   12.320   4054.98     0.6255     0.0175     0.5086     0.1232     0.8385     2.8015   197.1200     0.6414     0.5987
  618   12.340   4056.01     0.6240     0.0172     0.5193     0.1234     0.8404     2.7588   197.4400     0.6430     0.6094
  619   12.360   4056.97     0.6224     0.0182     0.5117     0.1236     0.8380     2.9161   197.7600     0.6402     0.6085
  620   12.380   4057.93     0.6242     0.0179     0.5203     0.1238     0.8413     2.8806   198.0800     0.6432     0.6109
  621   12.400   4058.94     0.6310     0.0178     0.5318     0.1240     0.8520     2.8209   198.4000     0.6536     0.6153
  622   12.420   4059.93     0.6287     0.0176     0.5342     0.1242     0.8541     2.8067   198.7200     0.6554     0.6295
  623   12.440   4060.85     0.6321     0.0181     0.5313     0.1244     0.8536     2.8721   199.0400     0.6545     0.6157
  624   12.460   4061.87     0.6391     0.0181     0.5407     0.1246     0.8653     2.8253   199.3600     0.6659     0.6216
  625   12.480   4062.84     0.6485     0.0184     0.5429     0.1248     0.8769     2.8363   199.6800     0.6772     0.6186
  626   12.500   4063.87     0.6494     0.0181     0.5456     0.1250     0.8766     2.7914   200.0000     0.6766     0.6148
  627   12.520   4064.85     0.6508     0.0184     0.5423     0.1252     0.8778     2.8371   200.3200     0.6775     0.6131
  628   12.540   4065.86     0.6483     0.0187     0.5466     0.1254     0.8774     2.8731   200.6400     0.6768     0.6206
  629   12.560   4066.85     0.6388     0.0184     0.5479     0.1256     0.8676     2.8772   200.9600     0.6667     0.6287
  630   12.580   4067.82     0.6422     0.0182     0.5533     0.1258     0.8738     2.8376   201.2800     0.6725     0.6327
  631   12.600   4068.79     0.6487     0.0186     0.5555     0.1260     0.8824     2.8753   201.6000     0.6808     0.6324
  632   12.620   4069.79     0.6488     0.0180     0.5572     0.1262     0.8818     2.7615   201.9200     0.6799     0.6303
  633   12.640   4070.75     0.6478     0.0164     0.5587     0.1264     0.8832     2.5274   202.2400     0.6809     0.6372
  634   12.660   4071.76     0.6597     0.0137     0.5564     0.1266     0.8930     2.0796   202.5600     0.6905     0.6214
  635   12.680   4072.75     0.6666     0.0144     0.5599     0.1268     0.9015     2.1744   202.8800     0.6986     0.6190
  636   12.700   4073.73     0.6717     0.0165     0.5652     0.1270     0.9084     2.4651   203.2000     0.7052     0.6192
  637   12.720   4074.72     0.6864     0.0181     0.5654     0.1272     0.9233     2.6513   203.5200     0.7198     0.6068
  638   12.740   4075.70     0.8094     0.0187     0.5519     0.1274     1.0449     2.4978   203.8400     0.8411     0.5200
  639   12.760   4076.69     0.9654     0.0193     0.3941     0.1276     1.1624     2.0875   204.1600     0.9582     0.3579
  640   12.780   4077.65     1.0579     0.0192     0.3504     0.1278     1.2000     1.7886   204.4800     0.9955     0.2117
  641   12.800   4078.61     0.9263     0.0193     0.4091     0.1280     1.0875     2.0104   204.8000     0.8827     0.2910
  642   12.820   4079.64     0.8212     0.0193     0.4583     0.1282     1.0070     2.2875   205.1200     0.8018     0.3922
  643   12.840   4080.63     0.7337     0.0199     0.4962     0.1284     0.9370     2.6365   205.4400     0.7316     0.4868
  644   12.860   4081.62     0.6910     0.0196     0.5187     0.1286     0.9064     2.8206   205.7600     0.7006     0.5484
  645   12.880   4082.60     0.6846     0.0191     0.5233     0.1288     0.9038     2.7756   206.0800     0.6978     0.5636
  646   12.900   4083.54     0.6755     0.0186     0.5262     0.1290     0.8959     2.7413   206.4000     0.6895     0.5741
  647   12.920   4084.55     0.6701     0.0189     0.5272     0.1292     0.8921     2.8298   206.7200     0.6854     0.5830
  648   12.940   4085.51     0.6619     0.0183     0.5303     0.1294     0.8838     2.7615   207.0400     0.6768     0.5894
  649   12.960   4086.56     0.6426     0.0186     0.5272     0.1296     0.8652     2.8838   207.3600     0.6579     0.6086
  650   12.980   4087.52     0.6430     0.0183     0.5274     0.1298     0.8638     2.8434   207.6800     0.6561     0.6034
  651   13.000   4088.50     0.6353     0.0173     0.5340     0.1300     0.8590     2.7151   208.0000     0.6510     0.6183
  652   13.020   4089.54     0.6243     0.0171     0.5349     0.1302     0.8483     2.7275   208.3200     0.6400     0.6300
  653   13.040   4090.45     0.6240     0.0171     0.5375     0.1304     0.8490     2.7335   208.6400     0.6404     0.6328
  654   13.060   4091.48     0.6200     0.0172     0.5353     0.1306     0.8442     2.7625   208.9600     0.6352     0.6347
  655   13.080   4092.44     0.6054     0.0166     0.5308     0.1308     0.8293     2.7453   209.2800     0.6200     0.6489
  656   13.100   4093.45     0.5959     0.0164     0.5220     0.1310     0.8160     2.7395   209.6000     0.6064     0.6479
  657   13.120   4094.45     0.5921     0.0145     0.5263     0.1312     0.8132     2.4412   209.9200     0.6032     0.6551
  658   13.140   4095.46     0.5875     0.0147     0.5293     0.1314     0.8080     2.4975   210.2400     0.5978     0.6587
  659   13.160   4096.42     0.5886     0.0146     0.5304     0.1316     0.8112     2.4851   210.5600     0.6006     0.6634
  660   13.180   4097.38     0.5838     0.0138     0.5279     0.1318     0.8058     2.3664   210.8800     0.5949     0.6669
  661   13.200   4098.41     0.5874     0.0127     0.5220     0.1320     0.8065     2.1569   211.2000     0.5953     0.6546
  662   13.220   4099.39     0.5999     0.0136     0.5131     0.1322     0.8176     2.2870   211.5200     0.6061     0.6373
  663   13.240   4100.38     0.6402     0.0132     0.5144     0.1324     0.8558     2.0871   211.8400     0.6440     0.5917
  664   13.260   4101.35     0.6569     0.0133     0.5164     0.1326     0.8735     2.0367   212.1600     0.6613     0.5793
  665   13.280   4102.31     0.6699     0.0146     0.5043     0.1328     0.8851     2.1962   212.4800     0.6726     0.5645
  666   13.300   4103.27     0.6870     0.0152     0.4906     0.1330     0.8943     2.2178   212.8000     0.6815     0.5292
  667   13.320   4104.29     0.7033     0.0153     0.4979     0.1332     0.9108     2.1630   213.1200     0.6977     0.5172
  668   13.340   4105.29     0.6714     0.0148     0.5100     0.1334     0.8849     2.1677   213.4400     0.6715     0.5587
  669   13.360   4106.26     0.6683     0.0146     0.5104     0.1336     0.8811     2.1992   213.7600     0.6674     0.5591
  670   13.380   4107.26     0.6657     0.0143     0.5192     0.1338     0.8823     2.1457   214.0800     0.6682     0.5716
  671   13.400   4108.26     0.6541     0.0152     0.5329     0.1340     0.8771     2.3217   214.4000     0.6627     0.5990
  672   13.420   4109.22     0.6370     0.0153     0.5335     0.1342     0.8606     2.4053   214.7200     0.6459     0.6165
  673   13.440   4110.22     0.6319     0.0141     0.5433     0.1344     0.8590     2.2310   215.0400     0.6439     0.6310
  674   13.460   4111.17     0.6293     0.0127     0.5391     0.1346     0.8563     2.0112   215.3600     0.6410     0.6334
  675   13.480   4112.18     0.6264     0.0141     0.5409     0.1348     0.8528     2.2454   215.6800     0.6372     0.6347
  676   13.500   4113.19     0.6314     0.0144     0.5443     0.1350     0.8595     2.2864   216.0000     0.6435     0.6340
  677   13.520   4114.16     0.6537     0.0142     0.5495     0.1352     0.8831     2.2078   216.3200     0.6668     0.6167
  678   13.540   4115.17     0.7224     0.0128     0.5336     0.1354     0.9509     1.8203   216.6400     0.7342     0.5569
  679   13.560   4116.16     0.7816     0.0136     0.4846     0.1356     0.9897     1.7384   216.9600     0.7728     0.4658
  680   13.580   4117.12     0.7376     0.0125     0.4956     0.1358     0.9425     1.6684   217.2800     0.7252     0.4857
  681   13.600   4118.13     0.6969     0.0115     0.5234     0.1360     0.9125     1.6293   217.6000     0.6949     0.5433
  682   13.620   4119.09     0.7210     0.0106     0.5267     0.1362     0.9427     1.4789   217.9200     0.7248     0.5404
  683   13.640   4120.10     0.7851     0.0127     0.4918     0.1364     0.9913     1.6615   218.2400     0.7730     0.4596
  684   13.660   4121.12     0.8148     0.0137     0.5047     0.1366     1.0262     1.6863   218.5600     0.8076     0.4541
  685   13.680   4122.10     0.9188     0.0134     0.4790     0.1368     1.1261     1.4863   218.8800     0.9073     0.3937
  686   13.700   4123.12     0.9693     0.0134     0.4269     0.1370     1.1554     1.4112   219.2000     0.9362     0.3275
  687   13.720   4124.08     1.0574     0.0144     0.3634     0.1372     1.2221     1.3859   219.5200     1.0026     0.2546
  688   13.740   4125.06     1.1334     0.0146     0.3664     0.1374     1.2904     1.3041   219.8400     1.0705     0.2210
  689   13.760   4126.06     1.1717     0.0146     0.3720     0.1376     1.3266     1.2492   220.1600     1.1064     0.2089
  690   13.780   4127.04     1.1818     0.0137     0.3808     0.1378     1.3408     1.1555   220.4800     1.1203     0.2150
  691   13.800   4128.00     1.1062     0.0128     0.4069     0.1380     1.2720     1.1363   220.8000     1.0512     0.2447
  692   13.820   4129.01     0.9270     0.0133     0.4441     0.1382     1.1085     1.3991   221.1200     0.8873     0.3319
  693   13.840   4129.99     0.7791     0.0142     0.4899     0.1384     0.9774     1.7893   221.4400     0.7560     0.4415
  694   13.860   4131.00     0.7418     0.0147     0.5090     0.1386     0.9543     1.9713   221.7600     0.7325     0.5014
  695   13.880   4132.00     0.7274     0.0150     0.5094     0.1388     0.9425     2.0564   222.0800     0.7204     0.5181
  696   13.900   4132.96     0.6848     0.0152     0.4722     0.1390     0.8850     2.1779   222.4000     0.6626     0.5098
  697   13.920   4133.96     0.6722     0.0159     0.4931     0.1392     0.8753     2.3576   222.7200     0.6525     0.5274
  698   13.940   4134.97     0.6610     0.0167     0.5079     0.1394     0.8731     2.5229   223.0400     0.6501     0.5624
  699   13.960   4135.93     0.6699     0.0163     0.5049     0.1396     0.8841     2.4336   223.3600     0.6607     0.5606
  700   13.980   4136.94     0.6796     0.0165     0.5021     0.1398     0.8894     2.4207   223.6800     0.6657     0.5403
  701   14.000   4137.91     0.6602     0.0160     0.4958     0.1400     0.8704     2.4083   224.0000     0.6464     0.5577
  702   14.020   4138.95     0.6425     0.0154     0.5017     0.1402     0.8507     2.3917   224.3200     0.6264     0.5675
  703   14.040   4139.95     0.6326     0.0154     0.5092     0.1404     0.8451     2.4353   224.6400     0.6205     0.5892
  704   14.060   4140.91     0.6356     0.0163     0.5166     0.1406     0.8504     2.5559   224.9600     0.6254     0.5928
  705   14.080   4141.93     0.6480     0.0193     0.5268     0.1408     0.8703     2.9849   225.2800     0.6451     0.6026
  706   14.100   4142.89     0.7084     0.0155     0.5398     0.1410     0.9330     2.0746   225.6000     0.7074     0.5567
  707   14.120   4143.90     0.9268     0.0157     0.5338     0.1412     1.1538     1.6391   225.9200     0.9278     0.4304
  708   14.140   4144.91     1.8235     0.0162     0.4514     0.1414     2.0311     1.1974   226.2400     1.8049     0.1958
  709   14.160   4145.93     3.2599     0.0225     0.3078     0.1416     3.4121     0.8574   226.5600     3.1855     0.0695
  710   14.180   4146.97     4.2405     0.0267     0.2075     0.1418     4.3360     0.6859   226.8800     4.1091     0.0208
  711   14.200   4149.04     4.7043     0.0191     0.1805     0.1420     4.7866     0.4220   227.2000     4.5594     0.0120
  712   14.220   4174.78     5.6836     0.0140     0.1356     0.1422     5.7471     0.3004   227.5200     5.5195     0.0036
  713   14.240   4200.52     6.6629     0.0142     0.0918     0.1424     6.7075     0.2678   227.8400     6.4797    -0.0048
  714   14.260   4209.63     7.5327     0.0150     0.0581     0.1426     7.5676     0.2001   228.1600     7.3395    -0.0080
  715   14.280   4210.67     8.3297     0.0164    -0.0411     0.1428     8.3213     0.1976   228.4800     8.0928    -0.0201
  716   14.300   4211.67     8.7967     0.0176    -0.0319     0.1430     8.7796     0.2005   228.8000     8.5508    -0.0215
  717   14.320   4212.72     8.9157     0.0149    -0.0022     0.1432     8.9110     0.1674   229.1200     8.6819    -0.0178
  718   14.340   4213.69     9.0737     0.0144     0.0090     0.1434     9.0771     0.1595   229.4400     8.8477    -0.0153
  719   14.360   4214.72     9.1600     0.0124    -0.0033     0.1436     9.1619     0.1351   229.7600     8.9321    -0.0156
  720   14.380   4215.71     9.2921     0.0126    -0.0449     0.1438     9.2789     0.1360   230.0800     9.0488    -0.0194
  721   14.400   4216.72     9.4886     0.0111    -0.0655     0.1440     9.4618     0.1176   230.4000     9.2314    -0.0225
  722   14.420   4217.73     9.6832     0.0112    -0.0567     0.1442     9.6579     0.1157   230.7200     9.4272    -0.0217
  723   14.440   4218.75     9.9288     0.0117    -0.0313     0.1444     9.9121     0.1182   231.0400     9.6811    -0.0190
  724   14.460   4219.73    10.0929     0.0121    -0.0132     0.1446    10.0845     0.1197   231.3600     9.8532    -0.0167
  725   14.480   4220.78    10.1921     0.0121     0.0057     0.1448    10.1932     0.1184   231.6800     9.9615    -0.0143
  726   14.500   4221.76    10.2099     0.0126     0.0228     0.1450    10.2167     0.1236   232.0000     9.9847    -0.0129
  727   14.520   4222.75    10.2980     0.0134     0.0496     0.1452    10.3140     0.1302   232.3200    10.0817    -0.0106
  728   14.540   4223.79    10.4209     0.0162     0.0676     0.1454    10.4470     0.1553   232.6400    10.2144    -0.0081
  729   14.560   4224.78    10.6273     0.0142     0.0641     0.1456    10.6560     0.1345   232.9600    10.4230    -0.0074
  730   14.580   4225.79    10.8989     0.0096     0.0132     0.1458    10.9110     0.0882   233.2800    10.6777    -0.0109
  731   14.600   4226.86    11.3534     0.0073    -0.0064     0.1460    11.3528     0.0651   233.6000    11.1192    -0.0133
  732   14.620   4227.81    11.7203     0.0085    -0.0237     0.1462    11.7121     0.0728   233.9200    11.4782    -0.0144
  733   14.640   4228.82    11.9950     0.0093    -0.0298     0.1464    11.9837     0.0777   234.2400    11.7495    -0.0148
  734   14.660   4229.84    12.0499     0.0114    -0.0314     0.1466    12.0354     0.0944   234.5600    11.8009    -0.0153
  735   14.680   4230.80    11.9303     0.0123    -0.0128     0.1468    11.9218     0.1030   234.8800    11.6869    -0.0143
  736   14.700   4231.82    11.8316     0.0105     0.0105     0.1470    11.8333     0.0888   235.2000    11.5981    -0.0123
  737   14.720   4232.84    11.9408     0.0110     0.0281     0.1472    11.9506     0.0925   235.5200    11.7151    -0.0106
  738   14.740   4233.85    12.1141     0.0127     0.0406     0.1474    12.1296     0.1046   235.8400    11.8938    -0.0093
  739   14.760   4234.90    12.3408     0.0120     0.0510     0.1476    12.3621     0.0972   236.1600    12.1259    -0.0080
  740   14.780   4235.91    12.5563     0.0105     0.0493     0.1478    12.5778     0.0840   236.4800    12.3413    -0.0078
  741   14.800   4236.93    12.8505     0.0098     0.0345     0.1480    12.8694     0.0765   236.8000    12.6326    -0.0082
  742   14.820   4237.94    12.9859     0.0090     0.0406     0.1482    13.0043     0.0696   237.1200    12.7672    -0.0082
  743   14.840   4238.95    12.9849     0.0090     0.0259     0.1484    12.9968     0.0690   237.4400    12.7593    -0.0094
  744   14.860   4239.92    12.8956     0.0094     0.0372     0.1486    12.9099     0.0729   237.7600    12.6721    -0.0090
  745   14.880   4240.93    12.7808     0.0095     0.0495     0.1488    12.8015     0.0740   238.0800    12.5634    -0.0079
  746   14.900   4241.90    12.7187     0.0093     0.0542     0.1490    12.7419     0.0729   238.4000    12.5035    -0.0075
  747   14.920   4242.91    12.6032     0.0081     0.0560     0.1492    12.6259     0.0645   238.7200    12.3872    -0.0077
  748   14.940   4243.94    12.5400     0.0087     0.0654     0.1494    12.5655     0.0695   239.0400    12.3264    -0.0072
  749   14.960   4245.02    12.5999     0.0096     0.0653     0.1496    12.6274     0.0762   239.3600    12.3880    -0.0068
  750   14.980   4245.98    12.7039     0.0075     0.0504     0.1498    12.7260     0.0594   239.6800    12.4864    -0.0078
  751   15.000   4246.98    12.6939     0.0055     0.0568     0.1500    12.7148     0.0430   240.0000    12.4748    -0.0080
  752   15.020   4248.02    12.6336     0.0063     0.0525     0.1502    12.6553     0.0498   240.3200    12.4150    -0.0079
  753   15.040   4249.00    12.7192     0.0083     0.0396     0.1504    12.7413     0.0652   240.6400    12.5007    -0.0078
  754   15.060   4250.05    12.7629     0.0087     0.0038     0.1506    12.7701     0.0682   240.9600    12.5291    -0.0107
  755   15.080   4251.06    12.8117     0.0080    -0.0010     0.1508    12.8104     0.0624   241.2800    12.5691    -0.0122
  756   15.100   4252.08    12.8447     0.0073     0.0120     0.1510    12.8479     0.0566   241.6000    12.6063    -0.0114
  757   15.120   4253.06    12.9716     0.0062     0.0248     0.1512    12.9804     0.0481   241.9200    12.7384    -0.0102
  758   15.140   4254.08    13.0726     0.0058     0.0368     0.1514    13.0862     0.0443   242.2400    12.8440    -0.0093
  759   15.160   4255.07    13.0767     0.0077     0.0277     0.1516    13.0888     0.0587   242.5600    12.8463    -0.0096
  760   15.180   4256.04    12.9449     0.0088     0.0123     0.1518    12.9508     0.0680   242.8800    12.7079    -0.0108
  761   15.200   4257.06    12.9166     0.0078    -0.0111     0.1520    12.9173     0.0602   243.2000    12.6741    -0.0119
  762   15.220   4258.08    12.8142     0.0087    -0.0225     0.1522    12.8053     0.0679   243.5200    12.5618    -0.0138
  763   15.240   4259.09    12.5812     0.0092    -0.0251     0.1524    12.5712     0.0733   243.8400    12.3273    -0.0143
  764   15.260   4260.11    12.2575     0.0102    -0.0084     0.1526    12.2508     0.0835   244.1600    12.0067    -0.0140
  765   15.280   4261.13    11.9480     0.0108     0.0034     0.1528    11.9476     0.0904   244.4800    11.7031    -0.0131
  766   15.300   4262.14    11.7052     0.0108     0.0169     0.1530    11.7100     0.0917   244.8000    11.4652    -0.0123
  767   15.320   4263.14    11.6793     0.0126     0.0325     0.1532    11.6909     0.1076   245.1200    11.4457    -0.0110
  768   15.340   4264.17    11.7147     0.0145     0.0496     0.1534    11.7338     0.1236   245.4400    11.4883    -0.0094
  769   15.360   4265.16    11.8877     0.0176     0.0671     0.1536    11.9145     0.1481   245.7600    11.6687    -0.0077
  770   15.380   4266.15    12.1858     0.0147     0.0819     0.1538    12.2174     0.1221   246.0800    11.9713    -0.0066
  771   15.400   4267.14    12.6636     0.0158     0.0902     0.1540    12.6995     0.1271   246.4000    12.4531    -0.0055
  772   15.420   4270.59    13.3588     0.0134     0.1011     0.1542    13.3996     0.1042   246.7200    13.1529    -0.0044
  773   15.440   4274.96    14.0007     0.0124     0.1120     0.1544    14.0461     0.0963   247.0400    13.7991    -0.0034
  774   15.460   4279.19    14.5522     0.0113     0.1200     0.1546    14.6041     0.0811   247.3600    14.3567    -0.0022
  775   15.480   4280.36    14.8801     0.0105     0.1134     0.1548    14.9284     0.0706   247.6800    14.6807    -0.0027
  776   15.500   4281.38    14.6924     0.0097     0.1079     0.1550    14.7408     0.0663   248.0000    14.4928    -0.0027
  777   15.520   4282.35    14.1733     0.0084     0.1022     0.1552    14.2144     0.0595   248.3200    13.9661    -0.0041
  778   15.540   4283.39    13.1490     0.0100     0.1246     0.1554    13.1998     0.0763   248.6400    12.9511    -0.0027
  779   15.560   4284.40    12.3132     0.0114     0.1247     0.1556    12.3650     0.0927   248.9600    12.1160    -0.0027
  780   15.580   4285.42    12.0246     0.0113     0.1283     0.1558    12.0777     0.0943   249.2800    11.8284    -0.0025
  781   15.600   4286.43    11.8884     0.0123     0.1271     0.1560    11.9418     0.1035   249.6000    11.6922    -0.0025
  782   15.620   4287.44    11.9853     0.0140     0.1299     0.1562    12.0389     0.1168   249.9200    11.7890    -0.0024
  783   15.640   4288.45    12.1206     0.0146     0.1387     0.1564    12.1769     0.1209   250.2400    11.9266    -0.0019
  784   15.660   4289.47    12.3222     0.0118     0.1376     0.1566    12.3800     0.0962   250.5600    12.1294    -0.0016
  785   15.680   4290.47    12.5258     0.0119     0.1328     0.1568    12.5835     0.0954   250.8800    12.3327    -0.0016
  786   15.700   4291.53    12.8292     0.0109     0.1139     0.1570    12.8791     0.0854   251.2000    12.6279    -0.0030
  787   15.720   4292.53    13.0836     0.0125     0.1096     0.1572    13.1259     0.0954   251.5200    12.8744    -0.0044
  788   15.740   4293.58    13.3427     0.0129     0.1028     0.1574    13.3852     0.0966   251.8400    13.1333    -0.0043
  789   15.760   4294.54    13.4422     0.0155     0.0937     0.1576    13.4850     0.1152   252.1600    13.2328    -0.0042
  790   15.780   4295.56    13.2603     0.0167     0.0959     0.1578    13.3006     0.1255   252.4800    13.0481    -0.0047
  791   15.800   4296.57    12.9215     0.0217     0.0883     0.1580    12.9615     0.1678   252.8000    12.7087    -0.0049
  792   15.820   4297.59    12.5698     0.0397     0.1044     0.1582    12.6125     0.3136   253.1200    12.3593    -0.0046
  793   15.840   4298.60    12.1172     0.0327     0.1161     0.1584    12.1636     0.2682   253.4400    11.9101    -0.0040
  794   15.860   4299.62    11.7542     0.0393     0.1401     0.1586    11.8101     0.3340   253.7600    11.5564    -0.0022
  795   15.880   4300.61    11.6389     0.0426     0.1404     0.1588    11.6964     0.3661   254.0800    11.4423    -0.0019
  796   15.900   4301.68    11.7224     0.0445     0.1269     0.1590    11.7789     0.3801   254.4000    11.5245    -0.0021
  797   15.920   4303.49    11.5662     0.0495     0.1513     0.1592    11.6237     0.4134   254.7200    11.3690    -0.0020
  798   15.940   4304.55    12.3591     0.0543     0.0860     0.1594    12.4058     0.4394   255.0400    12.1508    -0.0040
  799   15.960   4305.57    12.7196     0.0596     0.0399     0.1596    12.7409     0.4681   255.3600    12.4855    -0.0087
  800   15.980   4306.63    12.8961     0.0610     0.0425     0.1598    12.9121     0.4734   255.6800    12.6564    -0.0096
  801   16.000   4307.66    13.1249     0.0637     0.0633     0.1600    13.1481     0.4833   256.0000    12.8921    -0.0081
  802   16.020   4308.66    13.5437     0.0675     0.0810     0.1602    13.5746     0.4989   256.3200    13.3182    -0.0065
  803   16.040   4309.66    14.0426     0.0712     0.0979     0.1604    14.0814     0.5145   256.6400    13.8247    -0.0049
  804   16.060   4310.68    14.7112     0.0724     0.1035     0.1606    14.7542     0.4974   256.9600    14.4972    -0.0040
  805   16.080   4311.65    15.2704     0.0755     0.0998     0.1608    15.3135     0.5004   257.2800    15.0563    -0.0039
  806   16.100   4316.32    15.8050     0.0736     0.1052     0.1610    15.8471     0.4682   257.6000    15.5895    -0.0039
  807   16.120   4334.93    16.0175     0.0722     0.1195     0.1612    16.0657     0.4583   257.9200    15.8077    -0.0030
  808   16.140   4353.54    16.2301     0.0720     0.1338     0.1614    16.2842     0.4567   258.2400    16.0260    -0.0020
  809   16.160   4361.52    16.3112     0.0740     0.1336     0.1616    16.3673     0.4534   258.5600    16.1087    -0.0017
  810   16.180   4362.49    16.3448     0.0765     0.1421     0.1618    16.4034     0.4682   258.8800    16.1446    -0.0014
  811   16.200   4363.48    16.5230     0.0775     0.1514     0.1620    16.5854     0.4687   259.2000    16.3262    -0.0008
  812   16.220   4364.40    16.7799     0.0799     0.1577     0.1622    16.8452     0.4802   259.5200    16.5857    -0.0004
  813   16.240   4365.33    17.0044     0.0805     0.1582     0.1624    17.0711     0.4756   259.8400    16.8113    -0.0002
  814   16.260   4366.29    17.2086     0.0828     0.1500     0.1626    17.2732     0.4834   260.1600    17.0131    -0.0005
  815   16.280   4367.23    17.3968     0.0880     0.1434     0.1628    17.4572     0.5078   260.4800    17.1968    -0.0011
  816   16.300   4368.16    17.5555     0.0923     0.1539     0.1630    17.6180     0.5277   260.8000    17.3572    -0.0008
  817   16.320   4369.07    17.9389     0.1197     0.1588     0.1632    18.0050     0.6729   261.1200    17.7439    -0.0003
  818   16.340   4370.04    18.5769     0.1054     0.1608     0.1634    18.6442     0.5734   261.4400    18.3827    -0.0002
  819   16.360   4371.01    19.3090     0.1106     0.1569     0.1636    19.3760     0.5789   261.7600    19.1142    -0.0002
  820   16.380   4372.01    20.1638     0.1181     0.1417     0.1638    20.2274     0.5942   262.0800    19.9653    -0.0006
  821   16.400   4372.96    20.8314     0.1254     0.1479     0.1640    20.8926     0.6084   262.4000    20.6302    -0.0009
  822   16.420   4374.66    19.7481     0.1334     0.1676     0.1642    19.8154     0.6486   262.7200    19.5526    -0.0002
  823   16.440   4375.89    20.5635     0.1387     0.1488     0.1644    20.6257     0.7141   263.0400    20.3627    -0.0008
  824   16.460   4376.85    20.3217     0.1427     0.1597     0.1646    20.3884     0.6962   263.3600    20.1250    -0.0003
  825   16.480   4377.79    19.7785     0.1425     0.1626     0.1648    19.8461     0.7127   263.6800    19.5824    -0.0002
  826   16.500   4378.71    19.2642     0.1389     0.1647     0.1650    19.3334     0.7141   264.0000    19.0694     0.0000
  827   16.520   4379.72    18.6102     0.1391     0.1642     0.1652    18.6790     0.7376   264.3200    18.4146    -0.0001
  828   16.540   4380.66    17.9046     0.1425     0.1649     0.1654    17.9737     0.7843   264.6400    17.7091     0.0000
  829   16.560   4381.62    17.0170     0.1528     0.1655     0.1656    17.0864     0.8844   264.9600    16.8214     0.0000
  830   16.580   4382.58    15.9873     0.1656     0.1651     0.1658    16.0568     1.0183   265.2800    15.7916     0.0000
  831   16.600   4383.51    14.5325     0.1754     0.1664     0.1660    14.6027     1.1888   265.6000    14.3371     0.0001
  832   16.620   4384.44    12.4984     0.1672     0.1652     0.1662    12.5680     1.3148   265.9200    12.3021     0.0000
  833   16.640   4385.40     9.9051     0.1578     0.1679     0.1664     9.9741     1.5867   266.2400     9.7079    -0.0002
  834   16.660   4386.42     7.7043     0.1615     0.1796     0.1666     7.7773     2.0075   266.5600     7.5108     0.0010
  835   16.680   4387.49     7.3171     0.1542     0.1826     0.1668     7.3934     2.0712   266.8800     7.1266     0.0021
  836   16.700   4388.46     6.8966     0.1303     0.1953     0.1670     6.9729     1.8351   267.2000     6.7057     0.0022
  837   16.720   4389.51     5.9303     0.1070     0.3417     0.1672     6.0516     1.6927   267.5200     5.7841     0.0212
  838   16.740   4390.49     5.1137     0.0925     0.5162     0.1674     5.3164     1.7237   267.8400     5.0486     0.0625
  839   16.760   4391.68     4.1066     0.0942     0.4726     0.1676     4.3129     2.2948   268.1600     4.0448     0.0802
  840   16.780   4392.69     3.5212     0.0875     0.4428     0.1678     3.7088     2.4594   268.4800     3.4404     0.0814
  841   16.800   4393.73     2.9571     0.0756     0.3759     0.1680     3.1201     2.5241   268.8000     2.8513     0.0772
  842   16.820   4394.75     2.4879     0.0618     0.3225     0.1682     2.6316     2.4463   269.1200     2.3624     0.0733
  843   16.840   4395.77     2.1820     0.0500     0.2889     0.1684     2.3051     2.2865   269.4400     2.0357     0.0612
  844   16.860   4396.79     2.2136     0.0454     0.3252     0.1686     2.3442     2.0643   269.7600     2.0745     0.0686
  845   16.880   4397.75     2.4020     0.0439     0.3580     0.1688     2.5505     1.8454   270.0800     2.2804     0.0810
  846   16.900   4398.75     2.5009     0.0346     0.3713     0.1690     2.6552     1.3823   270.4000     2.3848     0.0832
  847   16.920   4399.76     2.3380     0.0288     0.3483     0.1692     2.4869     1.2160   270.7200     2.2162     0.0836
  848   16.940   4400.79     1.7807     0.0219     0.3820     0.1694     1.9324     1.2161   271.0400     1.6613     0.1164
  849   16.960   4401.77     1.3237     0.0227     0.4637     0.1696     1.5042     1.6817   271.3600     1.2328     0.2125
  850   16.980   4402.78     1.0574     0.0238     0.5569     0.1698     1.2810     2.2155   271.6800     1.0094     0.3602
  851   17.000   4403.79     0.9639     0.0217     0.6026     0.1700     1.2111     2.2315   272.0000     0.9391     0.4459
  852   17.020   4404.81     1.0419     0.0197     0.6073     0.1702     1.3033     1.8857   272.3200     1.0310     0.4386
  853   17.040   4405.79     1.0957     0.0183     0.5361     0.1704     1.3251     1.6674   272.6400     1.0525     0.3569
  854   17.060   4406.80     0.9664     0.0186     0.5685     0.1706     1.2057     1.8662   272.9600     0.9327     0.4291
  855   17.080   4407.81     0.8620     0.0187     0.6182     0.1708     1.1136     2.1208   273.2800     0.8403     0.5108
  856   17.100   4408.79     0.8269     0.0181     0.6194     0.1710     1.0883     2.2061   273.6000     0.8147     0.5541
  857   17.120   4409.76     0.8056     0.0169     0.6370     0.1712     1.0700     2.0932   273.9200     0.7960     0.5756
  858   17.140   4410.76     0.8253     0.0175     0.6416     0.1714     1.0947     2.1367   274.2400     0.8205     0.5730
  859   17.160   4411.75     0.8861     0.0168     0.6422     0.1716     1.1565     1.9030   274.5600     0.8819     0.5355
  860   17.180   4412.80     0.9242     0.0183     0.6101     0.1718     1.1870     1.9888   274.8800     0.9122     0.4977
  861   17.200   4413.79     0.9547     0.0212     0.5880     0.1720     1.2006     2.2392   275.2000     0.9254     0.4469
  862   17.220   4414.78     1.1262     0.0228     0.5794     0.1722     1.3732     2.0628   275.5200     1.0976     0.3797
  863   17.240   4415.78     1.2312     0.0222     0.5774     0.1724     1.4777     1.7991   275.8400     1.2018     0.3448
  864   17.260   4416.72     1.2939     0.0180     0.5040     0.1726     1.5112     1.3935   276.1600     1.2350     0.2792
  865   17.280   4417.74     1.2521     0.0183     0.5179     0.1728     1.4685     1.4511   276.4800     1.1920     0.2875
  866   17.300   4418.76     1.1437     0.0218     0.5348     0.1730     1.3619     1.8627   276.8000     1.0851     0.3205
  867   17.320   4419.74     0.9494     0.0223     0.5962     0.1732     1.1875     2.2998   277.1200     0.9104     0.4338
  868   17.340   4420.76     0.8474     0.0202     0.6596     0.1734     1.1245     2.3588   277.4400     0.8470     0.5746
  869   17.360   4421.76     0.9852     0.0176     0.5306     0.1736     1.2287     1.8275   277.7600     0.9509     0.4287
  870   17.380   4422.76     0.9551     0.0160     0.5061     0.1738     1.1641     1.6451   278.0800     0.8860     0.3661
  871   17.400   4423.77     0.7838     0.0173     0.5600     0.1740     1.0075     2.1787   278.4000     0.7291     0.4935
  872   17.420   4424.79     0.7048     0.0219     0.6352     0.1742     0.9668     3.1048   278.7200     0.6881     0.6534
  873   17.440   4425.79     0.9289     0.0243     0.6314     0.1744     1.1965     2.6795   279.0400     0.9175     0.5058
  874   17.460   4426.77     1.1284     0.0244     0.5697     0.1746     1.3816     2.2036   279.3600     1.1023     0.3898
  875   17.480   4427.77     1.2253     0.0238     0.4545     0.1748     1.4298     1.9437   279.6800     1.1501     0.2713
  876   17.500   4428.77     1.2297     0.0236     0.4274     0.1750     1.4128     1.9124   280.0000     1.1328     0.2305
  877   17.520   4429.78     1.2162     0.0233     0.4061     0.1752     1.3935     1.8962   280.3200     1.1132     0.2224
  878   17.540   4430.80     0.9947     0.0227     0.4349     0.1754     1.1651     2.2199   280.6400     0.8845     0.2638
  879   17.560   4431.80     0.8466     0.0225     0.5666     0.1756     1.0670     2.6502   280.9600     0.7860     0.4432
  880   17.580   4432.81     1.0245     0.0219     0.5734     0.1758     1.2698     2.2186   281.2800     0.9885     0.4141
  881   17.600   4433.78     1.1966     0.0207     0.5140     0.1760     1.4231     1.7404   281.6000     1.1415     0.3186
  882   17.620   4434.79     1.2053     0.0202     0.4797     0.1762     1.4067     1.6680   281.9200     1.1248     0.2697
  883   17.640   4435.76     1.0970     0.0204     0.4940     0.1764     1.3027     1.8481   282.2400     1.0204     0.3073
  884   17.660   4436.78     0.9851     0.0212     0.4977     0.1766     1.1927     2.1408   282.5600     0.9101     0.3491
  885   17.680   4437.80     0.8949     0.0224     0.5190     0.1768     1.1103     2.4843   282.8800     0.8274     0.4064
  886   17.700   4438.81     0.8172     0.0218     0.5508     0.1770     1.0427     2.6396   283.2000     0.7595     0.4744
  887   17.720   4439.79     0.7700     0.0222     0.5938     0.1772     1.0131     2.8615   283.5200     0.7296     0.5508
  888   17.740   4440.77     0.7037     0.0215     0.6307     0.1774     0.9645     3.0322   283.8400     0.6806     0.6521
  889   17.760   4441.80     0.6716     0.0215     0.6453     0.1776     0.9421     3.1935   284.1600     0.6580     0.7091
  890   17.780   4442.81     0.6408     0.0217     0.6690     0.1778     0.9191     3.3540   284.4800     0.6346     0.7641
  891   17.800   4443.78     0.6197     0.0220     0.6715     0.1780     0.9018     3.5452   284.8000     0.6170     0.8003
  892   17.820   4444.82     0.6033     0.0217     0.6698     0.1782     0.8844     3.5913   285.1200     0.5993     0.8195
  893   17.840   4445.80     0.6084     0.0221     0.6682     0.1784     0.8895     3.6333   285.4400     0.6041     0.8127
  894   17.860   4446.82     0.6013     0.0232     0.6709     0.1786     0.8823     3.8467   285.7600     0.5966     0.8221
  895   17.880   4447.79     0.5990     0.0219     0.6771     0.1788     0.8827     3.6647   286.0800     0.5966     0.8323
  896   17.900   4448.81     0.5954     0.0187     0.6767     0.1790     0.8797     3.1472   286.4000     0.5933     0.8395
  897   17.920   4449.79     0.5931     0.0187     0.6781     0.1792     0.8775     3.1501   286.7200     0.5908     0.8430
  898   17.940   4450.86     0.6008     0.0220     0.6849     0.1794     0.8871     3.6751   287.0400     0.6001     0.8373
  899   17.960   4451.84     0.6188     0.0247     0.6960     0.1796     0.9095     4.0114   287.3600     0.6221     0.8237
  900   17.980   4452.86     0.7819     0.0246     0.6406     0.1798     1.0665     3.3150   287.6800     0.7788     0.6435
  901   18.000   4453.85     0.9446     0.0241     0.5073     0.1800     1.1714     2.5554   288.0000     0.8834     0.4070
  902   18.020   4454.87     0.9329     0.0244     0.4896     0.1802     1.1374     2.6595   288.3200     0.8491     0.3611
  903   18.040   4455.84     0.8030     0.0236     0.5241     0.1804     1.0213     2.9028   288.6400     0.7326     0.4644
  904   18.060   4456.81     0.6961     0.0228     0.5668     0.1806     0.9206     3.1407   288.9600     0.6316     0.5608
  905   18.080   4457.83     0.6377     0.0220     0.6102     0.1808     0.8916     3.4316   289.2800     0.6023     0.7036
  906   18.100   4458.84     0.6695     0.0220     0.6301     0.1810     0.9313     3.4523   289.6000     0.6417     0.6895
  907   18.120   4459.86     0.8261     0.0246     0.6228     0.1812     1.0931     3.1242   289.9200     0.8032     0.5662
  908   18.140   4479.19     0.9216     0.0230     0.5734     0.1814     1.1695     2.7572   290.2400     0.8793     0.4750
  909   18.160   4500.02     1.0176     0.0216     0.5247     0.1816     1.2448     2.5865   290.5600     0.9543     0.3813
  910   18.180   4507.59     0.9572     0.0216     0.5418     0.1818     1.1820     2.2275   290.8800     0.8912     0.3975
  911   18.200   4508.56     0.8149     0.0224     0.5871     0.1820     1.0560     2.7082   291.2000     0.7648     0.5133
  912   18.220   4509.54     0.7322     0.0233     0.6293     0.1822     0.9884     3.1533   291.5200     0.6969     0.6143
  913   18.240   4510.55     0.6769     0.0230     0.6740     0.1824     0.9589     3.3950   291.8400     0.6670     0.7331
  914   18.260   4511.56     0.6871     0.0228     0.6741     0.1826     0.9692     3.3331   292.1600     0.6771     0.7224
  915   18.280   4512.58     0.6961     0.0225     0.6874     0.1828     0.9832     3.2402   292.4800     0.6907     0.7250
  916   18.300   4513.58     0.6914     0.0233     0.6935     0.1830     0.9813     3.3714   292.8000     0.6885     0.7367
  917   18.320   4514.55     0.6978     0.0227     0.6976     0.1832     0.9902     3.2677   293.1200     0.6971     0.7361
  918   18.340   4515.53     0.7099     0.0232     0.7062     0.1834     1.0057     3.2862   293.4400     0.7123     0.7316
  919   18.360   4516.54     0.7276     0.0229     0.7136     0.1836     1.0264     3.1457   293.7600     0.7327     0.7205
  920   18.380   4517.51     0.7219     0.0224     0.7171     0.1838     1.0225     3.0943   294.0800     0.7284     0.7300
  921   18.400   4518.48     0.7212     0.0227     0.7167     0.1840     1.0244     3.1478   294.4000     0.7300     0.7369
  922   18.420   4519.50     0.7422     0.0227     0.7046     0.1842     1.0389     3.0682   294.7200     0.7442     0.7017
  923   18.440   4520.47     0.7333     0.0227     0.7193     0.1844     1.0326     3.0849   295.0400     0.7375     0.7161
  924   18.460   4521.49     0.7371     0.0224     0.7165     0.1846     1.0408     3.0483   295.3600     0.7455     0.7224
  925   18.480   4522.51     0.7377     0.0217     0.7014     0.1848     1.0316     2.9379   295.6800     0.7359     0.6998
  926   18.500   4523.52     0.7132     0.0220     0.7185     0.1850     1.0146     3.0744   296.0000     0.7186     0.7414
  927   18.520   4524.49     0.7290     0.0225     0.7219     0.1852     1.0311     3.0983   296.3200     0.7348     0.7267
  928   18.540   4525.51     0.7480     0.0222     0.7336     0.1854     1.0546     2.9746   296.6400     0.7579     0.7185
  929   18.560   4526.48     0.7470     0.0228     0.7395     0.1856     1.0586     3.0438   296.9600     0.7616     0.7305
  930   18.580   4527.46     0.7608     0.0233     0.7368     0.1858     1.0697     3.0862   297.2800     0.7724     0.7116
  931   18.600   4528.47     0.7782     0.0238     0.7406     0.1860     1.0890     3.0658   297.6000     0.7914     0.7002
  932   18.620   4529.49     0.7945     0.0243     0.7480     0.1862     1.1074     3.0652   297.9200     0.8095     0.6903
  933   18.640   4530.46     0.8322     0.0251     0.7554     0.1864     1.1449     3.0405   298.2400     0.8467     0.6591
  934   18.660   4531.48     0.8625     0.0250     0.7474     0.1866     1.1784     2.9076   298.5600     0.8798     0.6427
  935   18.680   4532.40     0.8929     0.0246     0.7372     0.1868     1.1996     2.7650   298.8800     0.9007     0.6034
  936   18.700   4533.42     0.8897     0.0245     0.7386     0.1870     1.2051     2.7543   299.2000     0.9059     0.6226
  937   18.720   4534.42     0.8959     0.0254     0.7512     0.1872     1.2093     2.8304   299.5200     0.9098     0.6143
  938   18.740   4535.44     0.9186     0.0258     0.7474     0.1874     1.2323     2.8240   299.8400     0.9325     0.5999
  939   18.760   4536.46     0.8945     0.0254     0.7540     0.1876     1.2133     2.8159   300.1600     0.9131     0.6257
  940   18.780   4537.40     0.8642     0.0252     0.7519     0.1878     1.1778     2.9049   300.4800     0.8773     0.6368
  941   18.800   4538.42     0.8579     0.0254     0.7557     0.1880     1.1750     2.9600   300.8000     0.8742     0.6484
  942   18.820   4539.39     0.8488     0.0255     0.7662     0.1882     1.1670     3.0034   301.1200     0.8659     0.6577
  943   18.840   4540.36     0.8321     0.0255     0.7796     0.1884     1.1574     3.0625   301.4400     0.8560     0.6848
  944   18.860   4541.38     0.8472     0.0254     0.7901     0.1886     1.1785     3.0160   301.7600     0.8767     0.6845
  945   18.880   4542.40     0.8642     0.0265     0.8003     0.1888     1.2002     3.0706   302.0800     0.8981     0.6804
  946   18.900   4543.42     0.8766     0.0276     0.8043     0.1890     1.2131     3.1510   302.4000     0.9107     0.6723
  947   18.920   4544.39     0.8716     0.0274     0.8100     0.1892     1.2114     3.1472   302.7200     0.9087     0.6822
  948   18.940   4545.41     0.8836     0.0270     0.8076     0.1894     1.2224     3.0638   303.0400     0.9193     0.6715
  949   18.960   4546.35     0.8903     0.0269     0.8150     0.1896     1.2301     3.0213   303.3600     0.9267     0.6684
  950   18.980   4547.40     0.9028     0.0260     0.8394     0.1898     1.2537     2.8751   303.6800     0.9501     0.6797
  951   19.000   4548.42     0.9127     0.0245     0.8408     0.1900     1.2643     2.6926   304.0000     0.9603     0.6738
  952   19.020   4549.39     0.9062     0.0255     0.8428     0.1902     1.2625     2.8087   304.3200     0.9582     0.6869
  953   19.040   4550.46     0.9452     0.0261     0.8552     0.1904     1.3025     2.7758   304.6400     0.9978     0.6618
  954   19.060   4551.43     0.9902     0.0266     0.8511     0.1906     1.3486     2.7092   304.9600     1.0436     0.6349
  955   19.080   4552.40     0.9970     0.0273     0.8337     0.1908     1.3526     2.7245   305.2800     1.0473     0.6263
  956   19.100   4553.42     0.9917     0.0259     0.7919     0.1910     1.3268     2.6144   305.6000     1.0212     0.5942
  957   19.120   4554.44     0.9605     0.0254     0.7753     0.1912     1.2846     2.6340   305.9200     0.9787     0.5932
  958   19.140   4555.36     0.9012     0.0257     0.7787     0.1914     1.2285     2.8388   306.2400     0.9222     0.6376
  959   19.160   4556.41     0.8626     0.0255     0.7945     0.1916     1.1933     2.9461   306.5600     0.8867     0.6718
  960   19.180   4557.38     0.8258     0.0243     0.8135     0.1918     1.1646     2.9301   306.8800     0.8577     0.7170
  961   19.200   4558.40     0.8060     0.0238     0.8130     0.1920     1.1484     2.9445   307.2000     0.8412     0.7408
  962   19.220   4559.42     0.8097     0.0234     0.8146     0.1922     1.1508     2.8950   307.5200     0.8433     0.7351
  963   19.240   4560.44     0.8273     0.0228     0.8154     0.1924     1.1697     2.7707   307.8400     0.8619     0.7227
  964   19.260   4561.41     0.8063     0.0221     0.8223     0.1926     1.1504     2.7337   308.1600     0.8423     0.7442
  965   19.280   4562.39     0.7937     0.0218     0.8258     0.1928     1.1412     2.7412   308.4800     0.8327     0.7619
  966   19.300   4563.40     0.7948     0.0222     0.8278     0.1930     1.1409     2.7971   308.8000     0.8321     0.7585
  967   19.320   4564.37     0.7909     0.0223     0.8327     0.1932     1.1402     2.8189   309.1200     0.8311     0.7681
  968   19.340   4565.38     0.7934     0.0215     0.8227     0.1934     1.1397     2.7078   309.4400     0.8303     0.7601
  969   19.360   4566.36     0.7799     0.0217     0.8231     0.1936     1.1258     2.7780   309.7600     0.8160     0.7720
  970   19.380   4567.37     0.7804     0.0231     0.8137     0.1938     1.1236     2.9592   310.0800     0.8135     0.7663
  971   19.400   4568.39     0.7930     0.0236     0.8125     0.1940     1.1355     2.9743   310.4000     0.8251     0.7534
  972   19.420   4569.42     0.8141     0.0196     0.8221     0.1942     1.1587     2.4212   310.7200     0.8480     0.7387
  973   19.440   4570.39     0.8487     0.0138     0.8261     0.1944     1.1955     1.6347   311.0400     0.8844     0.7139
  974   19.460   4571.41     0.9162     0.0154     0.8189     0.1946     1.2591     1.6801   311.3600     0.9478     0.6562
  975   19.480   4572.38     1.1091     0.0138     0.8028     0.1948     1.4515     1.2558   311.6800     1.1398     0.5456
  976   19.500   4573.37     2.1281     0.0166     0.7542     0.1950     2.4581     0.7928   312.0000     2.1461     0.2789
  977   19.520   4574.42     4.0293     0.0226     0.5751     0.1952     4.3029     0.5806   312.3200     3.9906     0.1157
  978   19.540   4575.43     5.7835     0.0395     0.2762     0.1954     5.9216     0.6977   312.6400     5.6089     0.0238
  979   19.560   4576.51     6.1818     0.0720     0.1665     0.1956     6.2640     1.1607   312.9600     5.9510     0.0000
  980   19.580   4577.48     5.3655     0.0852     0.1191     0.1958     5.4174     1.5719   313.2800     5.1042    -0.0141
  981   19.600   4578.45     4.1428     0.0932     0.1245     0.1960     4.1918     2.2207   313.6000     3.8782    -0.0205
  982   19.620   4579.47     3.0034     0.0920     0.1481     0.1962     3.0614     3.0153   313.9200     2.7475    -0.0211
  983   19.640   4580.44     2.3710     0.0830     0.2472     0.1964     2.4557     3.4613   314.2400     2.1414     0.0026
  984   19.660   4581.46     1.9022     0.0748     0.2828     0.1966     2.0212     3.8431   314.5600     1.7066     0.0508
  985   19.680   4582.48     1.4379     0.0618     0.2749     0.1968     1.5562     4.1656   314.8800     1.2413     0.0683
  986   19.700   4583.50     1.2683     0.0439     0.4632     0.1970     1.4229     3.4029   315.2000     1.1077     0.1547
  987   19.720   4584.47     1.1529     0.0266     0.6075     0.1972     1.3908     2.2997   315.5200     1.0752     0.3434
  988   19.740   4585.49     1.0643     0.0233     0.6727     0.1974     1.3401     2.1788   315.8400     1.0243     0.4486
  989   19.760   4586.46     1.0280     0.0222     0.7176     0.1976     1.3223     2.1507   316.1600     1.0061     0.5001
  990   19.780   4587.43     0.9548     0.0236     0.7762     0.1978     1.2736     2.4668   316.4800     0.9572     0.5866
  991   19.800   4588.45     0.9581     0.0240     0.8040     0.1980     1.2913     2.5083   316.8000     0.9745     0.6110
  992   19.820   4589.52     0.9246     0.0224     0.8119     0.1982     1.2630     2.4029   317.1200     0.9458     0.6421
  993   19.840   4590.49     0.9075     0.0165     0.7801     0.1984     1.2391     1.8202   317.4400     0.9217     0.6414
  994   19.860   4591.46     0.9052     0.0114     0.8009     0.1986     1.2358     1.2577   317.7600     0.9180     0.6411
  995   19.880   4592.48     0.8965     0.0199     0.8397     0.1988     1.2414     2.2243   318.0800     0.9233     0.6742
  996   19.900   4593.45     0.9771     0.0308     0.8680     0.1990     1.3380     2.5945   318.4000     1.0196     0.6476
  997   19.920   4594.46     1.5427     0.0417     0.7734     0.1992     1.8949     2.9304   318.7200     1.5762     0.4088
  998   19.940   4595.43     2.3125     0.0388     0.5120     0.1994     2.5708     1.9397   319.0400     2.2517     0.1848
  999   19.960   4596.45     2.4852     0.0349     0.2858     0.1996     2.6132     1.3969   319.3600     2.2938     0.0458
 1000   19.980   4597.48     2.1706     0.0363     0.3206     0.1998     2.2894     1.6336   319.6800     1.9697     0.0425
 1001   20.000   4608.12     2.1406     0.0454     0.4150     0.2000     2.3014     2.2978   320.0000     1.9814     0.0878
 1002   20.020   4625.78     2.4251     0.0594     0.5080     0.2002     2.6250     3.0060   320.3200     2.3046     0.1150
 1003   20.040   4639.68     2.7979     0.0624     0.3922     0.2004     3.0022     2.2907   320.6400     2.6816     0.1082
 1004   20.060   4640.70     3.2319     0.0602     0.2220     0.2006     3.3403     1.8680   320.9600     3.0193     0.0191
 1005   20.080   4641.72     2.8837     0.0579     0.1574     0.2008     2.9535     1.9611   321.2800     2.6322    -0.0134
 1006   20.100   4642.72     2.2864     0.0558     0.1799     0.2010     2.3530     2.3711   321.6000     2.0314    -0.0207
 1007   20.120   4643.69     1.7689     0.0534     0.2895     0.2012     1.8728     2.9263   321.9200     1.5508     0.0311
 1008   20.140   4644.70     1.2963     0.0474     0.4535     0.2014     1.4591     3.5050   322.2400     1.1369     0.1669
 1009   20.160   4645.68     1.1573     0.0335     0.6109     0.2016     1.3979     2.9097   322.5600     1.0753     0.3448
 1010   20.180   4646.70     1.2003     0.0263     0.6526     0.2018     1.4731     2.2121   322.8800     1.1502     0.3892
 1011   20.200   4647.72     1.1905     0.0247     0.6590     0.2020     1.4668     2.0569   323.2000     1.1436     0.3989
 1012   20.220   4648.69     1.0735     0.0249     0.6677     0.2022     1.3484     2.2828   323.5200     1.0248     0.4420
 1013   20.240   4649.67     0.9886     0.0259     0.7146     0.2024     1.2839     2.6095   323.8400     0.9600     0.5216
 1014   20.260   4650.67     0.9707     0.0236     0.7392     0.2026     1.2786     2.4325   324.1600     0.9545     0.5559
 1015   20.280   4651.66     0.9761     0.0235     0.7636     0.2028     1.2941     2.4051   324.4800     0.9697     0.5718
 1016   20.300   4652.68     0.9656     0.0220     0.7689     0.2030     1.2885     2.2733   324.8000     0.9637     0.5871
 1017   20.320   4653.68     0.9597     0.0209     0.7749     0.2032     1.2835     2.1824   325.1200     0.9584     0.5924
 1018   20.340   4654.71     0.9670     0.0142     0.8088     0.2034     1.3028     1.4734   325.4400     0.9774     0.6100
 1019   20.360   4655.69     0.9741     0.0170     0.8305     0.2036     1.3184     1.7457   325.7600     0.9926     0.6207
 1020   20.380   4656.69     0.9754     0.0377     0.8526     0.2038     1.3322     3.8702   326.0800     1.0061     0.6417
 1021   20.400   4657.68     1.2889     0.0429     0.8486     0.2040     1.6461     3.4379   326.4000     1.3197     0.4934
 1022   20.420   4658.73     1.7244     0.0436     0.7984     0.2042     2.0719     2.6312   326.7200     1.7452     0.3593
 1023   20.440   4659.72     1.8701     0.0447     0.4684     0.2044     2.1325     2.3762   327.0400     1.8054     0.2294
 1024   20.460   4660.74     1.5931     0.0445     0.3598     0.2046     1.7390     2.7416   327.3600     1.4116     0.1020
 1025   20.480   4661.69     1.2985     0.0454     0.3740     0.2048     1.4544     3.4580   327.6800     1.1268     0.1487
 1026   20.500   4662.72     1.1209     0.0381     0.3895     0.2050     1.2743     3.3360   328.0000     0.9463     0.1698
 1027   20.520   4663.71     1.0654     0.0241     0.5084     0.2052     1.2644     2.2603   328.3200     0.9361     0.2870
 1028   20.540   4664.74     1.0534     0.0209     0.5965     0.2054     1.2937     1.9844   328.6400     0.9651     0.3798
 1029   20.560   4665.72     1.0668     0.0209     0.6498     0.2056     1.3323     1.9663   328.9600     1.0033     0.4251
 1030   20.580   4666.74     1.0546     0.0221     0.6892     0.2058     1.3389     2.0937   329.2800     1.0097     0.4667
 1031   20.600   4667.72     1.0434     0.0222     0.7232     0.2060     1.3424     2.1263   329.6000     1.0128     0.4993
 1032   20.620   4668.71     1.0438     0.0227     0.7461     0.2062     1.3539     2.1767   329.9200     1.0240     0.5196
 1033   20.640   4669.71     1.0459     0.0229     0.7612     0.2064     1.3636     2.1969   330.2400     1.0334     0.5323
 1034   20.660   4670.68     1.0549     0.0240     0.7715     0.2066     1.3784     2.2724   330.5600     1.0478     0.5380
 1035   20.680   4671.72     1.0365     0.0243     0.7764     0.2068     1.3603     2.3402   330.8800     1.0295     0.5481
 1036   20.700   4672.71     1.0310     0.0251     0.7868     0.2070     1.3603     2.4348   331.2000     1.0291     0.5606
 1037   20.720   4673.75     1.0383     0.0246     0.8002     0.2072     1.3726     2.3714   331.5200     1.0411     0.5654
 1038   20.740   4674.74     1.0315     0.0241     0.8053     0.2074     1.3692     2.3368   331.8400     1.0374     0.5751
 1039   20.760   4675.71     1.0419     0.0245     0.8088     0.2076     1.3817     2.3472   332.1600     1.0495     0.5730
 1040   20.780   4676.68     1.0401     0.0245     0.8236     0.2078     1.3822     2.3580   332.4800     1.0498     0.5780
 1041   20.800   4677.70     1.0255     0.0246     0.8512     0.2080     1.3795     2.3920   332.8000     1.0467     0.6065
 1042   20.820   4678.70     1.0150     0.0253     0.8614     0.2082     1.3751     2.4861   333.1200     1.0420     0.6231
 1043   20.840   4679.74     1.0138     0.0259     0.8762     0.2084     1.3794     2.5559   333.4400     1.0459     0.6330
 1044   20.860   4680.72     1.0180     0.0261     0.8794     0.2086     1.3876     2.5699   333.7600     1.0539     0.6371
 1045   20.880   4681.73     1.0212     0.0257     0.8854     0.2088     1.3914     2.5198   334.0800     1.0573     0.6362
 1046   20.900   4682.68     1.0204     0.0251     0.8859     0.2090     1.3932     2.4584   334.4000     1.0588     0.6410
 1047   20.920   4683.73     1.0176     0.0250     0.8864     0.2092     1.3876     2.4657   334.7200     1.0528     0.6381
 1048   20.940   4684.72     1.0294     0.0252     0.9118     0.2094     1.4092     2.4565   335.0400     1.0741     0.6468
 1049   20.960   4685.74     1.0273     0.0261     0.9324     0.2096     1.4178     2.5316   335.3600     1.0824     0.6653
 1050   20.980   4686.72     1.0333     0.0259     0.9242     0.2098     1.4222     2.5059   335.6800     1.0865     0.6591
 1051   21.000   4687.68     1.0212     0.0231     0.9256     0.2100     1.4098     2.2601   336.0000     1.0738     0.6659
 1052   21.020   4688.68     1.0129     0.0241     0.9202     0.2102     1.3986     2.3759   336.3200     1.0623     0.6667
 1053   21.040   4689.70     1.0007     0.0251     0.9120     0.2104     1.3847     2.5084   336.6400     1.0481     0.6717
 1054   21.060   4690.73     1.0280     0.0251     0.9349     0.2106     1.4178     2.4453   336.9600     1.0809     0.6638
 1055   21.080   4691.76     1.0359     0.0263     0.9157     0.2108     1.4271     2.5480   337.2800     1.0898     0.6612
 1056   21.100   4692.78     1.0718     0.0261     0.7663     0.2110     1.4033     2.4477   337.6000     1.0657     0.5416
 1057   21.120   4693.76     1.0365     0.0266     0.8387     0.2112     1.3807     2.5648   337.9200     1.0428     0.5834
 1058   21.140   4694.78     1.0184     0.0275     0.8642     0.2114     1.3791     2.6954   338.2400     1.0409     0.6222
 1059   21.160   4695.72     1.0165     0.0263     0.8782     0.2116     1.3830     2.5860   338.5600     1.0444     0.6329
 1060   21.180   4696.72     1.0060     0.0250     0.8916     0.2118     1.3790     2.4788   338.8800     1.0402     0.6504
 1061   21.200   4697.73     1.0049     0.0261     0.9050     0.2120     1.3832     2.5976   339.2000     1.0440     0.6598
 1062   21.220   4698.77     1.0346     0.0253     0.9175     0.2122     1.4181     2.4615   339.5200     1.0786     0.6499
 1063   21.240   4699.77     1.0519     0.0261     0.9239     0.2124     1.4396     2.4647   339.8400     1.0998     0.6463
 1064   21.260   4700.76     1.0586     0.0258     0.8852     0.2126     1.4414     2.4494   340.1600     1.1013     0.6347
 1065   21.280   4701.78     1.0702     0.0259     0.7821     0.2128     1.4023     2.4070   340.4800     1.0619     0.5438
 1066   21.300   4702.75     1.0167     0.0260     0.8551     0.2130     1.3699     2.5475   340.8000     1.0291     0.6103
 1067   21.320   4703.75     1.0109     0.0252     0.8657     0.2132     1.3727     2.4922   341.1200     1.0315     0.6283
 1068   21.340   4704.74     0.9999     0.0246     0.8800     0.2134     1.3666     2.4614   341.4400     1.0252     0.6436
 1069   21.360   4705.77     0.9764     0.0253     0.8976     0.2136     1.3522     2.5865   341.7600     1.0104     0.6741
 1070   21.380   4706.76     0.9735     0.0252     0.9042     0.2138     1.3520     2.5832   342.0800     1.0099     0.6808
 1071   21.400   4707.78     0.9686     0.0251     0.9108     0.2140     1.3504     2.5954   342.4000     1.0080     0.6894
 1072   21.420   4708.80     0.9802     0.0252     0.9161     0.2142     1.3637     2.5769   342.7200     1.0210     0.6847
 1073   21.440   4709.78     0.9856     0.0254     0.9268     0.2144     1.3736     2.5727   343.0400     1.0305     0.6882
 1074   21.460   4710.83     0.9755     0.0256     0.9258     0.2146     1.3665     2.6233   343.3600     1.0232     0.7002
 1075   21.480   4711.82     0.9910     0.0251     0.9141     0.2148     1.3764     2.5282   343.6800     1.0327     0.6805
 1076   21.500   4712.84     0.9821     0.0253     0.9096     0.2150     1.3630     2.5711   344.0000     1.0190     0.6790
 1077   21.520   4713.81     0.9682     0.0262     0.9066     0.2152     1.3509     2.7094   344.3200     1.0066     0.6913
 1078   21.540   4714.82     0.9898     0.0263     0.9035     0.2154     1.3688     2.6587   344.6400     1.0242     0.6708
 1079   21.560   4715.80     0.9912     0.0257     0.9129     0.2156     1.3738     2.5870   344.9600     1.0288     0.6758
 1080   21.580   4716.81     0.9779     0.0254     0.9132     0.2158     1.3606     2.5896   345.2800     1.0154     0.6850
 1081   21.600   4717.85     0.9780     0.0253     0.9291     0.2160     1.3648     2.5895   345.6000     1.0192     0.6918
 1082   21.620   4718.84     0.9771     0.0260     0.9307     0.2162     1.3688     2.6582   345.9200     1.0229     0.7004
 1083   21.640   4719.85     0.9625     0.0254     0.9368     0.2164     1.3562     2.6232   346.2400     1.0099     0.7138
 1084   21.660   4720.82     0.9574     0.0249     0.9244     0.2166     1.3466     2.6047   346.5600     1.0000     0.7100
 1085   21.680   4721.80     0.9486     0.0248     0.9187     0.2168     1.3356     2.6087   346.8800     0.9887     0.7127
 1086   21.700   4722.85     0.9597     0.0247     0.9205     0.2170     1.3459     2.5868   347.2000     0.9987     0.7035
 1087   21.720   4723.85     0.9716     0.0253     0.9237     0.2172     1.3596     2.6041   347.5200     1.0121     0.6982
 1088   21.740   4724.85     0.9725     0.0236     0.9201     0.2174     1.3588     2.4311   347.8400     1.0110     0.6948
 1089   21.760   4725.88     0.9615     0.0243     0.9175     0.2176     1.3486     2.5182   348.1600     1.0004     0.7038
 1090   21.780   4726.83     0.9569     0.0243     0.9123     0.2178     1.3397     2.5362   348.4800     0.9912     0.6998
 1091   21.800   4727.81     0.9542     0.0239     0.9276     0.2180     1.3412     2.5015   348.8000     0.9924     0.7089
 1092   21.820   4728.82     1.1609     0.0244     0.9017     0.2182     1.5488     2.1500   349.1200     1.1997     0.5896
 1093   21.840   4729.87     1.1504     0.0250     0.8048     0.2184     1.5124     2.1700   349.4400     1.1630     0.5535
 1094   21.860   4730.85     1.0536     0.0244     0.8530     0.2186     1.4053     2.2917   349.7600     1.0555     0.5863
 1095   21.880   4731.88     1.0411     0.0254     0.8539     0.2188     1.4023     2.4333   350.0800     1.0522     0.6094
 1096   21.900   4732.89     1.0674     0.0267     0.8045     0.2190     1.4212     2.5080   350.4000     1.0708     0.5821
 1097   21.920   4733.88     1.0671     0.0274     0.7987     0.2192     1.3969     2.5666   350.7200     1.0462     0.5412
 1098   21.940   4734.89     1.0615     0.0270     0.8443     0.2194     1.4056     2.5427   351.0400     1.0545     0.5687
 1099   21.960   4735.94     1.0899     0.0268     0.8665     0.2196     1.4521     2.4885   351.3600     1.1007     0.5839
 1100   21.980   4736.91     1.0163     0.0257     0.8367     0.2198     1.3655     2.5212   351.6800     1.0138     0.6033
 1101   22.000   4737.93     0.9953     0.0260     0.8619     0.2200     1.3566     2.6102   352.0000     1.0046     0.6372
 1102   22.020   4738.90     0.9823     0.0257     0.8894     0.2202     1.3518     2.6158   352.3200     0.9995     0.6598
 1103   22.040   4739.95     0.9806     0.0253     0.9008     0.2204     1.3560     2.5801   352.6400     1.0034     0.6713
 1104   22.060   4740.93     0.9784     0.0254     0.9171     0.2206     1.3624     2.5931   352.9600     1.0095     0.6872
 1105   22.080   4741.94     0.9776     0.0252     0.9070     0.2208     1.3582     2.5824   353.2800     1.0049     0.6821
 1106   22.100   4742.92     0.9895                0.9116     0.2210     1.3713              353.6000     1.0177     0.6761
 1107   22.120   4743.99     0.9830                0.9212     0.2212     1.3682              353.9200     1.0142     0.6862
 1108   22.140   4744.96     0.9694                0.9305     0.2214     1.3592              354.2400     1.0049     0.7032
 1109   22.160   4745.93     0.9595                0.9302     0.2216     1.3506              354.5600     0.9960     0.7124
 1110   22.180   4746.95     0.9654                0.9400     0.2218     1.3580              354.8800     1.0031     0.7108
 1111   22.199   4747.97     0.9602                           0.2220     1.3559              355.1834     1.0007     0.7197
 
 
