

 Program UNIPLOT                         version 05.36.02
 _______________
 (c) Fugro Netherlands Marine, Nootdorp, The Netherlands


 ASCII representation of data plotted on a graph.

 This ASCII file presents data interpolated to values per fixed depth interval.
 The data are corrected for the depth-offset differences between the various 
 transducers in the penetrometer.

 The records at the start of penetration may include no values or anomalous
 values where a depth offset implies incomplete penetration of a particular
 sensor into the ground.

 The records at the end of penetration may include no values for data channels
 where the transducer did not reach this depth.

 The reference level for test values is (1) the ground surface for onshore tests and (2) the seafloor for nearshore and offshore tests.

 UNICAS data file          : CPT-1033.000                            
 Output using command file : PlotASCII.cmd

 ASCII file created at : date          :21-Apr-2022
                         time          :15:40:02
 Project number                        :20024805                                                                                            
 Date of testing                       :13-Apr-2022                                                                                         
 Location                              :Hong Kong Offshore Wind Farm Project                                                                
 Test name                             :CPT-1033
 Penetrometer                          :F7.5CKE2HAW2/B/3342
 Serial no                             :1701-3342

 Table description:
 Column ID                             :Parameter name
 ___________________________________________________________________________________
 Rec                                   :Record ID, Record ID [-]
 Depth                                 :Depth, Depth [m]
 Time                                  :Time, Time [s]
 Cone                                  :Cone Resistance, Cone Resistance [MPa]
 Friction                              :Sleeve Friction, Sleeve Friction [MPa]
 Pore 2                                :Porewater Pressure, Porewater Pressure at Shoulder [MPa]
 HydroPress                            :Hydrostatic Pressure, Hydrostatic Pressure [MPa]
 qt                                    :Total Cone Resistance, Total Cone Resistance [MPa]
 Fric_ratio                            :Friction Ratio, Friction Ratio [%]
 SigmaVert                             :Vertical stress, Vertical stress [kPa] as specified in ground model
 Qnet                                  :Net Cone Resistance, Net Cone Resistance [MPa], unit weight as specified in ground model
 Bq                                    :Porewater Pressure Ratio, Porewater Pressure Ratio [-], unit weight as specified in ground model


 Data table:
  Rec    Depth      Time       Cone   Friction     Pore 2 HydroPress         qt Fric_ratio  SigmaVert       Qnet         Bq
   No        m         s        MPa        MPa        MPa        MPa        MPa          %        kPa        MPa          -
    1    0.000   1607.84     0.0000                           0.0000     0.0000                0.0000     0.0000           
    2    0.020   1608.76     0.0051                0.0004     0.0002     0.0053                0.3200     0.0049     0.0284
    3    0.040   1611.81     0.0057                0.0007     0.0004     0.0060                0.6400     0.0053     0.0402
    4    0.060   1615.09     0.0066     0.0004     0.0010     0.0006     0.0070     7.3177     0.9600     0.0061     0.0492
    5    0.080   1618.38     0.0076     0.0004     0.0013     0.0008     0.0081     6.8797     1.2800     0.0068     0.0581
    6    0.100   1619.75     0.0085     0.0005     0.0019     0.0010     0.0092     6.4416     1.6000     0.0076     0.0939
    7    0.120   1620.81     0.0076     0.0004     0.0020     0.0012     0.0085     5.5930     1.9200     0.0065     0.1103
    8    0.140   1621.86     0.0116     0.0008     0.0020     0.0014     0.0126     7.4085     2.2400     0.0103     0.0750
    9    0.160   1622.91     0.0111     0.0006     0.0016     0.0016     0.0118     5.7362     2.5600     0.0092     0.0091
   10    0.180   1625.17     0.0132     0.0009     0.0016     0.0018     0.0139     7.4248     2.8800     0.0110    -0.0183
   11    0.200   1628.16     0.0140     0.0008     0.0016     0.0020     0.0147     6.3325     3.2000     0.0115    -0.0313
   12    0.220   1630.63     0.0154     0.0009     0.0020     0.0022     0.0162     6.2034     3.5200     0.0127    -0.0276
   13    0.240   1631.74     0.0114     0.0013     0.0011     0.0024     0.0120    10.1665     3.8400     0.0082    -0.1373
   14    0.260   1632.82     0.0123     0.0010     0.0008     0.0026     0.0129     8.4787     4.1600     0.0087    -0.1515
   15    0.280   1633.91     0.0137     0.0013     0.0012     0.0028     0.0141     9.9911     4.4800     0.0096    -0.1927
   16    0.300   1634.96     0.0114     0.0015     0.0020     0.0030     0.0120    13.1218     4.8000     0.0072    -0.2432
   17    0.320   1636.02     0.0131     0.0015     0.0023     0.0032     0.0141    11.3774     5.1200     0.0090    -0.0819
   18    0.340   1637.12     0.0130     0.0015     0.0033     0.0034     0.0143    11.1722     5.4400     0.0088    -0.0448
   19    0.360   1638.14     0.0137     0.0014     0.0032     0.0036     0.0150    11.4575     5.7600     0.0092    -0.0526
   20    0.380   1639.17     0.0157     0.0014     0.0046     0.0038     0.0174     8.7381     6.0800     0.0113     0.0278
   21    0.400   1640.28     0.0137     0.0017     0.0043     0.0040     0.0155    12.4348     6.4000     0.0091     0.0436
   22    0.420   1641.34     0.0114     0.0017     0.0041     0.0042     0.0133    13.3803     6.7200     0.0066     0.0561
   23    0.440   1642.39     0.0140     0.0020     0.0046     0.0044     0.0158    14.4926     7.0400     0.0088    -0.0062
   24    0.460   1643.45     0.0145     0.0020     0.0031     0.0046     0.0164    13.8090     7.3600     0.0090    -0.0297
   25    0.480   1644.50     0.0129     0.0020     0.0036     0.0048     0.0144    15.7969     7.6800     0.0067    -0.1911
   26    0.500   1645.56     0.0135     0.0020     0.0036     0.0050     0.0152    15.2975     8.0000     0.0072    -0.1506
   27    0.520   1646.64     0.0135     0.0024     0.0043     0.0052     0.0151    29.1519     8.3200     0.0068    -0.5120
   28    0.540   1647.70     0.0122     0.0024     0.0055     0.0054     0.0144    24.0257     8.6400     0.0057    -0.0934
   29    0.560   1648.75     0.0108     0.0022     0.0064     0.0056     0.0134    19.8394     8.9600     0.0045     0.1259
   30    0.580   1649.80     0.0116     0.0025     0.0071     0.0058     0.0145    21.3742     9.2800     0.0052     0.2112
   31    0.600   1650.86     0.0096     0.0025     0.0075     0.0060     0.0128    24.6430     9.6000     0.0032     0.5045
   32    0.620   1651.91     0.0105     0.0023     0.0067     0.0062     0.0134    20.4572     9.9200     0.0035     0.1798
   33    0.640   1652.98     0.0090     0.0027     0.0066     0.0064     0.0117    28.9297    10.2400     0.0015     0.0314
   34    0.660   1654.07     0.0066     0.0024     0.0071     0.0066     0.0093    36.8882    10.5600    -0.0012    -0.0987
   35    0.680   1655.13     0.0054     0.0024     0.0081     0.0068     0.0087    39.7455    10.8800    -0.0021    -0.5604
   36    0.700   1656.18     0.0054     0.0023     0.0092     0.0070     0.0092    43.3106    11.2000    -0.0020    -1.1380
   37    0.720   1657.24     0.0050     0.0020     0.0100     0.0072     0.0090    34.2748    11.5200    -0.0025    -0.9238
   38    0.740   1658.29     0.0074     0.0018     0.0109     0.0074     0.0118    25.2390    11.8400     0.0000           
   39    0.760   1659.35     0.0097     0.0021     0.0116     0.0076     0.0145    23.9763    12.1600     0.0023     1.2176
   40    0.780   1660.40     0.0036     0.0019     0.0116     0.0078     0.0084    54.4293    12.4800    -0.0041    -0.8821
   41    0.800   1663.81     0.0079     0.0018     0.0113     0.0080     0.0127    23.8799    12.8000    -0.0001   -11.3269
   42    0.820   1682.23     0.0101     0.0017     0.0110     0.0082     0.0147    22.7970    13.1200     0.0016    -6.8009
   43    0.840   1700.66     0.0122     0.0019     0.0107     0.0084     0.0167    24.9008    13.4400     0.0033    -2.2750
   44    0.860   1712.37     0.0165     0.0020     0.0105     0.0086     0.0210    13.3941    13.7600     0.0073     0.2844
   45    0.880   1713.42     0.0173     0.0021     0.0102     0.0088     0.0215    12.5247    14.0800     0.0074     0.1688
   46    0.900   1714.49     0.0202     0.0021     0.0096     0.0090     0.0243    11.5458    14.4000     0.0099     0.0695
   47    0.920   1715.57     0.0184     0.0020     0.0103     0.0092     0.0226    11.8145    14.7200     0.0078     0.0945
   48    0.940   1716.66     0.0195     0.0017     0.0115     0.0094     0.0242     8.9704    15.0400     0.0092     0.1878
   49    0.960   1717.68     0.0204     0.0019     0.0122     0.0096     0.0255     9.4179    15.3600     0.0102     0.2481
   50    0.980   1718.75     0.0169     0.0020     0.0134     0.0098     0.0223    11.0620    15.6800     0.0066     0.4676
   51    1.000   1719.80     0.0188     0.0022     0.0141     0.0100     0.0246    11.2982    16.0000     0.0086     0.4433
   52    1.020   1720.85     0.0180     0.0021     0.0147     0.0102     0.0242    12.1888    16.3200     0.0079     0.5717
   53    1.040   1721.96     0.0255     0.0026     0.0154     0.0104     0.0319    11.1259    16.6400     0.0152     0.3225
   54    1.060   1723.02     0.0262     0.0025     0.0146     0.0106     0.0324     9.7386    16.9600     0.0155     0.2733
   55    1.080   1724.10     0.0263     0.0024     0.0146     0.0108     0.0325     8.8056    17.2800     0.0152     0.2536
   56    1.100   1725.12     0.0265     0.0025     0.0153     0.0110     0.0328     8.7213    17.6000     0.0152     0.2711
   57    1.120   1726.20     0.0271     0.0027     0.0166     0.0112     0.0339     9.3689    17.9200     0.0160     0.3198
   58    1.140   1727.29     0.0240     0.0024     0.0169     0.0114     0.0310     9.8500    18.2400     0.0128     0.4135
   59    1.160   1728.35     0.0213     0.0026     0.0173     0.0116     0.0285    11.8456    18.5600     0.0099     0.5522
   60    1.180   1729.40     0.0225     0.0027     0.0182     0.0118     0.0299    11.6869    18.8800     0.0111     0.5351
   61    1.200   1730.45     0.0219     0.0026     0.0195     0.0120     0.0300    11.5766    19.2000     0.0108     0.6716
   62    1.220   1731.48     0.0241     0.0025     0.0200     0.0122     0.0324     9.9943    19.5200     0.0129     0.6018
   63    1.240   1732.59     0.0232     0.0027     0.0195     0.0124     0.0315    12.0234    19.8400     0.0116     0.6295
   64    1.260   1733.64     0.0236     0.0024     0.0189     0.0126     0.0316     9.7222    20.1600     0.0114     0.5719
   65    1.280   1734.70     0.0270     0.0025     0.0173     0.0128     0.0344     9.6576    20.4800     0.0139     0.3517
   66    1.300   1735.80     0.0264     0.0023     0.0171     0.0130     0.0336     8.7699    20.8000     0.0128     0.3225
   67    1.320   1736.84     0.0295     0.0026     0.0178     0.0132     0.0369     9.8262    21.1200     0.0158     0.2890
   68    1.340   1737.87     0.0243     0.0026     0.0181     0.0134     0.0318    10.5761    21.4400     0.0104     0.4426
   69    1.360   1738.98     0.0311     0.0025     0.0185     0.0136     0.0388     8.2278    21.7600     0.0170     0.2761
   70    1.380   1739.98     0.0280     0.0028     0.0181     0.0138     0.0358     9.5718    22.0800     0.0137     0.3411
   71    1.400   1741.08     0.0288     0.0030     0.0186     0.0140     0.0364    10.9574    22.4000     0.0140     0.3059
   72    1.420   1742.14     0.0267     0.0027     0.0198     0.0142     0.0348     9.0800    22.7200     0.0121     0.4390
   73    1.440   1743.19     0.0256     0.0027     0.0210     0.0144     0.0342    11.5242    23.0400     0.0112     0.5650
   74    1.460   1744.25     0.0247     0.0027     0.0209     0.0146     0.0337    11.3393    23.3600     0.0104     0.6654
   75    1.480   1745.33     0.0273     0.0026     0.0213     0.0148     0.0361     9.3113    23.6800     0.0124     0.4872
   76    1.500   1746.36     0.0286     0.0026     0.0244     0.0150     0.0383     9.2800    24.0000     0.0143     0.5704
   77    1.520   1747.44     0.0314     0.0026     0.0265     0.0152     0.0424     8.9890    24.3200     0.0181     0.6062
   78    1.540   1748.50     0.0312     0.0027     0.0243     0.0154     0.0415     8.6981    24.6400     0.0169     0.5431
   79    1.560   1749.55     0.0313     0.0025     0.0247     0.0156     0.0416     7.8181    24.9600     0.0167     0.5411
   80    1.580   1750.61     0.0318     0.0028     0.0241     0.0158     0.0420     9.1388    25.2800     0.0167     0.5025
   81    1.600   1752.70     0.0346     0.0025     0.0255     0.0160     0.0450     7.5621    25.6000     0.0194     0.4568
   82    1.620   1757.53     0.0353     0.0029     0.0271     0.0162     0.0465     8.5515    25.9200     0.0206     0.4978
   83    1.640   1762.37     0.0361     0.0032     0.0287     0.0164     0.0479     9.2160    26.2400     0.0217     0.5387
   84    1.660   1766.14     0.0384     0.0028     0.0297     0.0166     0.0508     7.4830    26.5600     0.0242     0.5318
   85    1.680   1767.20     0.0368     0.0030     0.0301     0.0168     0.0494     8.3855    26.8800     0.0226     0.5861
   86    1.700   1768.25     0.0378     0.0026     0.0312     0.0170     0.0506     7.1350    27.2000     0.0234     0.5794
   87    1.720   1769.30     0.0412     0.0026     0.0327     0.0172     0.0546     6.2776    27.5200     0.0271     0.5410
   88    1.740   1770.37     0.0415     0.0027     0.0366     0.0174     0.0564     6.4882    27.8400     0.0286     0.6288
   89    1.760   1771.46     0.0408     0.0024     0.0363     0.0176     0.0562     5.9651    28.1600     0.0281     0.6868
   90    1.780   1772.52     0.0433     0.0029     0.0354     0.0178     0.0581     6.4916    28.4800     0.0296     0.5946
   91    1.800   1773.58     0.0479     0.0030     0.0360     0.0180     0.0628     6.7986    28.8000     0.0340     0.5147
   92    1.820   1774.63     0.0514     0.0031     0.0384     0.0182     0.0671     6.4198    29.1200     0.0379     0.5047
   93    1.840   1775.69     0.0546     0.0031     0.0378     0.0184     0.0707     5.4994    29.4400     0.0413     0.4862
   94    1.860   1776.74     0.0598     0.0031     0.0352     0.0186     0.0749     5.2203    29.7600     0.0451     0.3820
   95    1.880   1777.80     0.0605     0.0034     0.0349     0.0188     0.0751     5.5104    30.0800     0.0450     0.3512
   96    1.900   1778.88     0.0579     0.0030     0.0382     0.0190     0.0732     5.1628    30.4000     0.0428     0.4060
   97    1.920   1779.94     0.0615     0.0032     0.0429     0.0192     0.0789     5.2628    30.7200     0.0481     0.4583
   98    1.940   1780.99     0.0635     0.0033     0.0435     0.0194     0.0818     5.2632    31.0400     0.0508     0.4761
   99    1.960   1782.04     0.0638     0.0032     0.0466     0.0196     0.0830     4.9922    31.3600     0.0516     0.5062
  100    1.980   1783.10     0.0640     0.0033     0.0485     0.0198     0.0841     5.2591    31.6800     0.0524     0.5340
  101    2.000   1784.15     0.0637     0.0030     0.0503     0.0200     0.0846     4.9917    32.0000     0.0526     0.5641
  102    2.020   1785.21     0.0635     0.0033     0.0515     0.0202     0.0849     5.1876    32.3200     0.0526     0.5837
  103    2.040   1786.26     0.0658     0.0030     0.0502     0.0204     0.0871     4.6388    32.6400     0.0545     0.5561
  104    2.060   1787.32     0.0699     0.0033     0.0490     0.0206     0.0907     4.8004    32.9600     0.0578     0.5018
  105    2.080   1788.37     0.0680     0.0032     0.0497     0.0208     0.0886     4.7332    33.2800     0.0553     0.5126
  106    2.100   1789.43     0.0692     0.0033     0.0481     0.0210     0.0897     4.8484    33.6000     0.0561     0.4939
  107    2.120   1790.48     0.0692     0.0033     0.0481     0.0212     0.0895     4.7402    33.9200     0.0556     0.4861
  108    2.140   1791.55     0.0727     0.0037     0.0506     0.0214     0.0936     5.1202    34.2400     0.0593     0.4759
  109    2.160   1792.62     0.0730     0.0037     0.0520     0.0216     0.0947     5.0648    34.5600     0.0602     0.4992
  110    2.180   1793.68     0.0718     0.0038     0.0530     0.0218     0.0941     5.3984    34.8800     0.0592     0.5294
  111    2.200   1794.73     0.0731     0.0035     0.0521     0.0220     0.0948     4.8817    35.2000     0.0596     0.4993
  112    2.220   1795.79     0.0742     0.0034     0.0540     0.0222     0.0967     4.6040    35.5200     0.0612     0.5152
  113    2.240   1796.84     0.0708     0.0034     0.0541     0.0224     0.0934     4.6606    35.8400     0.0576     0.5464
  114    2.260   1797.90     0.0689     0.0032     0.0567     0.0226     0.0923     4.5697    36.1600     0.0562     0.5918
  115    2.280   1798.95     0.0650     0.0032     0.0581     0.0228     0.0893     4.7891    36.4800     0.0528     0.6632
  116    2.300   1800.00     0.0651     0.0029     0.0580     0.0230     0.0894     4.3487    36.8000     0.0526     0.6646
  117    2.320   1801.06     0.0640     0.0032     0.0568     0.0232     0.0880     5.2595    37.1200     0.0509     0.6712
  118    2.340   1802.11     0.0635     0.0031     0.0572     0.0234     0.0876     4.8288    37.4400     0.0502     0.6780
  119    2.360   1803.19     0.0674     0.0029     0.0578     0.0236     0.0914     4.4019    37.7600     0.0537     0.6279
  120    2.380   1804.25     0.0690     0.0031     0.0576     0.0238     0.0936     4.4236    38.0800     0.0555     0.6248
  121    2.400   1805.31     0.0747     0.0030     0.0565     0.0240     0.0984     4.0389    38.4000     0.0600     0.5405
  122    2.420   1806.38     0.0696     0.0031     0.0633     0.0242     0.0953     4.4196    38.7200     0.0566     0.6548
  123    2.440   1807.45     0.0713     0.0034     0.0624     0.0244     0.0977     4.8718    39.0400     0.0587     0.6578
  124    2.460   1808.50     0.0792     0.0032     0.0667     0.0246     0.1066     4.1022    39.3600     0.0673     0.6040
  125    2.480   1809.56     0.0797     0.0032     0.0676     0.0248     0.1082     4.1056    39.6800     0.0686     0.6310
  126    2.500   1810.63     0.0795     0.0031     0.0660     0.0250     0.1075     3.8963    40.0000     0.0675     0.6172
  127    2.520   1811.68     0.0811     0.0028     0.0628     0.0252     0.1077     3.4195    40.3200     0.0674     0.5678
  128    2.540   1812.74     0.0765     0.0031     0.0627     0.0254     0.1028     3.8916    40.6400     0.0621     0.5995
  129    2.560   1813.80     0.0757     0.0027     0.0633     0.0256     0.1023     3.5620    40.9600     0.0613     0.6131
  130    2.580   1814.88     0.0723     0.0030     0.0617     0.0258     0.0986     4.1353    41.2800     0.0573     0.6408
  131    2.600   1815.94     0.0712     0.0028     0.0611     0.0260     0.0969     3.9405    41.6000     0.0553     0.6362
  132    2.620   1816.99     0.0695     0.0025     0.0597     0.0262     0.0947     3.7041    41.9200     0.0528     0.6425
  133    2.640   1818.08     0.0748     0.0028     0.0560     0.0264     0.0984     3.7118    42.2400     0.0562     0.5305
  134    2.660   1819.10     0.0754     0.0030     0.0561     0.0266     0.0988     4.0452    42.5600     0.0563     0.5178
  135    2.680   1820.13     0.0742     0.0030     0.0584     0.0268     0.0986     3.9594    42.8800     0.0557     0.5595
  136    2.700   1821.24     0.0739     0.0025     0.0569     0.0270     0.0982     3.3563    43.2000     0.0550     0.5603
  137    2.720   1822.29     0.0694     0.0031     0.0526     0.0272     0.0922     4.2282    43.5200     0.0487     0.5570
  138    2.740   1823.35     0.0670     0.0032     0.0499     0.0274     0.0882     4.5125    43.8400     0.0443     0.5210
  139    2.760   1824.40     0.0679     0.0033     0.0483     0.0276     0.0881     4.7968    44.1600     0.0439     0.4625
  140    2.780   1825.46     0.0719     0.0028     0.0469     0.0278     0.0918     4.0407    44.4800     0.0473     0.4107
  141    2.800   1826.51     0.0825     0.0032     0.0467     0.0280     0.1024     4.0554    44.8000     0.0576     0.3375
  142    2.820   1829.92     0.0822     0.0035     0.0473     0.0282     0.1016     4.2078    45.1200     0.0565     0.3206
  143    2.840   1841.90     0.0814     0.0034     0.0500     0.0284     0.1020     4.1848    45.4400     0.0566     0.3649
  144    2.860   1853.88     0.0807     0.0035     0.0528     0.0286     0.1024     4.2053    45.7600     0.0567     0.4093
  145    2.880   1861.31     0.0817     0.0038     0.0550     0.0288     0.1049     4.6659    46.0800     0.0588     0.4501
  146    2.900   1862.37     0.0900     0.0040     0.0518     0.0290     0.1119     4.6084    46.4000     0.0655     0.3548
  147    2.920   1863.35     0.1088     0.0040     0.0516     0.0292     0.1301     3.9261    46.7200     0.0834     0.2593
  148    2.940   1864.48     0.1208     0.0039     0.0507     0.0294     0.1425     3.2874    47.0400     0.0955     0.2354
  149    2.960   1865.48     0.1279     0.0044     0.0539     0.0296     0.1497     3.4375    47.3600     0.1024     0.2190
  150    2.980   1866.57     0.1303     0.0049     0.0584     0.0298     0.1545     3.7688    47.6800     0.1068     0.2618
  151    3.000   1867.62     0.1338     0.0054     0.0587     0.0300     0.1584     4.0528    48.0000     0.1104     0.2580
  152    3.020   1868.65     0.1316     0.0048     0.0608     0.0302     0.1568     3.6349    48.3200     0.1085     0.2750
  153    3.040   1869.72     0.1259     0.0045     0.0599     0.0304     0.1510     3.5633    48.6400     0.1024     0.2877
  154    3.060   1870.77     0.1294     0.0043     0.0636     0.0306     0.1553     3.2770    48.9600     0.1063     0.2910
  155    3.080   1871.84     0.1315     0.0042     0.0678     0.0308     0.1598     3.2501    49.2800     0.1106     0.3315
  156    3.100   1872.89     0.1331     0.0048     0.0699     0.0310     0.1619     3.6417    49.6000     0.1123     0.3349
  157    3.120   1873.95     0.1351     0.0047     0.0678     0.0312     0.1634     3.5635    49.9200     0.1134     0.3191
  158    3.140   1875.00     0.1293     0.0043     0.0671     0.0314     0.1577     3.3057    50.2400     0.1075     0.3387
  159    3.160   1876.06     0.1307     0.0044     0.0636     0.0316     0.1579     3.3263    50.5600     0.1074     0.3108
  160    3.180   1877.07     0.1290     0.0043     0.0588     0.0318     0.1534     3.2848    50.8800     0.1026     0.2570
  161    3.200   1878.14     0.1129     0.0039     0.0635     0.0320     0.1388     3.3836    51.2000     0.0876     0.3404
  162    3.220   1879.19     0.1106     0.0043     0.0670     0.0322     0.1383     3.8613    51.5200     0.0868     0.3896
  163    3.240   1880.28     0.1035     0.0041     0.0697     0.0324     0.1324     3.9463    51.8400     0.0806     0.4534
  164    3.260   1881.34     0.1040     0.0037     0.0712     0.0326     0.1336     3.4629    52.1600     0.0815     0.4646
  165    3.280   1882.39     0.1025     0.0033     0.0723     0.0328     0.1328     3.2187    52.4800     0.0803     0.4876
  166    3.300   1883.45     0.1039     0.0035     0.0726     0.0330     0.1346     3.3867    52.8000     0.0818     0.4902
  167    3.320   1884.50     0.1006     0.0035     0.0765     0.0332     0.1320     3.3943    53.1200     0.0789     0.5263
  168    3.340   1885.56     0.0978     0.0034     0.0771     0.0334     0.1303     3.3785    53.4400     0.0768     0.5717
  169    3.360   1886.61     0.0949     0.0032     0.0770     0.0336     0.1271     3.3729    53.7600     0.0734     0.5879
  170    3.380   1887.67     0.0994     0.0034     0.0787     0.0338     0.1323     3.5082    54.0800     0.0782     0.5679
  171    3.400   1888.72     0.1073     0.0030     0.0826     0.0340     0.1415     2.8999    54.4000     0.0871     0.5448
  172    3.420   1889.83     0.1066     0.0033     0.0845     0.0342     0.1420     3.1632    54.7200     0.0873     0.5757
  173    3.440   1890.88     0.1132     0.0027     0.0800     0.0344     0.1477     2.4658    55.0400     0.0927     0.5166
  174    3.460   1891.92     0.1175     0.0026     0.0809     0.0346     0.1504     2.2523    55.3600     0.0951     0.4616
  175    3.480   1892.97     0.1242     0.0026     0.0804     0.0348     0.1584     2.1294    55.6800     0.1027     0.4531
  176    3.500   1894.02     0.1298     0.0028     0.0807     0.0350     0.1634     2.1978    56.0000     0.1074     0.4178
  177    3.520   1895.08     0.1338     0.0031     0.0806     0.0352     0.1681     2.2842    56.3200     0.1118     0.4150
  178    3.540   1896.17     0.1388     0.0034     0.0754     0.0354     0.1713     2.4966    56.6400     0.1146     0.3659
  179    3.560   1897.23     0.1373     0.0028     0.0746     0.0356     0.1686     2.0115    56.9600     0.1116     0.3474
  180    3.580   1898.26     0.1357     0.0033     0.0759     0.0358     0.1679     2.4201    57.2800     0.1106     0.3679
  181    3.600   1899.32     0.1394     0.0035     0.0747     0.0360     0.1707     2.5474    57.6000     0.1131     0.3406
  182    3.620   1900.40     0.1362     0.0038     0.0787     0.0362     0.1686     2.7914    57.9200     0.1106     0.3682
  183    3.640   1901.46     0.1375     0.0040     0.0798     0.0364     0.1711     2.9064    58.2400     0.1128     0.3850
  184    3.660   1902.51     0.1455     0.0036     0.0749     0.0366     0.1779     2.5002    58.5600     0.1193     0.3389
  185    3.680   1903.55     0.1419     0.0033     0.0724     0.0368     0.1730     2.2708    58.8800     0.1141     0.3260
  186    3.700   1904.60     0.1391     0.0031     0.0722     0.0370     0.1694     2.1717    59.2000     0.1102     0.3201
  187    3.720   1905.66     0.1262     0.0033     0.0696     0.0372     0.1557     2.5626    59.5200     0.0962     0.3438
  188    3.740   1906.71     0.1171     0.0035     0.0665     0.0374     0.1458     2.8670    59.8400     0.0859     0.3585
  189    3.760   1907.76     0.1103     0.0036     0.0635     0.0376     0.1373     3.2407    60.1600     0.0772     0.3477
  190    3.780   1908.85     0.1116     0.0033     0.0619     0.0378     0.1373     3.0476    60.4800     0.0768     0.3030
  191    3.800   1909.90     0.1076     0.0033     0.0632     0.0380     0.1340     2.9739    60.8000     0.0732     0.3405
  192    3.820   1910.96     0.1097     0.0033     0.0651     0.0382     0.1370     2.9753    61.1200     0.0758     0.3528
  193    3.840   1912.01     0.1138     0.0032     0.0658     0.0384     0.1412     2.8518    61.4400     0.0798     0.3361
  194    3.860   1913.07     0.1074     0.0032     0.0707     0.0386     0.1363     2.8801    61.7600     0.0746     0.4086
  195    3.880   1914.12     0.0975     0.0026     0.0688     0.0388     0.1271     2.6389    62.0800     0.0650     0.4858
  196    3.900   1915.18     0.0930     0.0024     0.0678     0.0390     0.1214     2.5394    62.4000     0.0590     0.4839
  197    3.920   1916.23     0.0883     0.0024     0.0671     0.0392     0.1164     2.6609    62.7200     0.0537     0.5162
  198    3.940   1917.29     0.0871     0.0031     0.0692     0.0394     0.1158     3.4664    63.0400     0.0528     0.5485
  199    3.960   1918.34     0.0893     0.0033     0.0717     0.0396     0.1190     3.6810    63.3600     0.0557     0.5590
  200    3.980   1919.43     0.0902     0.0032     0.0741     0.0398     0.1209     3.5112    63.6800     0.0572     0.5819
  201    4.000   1920.48     0.0882     0.0029     0.0767     0.0400     0.1198     3.2692    64.0000     0.0558     0.6312
  202    4.020   1921.56     0.0889     0.0030     0.0793     0.0402     0.1218     3.3646    64.3200     0.0575     0.6637
  203    4.040   1922.59     0.0937     0.0031     0.0839     0.0404     0.1282     3.3563    64.6400     0.0636     0.6567
  204    4.060   1923.64     0.1083     0.0028     0.0894     0.0406     0.1450     2.7603    64.9600     0.0800     0.5858
  205    4.080   1924.70     0.1201     0.0032     0.0937     0.0408     0.1590     2.7658    65.2800     0.0937     0.5522
  206    4.100   1925.74     0.1304     0.0035     0.0896     0.0410     0.1687     2.7473    65.6000     0.1031     0.4873
  207    4.120   1926.79     0.1414     0.0034     0.0874     0.0412     0.1789     2.4565    65.9200     0.1130     0.4250
  208    4.140   1927.86     0.1497     0.0035     0.0843     0.0414     0.1851     2.3929    66.2400     0.1188     0.3614
  209    4.160   1928.92     0.1547     0.0039     0.0826     0.0416     0.1902     2.5340    66.5600     0.1236     0.3461
  210    4.180   1929.97     0.1523     0.0037     0.0847     0.0418     0.1872     2.4311    66.8800     0.1203     0.3425
  211    4.200   1930.98     0.1506     0.0037     0.0887     0.0420     0.1872     2.4292    67.2000     0.1200     0.3754
  212    4.220   1932.08     0.1520     0.0039     0.0935     0.0422     0.1904     2.6002    67.5200     0.1229     0.4005
  213    4.240   1933.11     0.1579     0.0036     0.0973     0.0424     0.1983     2.3107    67.8400     0.1305     0.4136
  214    4.260   1934.18     0.1598     0.0038     0.1008     0.0426     0.2015     2.3714    68.1600     0.1334     0.4259
  215    4.280   1935.23     0.1620     0.0039     0.1005     0.0428     0.2049     2.3985    68.4800     0.1364     0.4349
  216    4.300   1936.28     0.1643     0.0039     0.0960     0.0430     0.2051     2.3754    68.8000     0.1363     0.3976
  217    4.320   1937.33     0.1591     0.0039     0.0923     0.0432     0.1984     2.4127    69.1200     0.1293     0.3897
  218    4.340   1938.39     0.1575     0.0042     0.0900     0.0434     0.1954     2.6524    69.4400     0.1260     0.3715
  219    4.360   1939.48     0.1527     0.0040     0.0872     0.0436     0.1897     2.6151    69.7600     0.1200     0.3712
  220    4.380   1940.58     0.1489     0.0048     0.0883     0.0438     0.1856     3.1983    70.0800     0.1156     0.3776
  221    4.400   1941.63     0.1421     0.0044     0.0898     0.0440     0.1797     3.0933    70.4000     0.1093     0.4166
  222    4.420   1942.69     0.1411     0.0039     0.0891     0.0442     0.1788     2.7501    70.7200     0.1081     0.4221
  223    4.440   1943.74     0.1404     0.0038     0.0920     0.0444     0.1781     2.7007    71.0400     0.1070     0.4222
  224    4.460   1944.80     0.1489     0.0040     0.0972     0.0446     0.1891     2.7977    71.3600     0.1178     0.4357
  225    4.480   1945.83     0.1511     0.0038     0.1016     0.0448     0.1934     2.5310    71.6800     0.1218     0.4601
  226    4.500   1946.95     0.1562     0.0041     0.0993     0.0450     0.1982     2.6252    72.0000     0.1262     0.4359
  227    4.520   1947.96     0.1580     0.0043     0.0965     0.0452     0.1992     2.7695    72.3200     0.1269     0.4170
  228    4.540   1949.02     0.1662     0.0046     0.0928     0.0454     0.2057     2.7660    72.6400     0.1330     0.3647
  229    4.560   1950.07     0.1718     0.0046     0.0950     0.0456     0.2116     2.7042    72.9600     0.1386     0.3549
  230    4.580   1951.18     0.1775     0.0048     0.0908     0.0458     0.2164     2.7231    73.2800     0.1432     0.3275
  231    4.600   1952.25     0.1757     0.0050     0.0878     0.0460     0.2123     2.7982    73.6000     0.1387     0.2972
  232    4.620   1953.32     0.1737     0.0053     0.0940     0.0462     0.2121     3.0735    73.9200     0.1382     0.3272
  233    4.640   1954.37     0.1701     0.0057     0.0974     0.0464     0.2108     3.2356    74.2400     0.1366     0.3692
  234    4.660   1955.43     0.1729     0.0062     0.0967     0.0466     0.2144     3.4389    74.5600     0.1398     0.3732
  235    4.680   1956.50     0.1822     0.0064     0.0942     0.0468     0.2224     3.5305    74.8800     0.1475     0.3319
  236    4.700   1957.62     0.1821     0.0062     0.0954     0.0470     0.2221     3.4361    75.2000     0.1469     0.3287
  237    4.720   1958.67     0.1884     0.0066     0.0965     0.0472     0.2285     3.5450    75.5200     0.1530     0.3158
  238    4.740   1964.16     0.1914     0.0065     0.0983     0.0474     0.2326     3.4048    75.8400     0.1568     0.3238
  239    4.760   1978.38     0.1928     0.0063     0.0985     0.0476     0.2342     3.2901    76.1600     0.1580     0.3218
  240    4.780   1992.60     0.1943     0.0064     0.0997     0.0478     0.2358     3.3437    76.4800     0.1593     0.3197
  241    4.800   1995.78     0.1953     0.0064     0.1009     0.0480     0.2379     3.2589    76.8000     0.1611     0.3313
  242    4.820   1996.84     0.1931     0.0064     0.0975     0.0482     0.2341     3.3332    77.1200     0.1569     0.3138
  243    4.840   1997.89     0.1934     0.0059     0.1053     0.0484     0.2363     3.0517    77.4400     0.1588     0.3379
  244    4.860   1998.90     0.1966     0.0060     0.1111     0.0486     0.2422     3.0522    77.7600     0.1645     0.3645
  245    4.880   2000.04     0.2010     0.0059     0.1158     0.0488     0.2490     2.9294    78.0800     0.1709     0.3831
  246    4.900   2001.09     0.1997     0.0056     0.1146     0.0490     0.2480     2.8061    78.4000     0.1696     0.3880
  247    4.920   2002.14     0.1973     0.0061     0.1168     0.0492     0.2460     3.0491    78.7200     0.1673     0.3993
  248    4.940   2003.20     0.1982     0.0061     0.1179     0.0494     0.2479     3.0401    79.0400     0.1689     0.4090
  249    4.960   2004.23     0.1955     0.0058     0.1168     0.0496     0.2446     2.9570    79.3600     0.1653     0.4083
  250    4.980   2005.31     0.1881     0.0053     0.1156     0.0498     0.2366     2.7965    79.6800     0.1569     0.4186
  251    5.000   2006.39     0.1851     0.0056     0.1177     0.0500     0.2339     3.0115    80.0000     0.1539     0.4305
  252    5.020   2007.42     0.1850     0.0057     0.1204     0.0502     0.2352     3.1073    80.3200     0.1549     0.4483
  253    5.040   2008.47     0.1843     0.0060     0.1213     0.0504     0.2348     3.2508    80.6400     0.1541     0.4524
  254    5.060   2009.51     0.1858     0.0056     0.1192     0.0506     0.2368     3.0623    80.9600     0.1558     0.4549
  255    5.080   2010.58     0.2002     0.0057     0.1076     0.0508     0.2466     2.9047    81.2800     0.1654     0.3610
  256    5.100   2011.62     0.1933     0.0054     0.1115     0.0510     0.2395     2.7589    81.6000     0.1579     0.3749
  257    5.120   2012.67     0.1882     0.0059     0.1154     0.0512     0.2365     3.1212    81.9200     0.1546     0.4128
  258    5.140   2013.75     0.1896     0.0063     0.1186     0.0514     0.2390     3.3022    82.2400     0.1567     0.4215
  259    5.160   2014.77     0.1909     0.0058     0.1194     0.0516     0.2411     3.0780    82.5600     0.1585     0.4276
  260    5.180   2015.83     0.1881     0.0060     0.1171     0.0518     0.2374     3.1559    82.8800     0.1545     0.4235
  261    5.200   2016.84     0.1923     0.0057     0.1162     0.0520     0.2410     3.0293    83.2000     0.1578     0.4063
  262    5.220   2017.89     0.2022     0.0062     0.1132     0.0522     0.2507     3.0807    83.5200     0.1672     0.3786
  263    5.240   2018.95     0.2031     0.0065     0.1130     0.0524     0.2500     3.2159    83.8400     0.1661     0.3560
  264    5.260   2020.03     0.2068     0.0068     0.1133     0.0526     0.2544     3.3355    84.1600     0.1702     0.3563
  265    5.280   2021.06     0.2134     0.0077     0.1116     0.0528     0.2607     3.5976    84.4800     0.1762     0.3390
  266    5.300   2022.08     0.2185     0.0076     0.1031     0.0530     0.2633     3.4987    84.8000     0.1785     0.3000
  267    5.320   2023.14     0.2185     0.0082     0.1053     0.0532     0.2620     3.7563    85.1200     0.1768     0.2842
  268    5.340   2024.24     0.2313     0.0081     0.1042     0.0534     0.2751     3.5569    85.4400     0.1897     0.2687
  269    5.360   2025.30     0.2332     0.0088     0.1075     0.0536     0.2777     3.8324    85.7600     0.1919     0.2719
  270    5.380   2026.33     0.2317     0.0088     0.1055     0.0538     0.2769     3.7891    86.0800     0.1908     0.2821
  271    5.400   2027.39     0.2320     0.0085     0.0969     0.0540     0.2737     3.6771    86.4000     0.1873     0.2423
  272    5.420   2028.47     0.2250     0.0082     0.1019     0.0542     0.2673     3.5939    86.7200     0.1806     0.2577
  273    5.440   2029.52     0.2198     0.0079     0.1055     0.0544     0.2636     3.5943    87.0400     0.1766     0.2829
  274    5.460   2030.58     0.2108     0.0078     0.1110     0.0546     0.2564     3.6798    87.3600     0.1691     0.3206
  275    5.480   2031.64     0.2076     0.0078     0.1143     0.0548     0.2549     3.7074    87.6800     0.1672     0.3462
  276    5.500   2032.72     0.1999     0.0075     0.1189     0.0550     0.2494     3.7167    88.0000     0.1614     0.3900
  277    5.520   2033.77     0.1969     0.0073     0.1216     0.0552     0.2476     3.6473    88.3200     0.1593     0.4115
  278    5.540   2034.77     0.1929     0.0065     0.1227     0.0554     0.2443     3.3567    88.6400     0.1557     0.4309
  279    5.560   2035.88     0.1885     0.0063     0.1267     0.0556     0.2414     3.3229    88.9600     0.1524     0.4614
  280    5.580   2036.94     0.1885     0.0058     0.1298     0.0558     0.2428     3.0761    89.2800     0.1536     0.4794
  281    5.600   2037.99     0.1912     0.0051     0.1301     0.0560     0.2458     2.6663    89.6000     0.1562     0.4738
  282    5.620   2039.05     0.1920     0.0052     0.1334     0.0562     0.2478     2.7543    89.9200     0.1579     0.4863
  283    5.640   2040.03     0.1960     0.0051     0.1356     0.0564     0.2528     2.6260    90.2400     0.1625     0.4848
  284    5.660   2040.98     0.1992     0.0054     0.1341     0.0566     0.2560     2.7218    90.5600     0.1654     0.4750
  285    5.680   2042.00     0.1963     0.0052     0.1315     0.0568     0.2521     2.6524    90.8800     0.1612     0.4725
  286    5.700   2043.06     0.1981     0.0055     0.1245     0.0570     0.2517     2.7695    91.2000     0.1605     0.4397
  287    5.720   2044.12     0.1921     0.0057     0.1229     0.0572     0.2440     2.9496    91.5200     0.1524     0.4350
  288    5.740   2045.19     0.1850     0.0056     0.1219     0.0574     0.2366     3.0195    91.8400     0.1447     0.4515
  289    5.760   2046.25     0.1805     0.0055     0.1212     0.0576     0.2312     2.9961    92.1600     0.1390     0.4531
  290    5.780   2047.33     0.1774     0.0050     0.1209     0.0578     0.2284     2.8397    92.4800     0.1359     0.4673
  291    5.800   2048.39     0.1729     0.0052     0.1246     0.0580     0.2244     2.9465    92.8000     0.1316     0.4912
  292    5.820   2049.44     0.1691     0.0049     0.1287     0.0582     0.2227     2.8806    93.1200     0.1296     0.5363
  293    5.840   2050.54     0.1654     0.0050     0.1292     0.0584     0.2196     2.9743    93.4400     0.1262     0.5604
  294    5.860   2051.63     0.1627     0.0043     0.1303     0.0586     0.2173     2.6245    93.7600     0.1235     0.5776
  295    5.880   2052.68     0.1619     0.0042     0.1319     0.0588     0.2171     2.5387    94.0800     0.1230     0.5912
  296    5.900   2053.66     0.1649     0.0041     0.1321     0.0590     0.2206     2.4216    94.4000     0.1262     0.5826
  297    5.920   2054.54     0.1648     0.0042     0.1324     0.0592     0.2199     2.5311    94.7200     0.1252     0.5753
  298    5.940   2055.41     0.1686     0.0044     0.1361     0.0594     0.2251     2.6668    95.0400     0.1301     0.5774
  299    5.960   2056.38     0.1717     0.0048     0.1354     0.0596     0.2287     2.8209    95.3600     0.1334     0.5720
  300    5.980   2057.47     0.1809     0.0048     0.1332     0.0598     0.2373     2.7007    95.6800     0.1417     0.5272
  301    6.000   2058.52     0.1876     0.0048     0.1331     0.0600     0.2435     2.5627    96.0000     0.1475     0.4952
  302    6.020   2059.57     0.1888     0.0052     0.1333     0.0602     0.2448     2.7759    96.3200     0.1485     0.4928
  303    6.040   2060.62     0.1915     0.0053     0.1347     0.0604     0.2479     2.7867    96.6400     0.1513     0.4893
  304    6.060   2061.72     0.1891     0.0050     0.1364     0.0606     0.2463     2.6376    96.9600     0.1494     0.5063
  305    6.080   2062.79     0.1914     0.0050     0.1352     0.0608     0.2480     2.6405    97.2800     0.1507     0.4901
  306    6.100   2063.84     0.1886     0.0049     0.1340     0.0610     0.2446     2.5930    97.6000     0.1470     0.4927
  307    6.120   2064.95     0.1903     0.0053     0.1353     0.0612     0.2469     2.7594    97.9200     0.1490     0.4943
  308    6.140   2065.95     0.1886     0.0054     0.1327     0.0614     0.2450     2.8786    98.2400     0.1468     0.4965
  309    6.160   2067.02     0.1952     0.0054     0.1309     0.0616     0.2502     2.7888    98.5600     0.1516     0.4562
  310    6.180   2068.12     0.1936     0.0051     0.1313     0.0618     0.2484     2.6402    98.8800     0.1496     0.4603
  311    6.200   2069.17     0.1959     0.0056     0.1328     0.0620     0.2518     2.8568    99.2000     0.1526     0.4657
  312    6.220   2070.23     0.1985     0.0055     0.1320     0.0622     0.2541     2.7503    99.5200     0.1545     0.4528
  313    6.240   2071.28     0.1989     0.0058     0.1342     0.0624     0.2547     2.9103    99.8400     0.1549     0.4561
  314    6.260   2072.34     0.1959     0.0056     0.1366     0.0626     0.2532     2.8709   100.1600     0.1530     0.4811
  315    6.280   2073.42     0.1988     0.0057     0.1371     0.0628     0.2564     2.8601   100.4800     0.1559     0.4763
  316    6.300   2074.50     0.2006     0.0057     0.1381     0.0630     0.2583     2.8364   100.8000     0.1575     0.4727
  317    6.320   2075.54     0.2033     0.0059     0.1390     0.0632     0.2614     2.9380   101.1200     0.1603     0.4693
  318    6.340   2076.58     0.2053     0.0056     0.1371     0.0634     0.2632     2.7727   101.4400     0.1617     0.4602
  319    6.360   2077.64     0.2045     0.0058     0.1379     0.0636     0.2622     2.8675   101.7600     0.1604     0.4601
  320    6.380   2078.69     0.2043     0.0063     0.1399     0.0638     0.2627     3.0756   102.0800     0.1606     0.4686
  321    6.400   2079.74     0.2018     0.0062     0.1413     0.0640     0.2610     3.0427   102.4000     0.1586     0.4860
  322    6.420   2080.83     0.1988     0.0064     0.1450     0.0642     0.2591     3.2204   102.7200     0.1564     0.5072
  323    6.440   2081.88     0.2012     0.0063     0.1474     0.0644     0.2630     3.1390   103.0400     0.1599     0.5162
  324    6.460   2082.94     0.2064     0.0069     0.1482     0.0646     0.2685     3.4076   103.3600     0.1652     0.5046
  325    6.480   2084.02     0.2110     0.0064     0.1505     0.0648     0.2738     3.0284   103.6800     0.1702     0.4981
  326    6.500   2085.08     0.2106     0.0063     0.1514     0.0650     0.2739     3.0086   104.0000     0.1699     0.5048
  327    6.520   2086.10     0.2149     0.0065     0.1506     0.0652     0.2788     3.0756   104.3200     0.1745     0.4987
  328    6.540   2087.19     0.2174     0.0064     0.1439     0.0654     0.2790     2.9497   104.6400     0.1744     0.4656
  329    6.560   2088.24     0.2109     0.0066     0.1400     0.0656     0.2701     3.0405   104.9600     0.1651     0.4561
  330    6.580   2089.29     0.2120     0.0070     0.1375     0.0658     0.2696     3.3413   105.2800     0.1643     0.4342
  331    6.600   2090.30     0.2073     0.0068     0.1409     0.0660     0.2659     3.2333   105.6000     0.1603     0.4593
  332    6.620   2091.37     0.2044     0.0068     0.1436     0.0662     0.2639     3.3278   105.9200     0.1580     0.4784
  333    6.640   2092.41     0.2018     0.0067     0.1463     0.0664     0.2631     3.3013   106.2400     0.1569     0.5069
  334    6.660   2093.46     0.1990     0.0063     0.1453     0.0666     0.2605     3.1180   106.5600     0.1539     0.5189
  335    6.680   2094.55     0.1913     0.0066     0.1440     0.0668     0.2517     3.3265   106.8800     0.1448     0.5312
  336    6.700   2095.57     0.1901     0.0068     0.1447     0.0670     0.2504     3.4681   107.2000     0.1432     0.5339
  337    6.720   2096.65     0.1855     0.0070     0.1514     0.0672     0.2481     3.6098   107.5200     0.1406     0.5819
  338    6.740   2097.70     0.1886     0.0072     0.1559     0.0674     0.2534     3.7514   107.8400     0.1456     0.5972
  339    6.760   2098.79     0.1932     0.0074     0.1601     0.0676     0.2601     3.8931   108.1600     0.1519     0.6031
  340    6.780   2106.62     0.1926     0.0071     0.1634     0.0678     0.2607     3.7367   108.4800     0.1523     0.6203
  341    6.800   2121.97     0.1984     0.0070     0.1671     0.0680     0.2680     3.6748   108.8000     0.1592     0.6155
  342    6.820   2137.32     0.2041     0.0068     0.1707     0.0682     0.2753     3.5935   109.1200     0.1662     0.6106
  343    6.840   2152.66     0.2098     0.0068     0.1743     0.0684     0.2825     3.5977   109.4400     0.1731     0.6058
  344    6.860   2168.01     0.2156     0.0066     0.1780     0.0686     0.2898     3.4512   109.7600     0.1800     0.6009
  345    6.880   2174.79     0.2242     0.0069     0.1790     0.0688     0.2992     3.2131   110.0800     0.1891     0.5807
  346    6.900   2175.46     0.2306     0.0070     0.1780     0.0690     0.3059     3.0633   110.4000     0.1955     0.5640
  347    6.920   2176.09     0.2344     0.0073     0.1733     0.0692     0.3079     3.0883   110.7200     0.1972     0.5366
  348    6.940   2176.74     0.2315     0.0075     0.1728     0.0694     0.3041     3.2114   111.0400     0.1931     0.5368
  349    6.960   2177.40     0.2352     0.0074     0.1718     0.0696     0.3073     3.1496   111.3600     0.1960     0.5213
  350    6.980   2178.03     0.2350     0.0074     0.1695     0.0698     0.3067     3.1393   111.6800     0.1950     0.5182
  351    7.000   2178.68     0.2318     0.0074     0.1727     0.0700     0.3039     3.1951   112.0000     0.1919     0.5294
  352    7.020   2179.31     0.2298     0.0074     0.1714     0.0702     0.3019     3.2452   112.3200     0.1895     0.5345
  353    7.040   2179.98     0.2235     0.0074     0.1682     0.0704     0.2951     3.2572   112.6400     0.1824     0.5485
  354    7.060   2180.63     0.2205     0.0073     0.1653     0.0706     0.2901     3.2689   112.9600     0.1772     0.5378
  355    7.080   2181.26     0.2120     0.0076     0.1694     0.0708     0.2829     3.4906   113.2800     0.1696     0.5770
  356    7.100   2181.91     0.2056     0.0072     0.1705     0.0710     0.2767     3.4648   113.6000     0.1631     0.6032
  357    7.120   2186.31     0.2035     0.0072     0.1719     0.0712     0.2756     3.5623   113.9200     0.1617     0.6230
  358    7.140   2201.24     0.2122     0.0073     0.1723     0.0714     0.2845     3.6429   114.2400     0.1703     0.5943
  359    7.160   2216.17     0.2210     0.0073     0.1727     0.0716     0.2935     3.6414   114.5600     0.1789     0.5655
  360    7.180   2222.50     0.2336     0.0072     0.1750     0.0718     0.3073     3.1230   114.8800     0.1925     0.5389
  361    7.200   2223.61     0.2397     0.0082     0.1684     0.0720     0.3115     3.4043   115.2000     0.1963     0.5044
  362    7.220   2224.66     0.2381     0.0082     0.1619     0.0722     0.3064     3.3845   115.5200     0.1909     0.4739
  363    7.240   2225.72     0.2309     0.0082     0.1626     0.0724     0.2994     3.4943   115.8400     0.1835     0.4936
  364    7.260   2226.82     0.2280     0.0086     0.1617     0.0726     0.2953     3.7669   116.1600     0.1791     0.4895
  365    7.280   2227.86     0.2234     0.0083     0.1638     0.0728     0.2920     3.6653   116.4800     0.1755     0.5157
  366    7.300   2228.93     0.2236     0.0082     0.1692     0.0730     0.2932     3.6513   116.8000     0.1764     0.5261
  367    7.320   2230.03     0.2160     0.0081     0.1755     0.0732     0.2886     3.7511   117.1200     0.1715     0.5807
  368    7.340   2231.07     0.2161     0.0078     0.1782     0.0734     0.2903     3.5877   117.4400     0.1729     0.5982
  369    7.360   2232.08     0.2182     0.0075     0.1821     0.0736     0.2942     3.4140   117.7600     0.1764     0.6077
  370    7.380   2233.16     0.2204     0.0072     0.1840     0.0738     0.2978     3.2576   118.0800     0.1797     0.6146
  371    7.400   2234.26     0.2231     0.0072     0.1849     0.0740     0.3003     3.2357   118.4000     0.1819     0.6034
  372    7.420   2235.32     0.2230     0.0073     0.1858     0.0742     0.3008     3.2717   118.7200     0.1821     0.6107
  373    7.440   2236.40     0.2271     0.0071     0.1875     0.0744     0.3056     3.1542   119.0400     0.1865     0.6022
  374    7.460   2237.40     0.2289     0.0068     0.1900     0.0746     0.3084     2.9762   119.3600     0.1890     0.6060
  375    7.480   2238.49     0.2297     0.0069     0.1942     0.0748     0.3108     3.0091   119.6800     0.1912     0.6190
  376    7.500   2239.58     0.2292     0.0069     0.1957     0.0750     0.3111     3.0073   120.0000     0.1911     0.6280
  377    7.520   2240.65     0.2346     0.0072     0.1962     0.0752     0.3171     3.0672   120.3200     0.1967     0.6152
  378    7.540   2241.70     0.2320     0.0065     0.1976     0.0754     0.3145     2.8342   120.6400     0.1938     0.6247
  379    7.560   2242.78     0.2310     0.0066     0.2015     0.0756     0.3151     2.8375   120.9600     0.1941     0.6419
  380    7.580   2243.84     0.2279     0.0066     0.2020     0.0758     0.3129     2.8704   121.2800     0.1916     0.6610
  381    7.600   2244.92     0.2352     0.0070     0.2017     0.0760     0.3200     2.9848   121.6000     0.1984     0.6355
  382    7.620   2245.97     0.2362     0.0070     0.2039     0.0762     0.3211     2.9791   121.9200     0.1992     0.6328
  383    7.640   2247.03     0.2370     0.0074     0.2009     0.0764     0.3220     3.1576   122.2400     0.1998     0.6308
  384    7.660   2248.11     0.2423     0.0074     0.1964     0.0766     0.3253     3.0826   122.5600     0.2028     0.5976
  385    7.680   2249.14     0.2423     0.0071     0.1978     0.0768     0.3247     2.9149   122.8800     0.2018     0.5915
  386    7.700   2250.22     0.2375     0.0069     0.2044     0.0770     0.3222     2.8800   123.2000     0.1990     0.6271
  387    7.720   2251.27     0.2373     0.0072     0.2093     0.0772     0.3245     3.0578   123.5200     0.2010     0.6489
  388    7.740   2252.36     0.2377     0.0072     0.2144     0.0774     0.3271     3.0189   123.8400     0.2033     0.6667
  389    7.760   2253.42     0.2385     0.0069     0.2182     0.0776     0.3294     2.8899   124.1600     0.2053     0.6768
  390    7.780   2254.49     0.2478     0.0066     0.2157     0.0778     0.3393     2.6809   124.4800     0.2148     0.6515
  391    7.800   2255.56     0.2493     0.0069     0.2078     0.0780     0.3372     2.7739   124.8000     0.2124     0.6187
  392    7.820   2256.63     0.2422     0.0067     0.2089     0.0782     0.3297     2.7281   125.1200     0.2046     0.6363
  393    7.840   2257.71     0.2395     0.0070     0.2127     0.0784     0.3284     2.9297   125.4400     0.2030     0.6574
  394    7.860   2258.76     0.2435     0.0074     0.2116     0.0786     0.3330     3.0252   125.7600     0.2072     0.6488
  395    7.880   2259.77     0.2394     0.0078     0.2066     0.0788     0.3269     3.2180   126.0800     0.2008     0.6449
  396    7.900   2260.85     0.2407     0.0078     0.2061     0.0790     0.3275     3.1927   126.4000     0.2011     0.6340
  397    7.920   2261.99     0.2424     0.0081     0.2043     0.0792     0.3287     3.3172   126.7200     0.2019     0.6248
  398    7.940   2263.07     0.2383     0.0079     0.2022     0.0794     0.3237     3.3204   127.0400     0.1967     0.6301
  399    7.960   2264.12     0.2400     0.0080     0.2015     0.0796     0.3242     3.3390   127.3600     0.1968     0.6139
  400    7.980   2265.19     0.2354     0.0080     0.2084     0.0798     0.3217     3.3702   127.6800     0.1940     0.6476
  401    8.000   2266.23     0.2300     0.0081     0.2154     0.0800     0.3197     3.5286   128.0000     0.1917     0.6973
  402    8.020   2267.31     0.2313     0.0076     0.2132     0.0802     0.3215     3.3364   128.3200     0.1932     0.6971
  403    8.040   2268.37     0.2220     0.0071     0.2151     0.0804     0.3114     3.1810   128.6400     0.1827     0.7244
  404    8.060   2269.42     0.2230     0.0067     0.2199     0.0806     0.3149     3.0321   128.9600     0.1860     0.7436
  405    8.080   2270.53     0.2231     0.0066     0.2248     0.0808     0.3172     2.9557   129.2800     0.1880     0.7629
  406    8.100   2271.59     0.2271     0.0063     0.2259     0.0810     0.3215     2.7543   129.6000     0.1919     0.7491
  407    8.120   2272.62     0.2369     0.0070     0.2273     0.0812     0.3317     2.9900   129.9200     0.2018     0.7165
  408    8.140   2273.70     0.2441     0.0071     0.2261     0.0814     0.3400     2.9213   130.2400     0.2097     0.7007
  409    8.160   2274.75     0.2568     0.0073     0.2136     0.0816     0.3475     2.8192   130.5600     0.2170     0.6188
  410    8.180   2275.86     0.2643     0.0073     0.2105     0.0818     0.3526     2.7573   130.8800     0.2217     0.5796
  411    8.200   2276.92     0.2657     0.0068     0.2038     0.0820     0.3533     2.6005   131.2000     0.2221     0.5699
  412    8.220   2277.95     0.2606     0.0069     0.2170     0.0822     0.3506     2.6052   131.5200     0.2190     0.6028
  413    8.240   2279.03     0.2616     0.0075     0.2167     0.0824     0.3525     2.8728   131.8400     0.2207     0.6073
  414    8.260   2280.12     0.2625     0.0072     0.2248     0.0826     0.3560     2.7687   132.1600     0.2238     0.6248
  415    8.280   2281.19     0.2674     0.0078     0.2258     0.0828     0.3624     2.9040   132.4800     0.2299     0.6233
  416    8.300   2282.24     0.2711     0.0076     0.2223     0.0830     0.3650     2.8055   132.8000     0.2322     0.6051
  417    8.320   2283.30     0.2727     0.0077     0.2243     0.0832     0.3667     2.8148   133.1200     0.2336     0.6020
  418    8.340   2284.33     0.2735     0.0074     0.2252     0.0834     0.3679     2.7015   133.4400     0.2345     0.6030
  419    8.360   2285.43     0.2790     0.0068     0.2291     0.0836     0.3749     2.4403   133.7600     0.2411     0.6001
  420    8.380   2286.48     0.2874     0.0065     0.2279     0.0838     0.3832     2.2796   134.0800     0.2491     0.5790
  421    8.400   2287.60     0.3041     0.0073     0.2322     0.0840     0.4004     2.4535   134.4000     0.2660     0.5461
  422    8.420   2288.70     0.3210     0.0088     0.2355     0.0842     0.4197     2.7542   134.7200     0.2850     0.5293
  423    8.440   2289.75     0.3413     0.0075     0.2275     0.0844     0.4398     2.2426   135.0400     0.3047     0.4924
  424    8.460   2290.81     0.3694     0.0060     0.2183     0.0846     0.4611     1.6646   135.3600     0.3258     0.4107
  425    8.480   2291.87     0.3663     0.0055     0.2228     0.0848     0.4578     1.5029   135.6800     0.3221     0.4132
  426    8.500   2292.98     0.3820     0.0069     0.2109     0.0850     0.4727     1.8321   136.0000     0.3367     0.3890
  427    8.520   2294.02     0.5407     0.0121     0.2304     0.0852     0.6360     2.7205   136.3200     0.4997     0.2957
  428    8.540   2295.07     1.2290     0.0213     0.1590     0.0854     1.3094     2.1155   136.6400     1.1728     0.0951
  429    8.560   2296.20     1.5372     0.0216     0.0953     0.0856     1.5841     1.4048   136.9600     1.4471     0.0179
  430    8.580   2297.25     1.4317     0.0181     0.0730     0.0858     1.4641     1.2280   137.2800     1.3268    -0.0067
  431    8.600   2298.33     1.2082     0.0178     0.0864     0.0860     1.2404     1.4281   137.6000     1.1028    -0.0083
  432    8.620   2299.33     1.0412     0.0165     0.1243     0.0862     1.0878     1.5493   137.9200     0.9499     0.0261
  433    8.640   2300.39     1.1031     0.0165     0.1305     0.0864     1.1601     1.5551   138.2400     1.0219     0.0487
  434    8.660   2301.50     1.9905     0.0177     0.1452     0.0866     2.0483     1.0773   138.5600     1.9097     0.0270
  435    8.680   2302.55     3.5176     0.0197     0.0694     0.0868     3.5614     0.6606   138.8800     3.4225     0.0058
  436    8.700   2303.68     4.6784     0.0222     0.0238     0.0870     4.6917     0.5112   139.2000     4.5525    -0.0121
  437    8.720   2304.77     5.6751     0.0264     0.0205     0.0872     5.6844     0.4981   139.5200     5.5449    -0.0117
  438    8.740   2305.88     6.7115     0.0326     0.0375     0.0874     6.7244     0.5053   139.8400     6.5846    -0.0086
  439    8.760   2320.42     7.5096     0.0400     0.0615     0.0876     7.5320     0.5618   140.1600     7.3918    -0.0048
  440    8.780   2340.47     8.0546     0.0471     0.0776     0.0878     8.0870     0.6141   140.4800     7.9465    -0.0014
  441    8.800   2343.33     8.3461     0.0511     0.0707     0.0880     8.3764     0.6134   140.8000     8.2356    -0.0019
  442    8.820   2344.44     8.5173     0.0532     0.0738     0.0882     8.5478     0.6244   141.1200     8.4067    -0.0019
  443    8.840   2345.57     8.6034     0.0542     0.0769     0.0884     8.6351     0.6300   141.4400     8.4936    -0.0015
  444    8.860   2346.64     8.6419     0.0542     0.0805     0.0886     8.6751     0.6278   141.7600     8.5333    -0.0011
  445    8.880   2347.73     8.6402     0.0537     0.0832     0.0888     8.6752     0.6210   142.0800     8.5331    -0.0006
  446    8.900   2348.87     8.6548     0.0536     0.0819     0.0890     8.6891     0.6191   142.4000     8.5467    -0.0008
  447    8.920   2349.93     8.6386     0.0542     0.0858     0.0892     8.6738     0.6276   142.7200     8.5311    -0.0006
  448    8.940   2351.06     8.6667     0.0554     0.0881     0.0894     8.7034     0.6406   143.0400     8.5604    -0.0002
  449    8.960   2352.14     8.7650     0.0614     0.0891     0.0896     8.8026     0.7021   143.3600     8.6592     0.0000
  450    8.980   2353.22     8.8725     0.0630     0.0893     0.0898     8.9098     0.7111   143.6800     8.7662    -0.0001
  451    9.000   2354.30     8.9542     0.0615     0.0887     0.0900     8.9917     0.6876   144.0000     8.8477    -0.0001
  452    9.020   2355.36     8.9477     0.0624     0.0880     0.0902     8.9840     0.6965   144.3200     8.8396    -0.0004
  453    9.040   2356.49     8.6666     0.0629     0.0875     0.0904     8.7032     0.7177   144.6400     8.5586    -0.0004
  454    9.060   2357.54     7.9786     0.0651     0.0868     0.0906     8.0159     0.8003   144.9600     7.8709    -0.0002
  455    9.080   2358.65     7.1040     0.0600     0.0845     0.0908     7.1397     0.8185   145.2800     6.9944    -0.0008
  456    9.100   2359.71     6.2104     0.0607     0.0833     0.0910     6.2450     0.9429   145.6000     6.0994    -0.0014
  457    9.120   2360.81     4.9787     0.0622     0.0836     0.0912     5.0143     1.1795   145.9200     4.8684    -0.0013
  458    9.140   2361.83     3.9996     0.0618     0.0823     0.0914     4.0348     1.4750   146.2400     3.8886    -0.0020
  459    9.160   2362.93     2.9973     0.0575     0.0839     0.0916     3.0318     1.7960   146.5600     2.8853    -0.0033
  460    9.180   2363.93     2.3375     0.0501     0.0900     0.0918     2.3728     2.0572   146.8800     2.2260    -0.0034
  461    9.200   2365.04     1.8218     0.0444     0.1001     0.0920     1.8636     2.3508   147.2000     1.7164     0.0044
  462    9.220   2366.09     1.7621     0.0352     0.1068     0.0922     1.8060     2.0266   147.5200     1.6585     0.0075
  463    9.240   2367.22     2.0994     0.0291     0.1031     0.0924     2.1437     1.4619   147.8400     1.9958     0.0065
  464    9.260   2368.25     2.5706     0.0244     0.0934     0.0926     2.6104     0.9891   148.1600     2.4622     0.0009
  465    9.280   2369.34     2.9843     0.0210     0.0530     0.0928     3.0151     0.7209   148.4800     2.8666    -0.0067
  466    9.300   2370.41     2.7954     0.0192     0.0176     0.0930     2.8045     0.6722   148.8000     2.6557    -0.0270
  467    9.320   2371.49     2.2500     0.0209     0.0143     0.0932     2.2555     0.8829   149.1200     2.1064    -0.0381
  468    9.340   2372.55     1.7650     0.0233     0.0212     0.0934     1.7727     1.2730   149.4400     1.6233    -0.0463
  469    9.360   2373.64     1.4031     0.0268     0.0298     0.0936     1.4146     1.8151   149.7600     1.2648    -0.0525
  470    9.380   2374.70     1.1208     0.0277     0.0371     0.0938     1.1351     2.3829   150.0800     0.9851    -0.0606
  471    9.400   2375.82     0.9227     0.0256     0.0509     0.0940     0.9419     2.6777   150.4000     0.7915    -0.0610
  472    9.420   2376.88     0.7718     0.0232     0.0672     0.0942     0.7978     2.8606   150.7200     0.6471    -0.0499
  473    9.440   2377.91     0.6510     0.0205     0.0947     0.0944     0.6860     3.0648   151.0400     0.5350    -0.0206
  474    9.460   2378.96     0.5860     0.0171     0.1174     0.0946     0.6316     2.8799   151.3600     0.4802     0.0293
  475    9.480   2380.07     0.5151     0.0147     0.1492     0.0948     0.5732     2.7855   151.6800     0.4215     0.1040
  476    9.500   2381.17     0.4529     0.0117     0.1742     0.0950     0.5229     2.5284   152.0000     0.3709     0.1934
  477    9.520   2382.23     0.4329     0.0101     0.1935     0.0952     0.5117     2.3273   152.3200     0.3594     0.2572
  478    9.540   2383.28     0.4402     0.0091     0.2079     0.0954     0.5256     2.0695   152.6400     0.3730     0.2891
  479    9.560   2384.37     0.4403     0.0085     0.2212     0.0956     0.5316     1.9242   152.9600     0.3786     0.3216
  480    9.580   2385.43     0.4582     0.0103     0.2292     0.0958     0.5536     2.2544   153.2800     0.4003     0.3280
  481    9.600   2386.48     0.4699     0.0061     0.2357     0.0960     0.5679     1.2988   153.6000     0.4143     0.3314
  482    9.620   2387.54     0.4642     0.0006     0.2446     0.0962     0.5656     0.1305   153.9200     0.4117     0.3530
  483    9.640   2388.59     0.4561     0.0024     0.2552     0.0964     0.5616     0.5226   154.2400     0.4073     0.3799
  484    9.660   2389.67     0.4552     0.0074     0.2689     0.0966     0.5656     1.6157   154.5600     0.4110     0.4044
  485    9.680   2390.74     0.7233     0.0130     0.2942     0.0968     0.8433     1.9462   154.8800     0.6885     0.2829
  486    9.700   2391.83     2.7485     0.0217     0.2725     0.0970     2.8724     1.4615   155.2000     2.7172     0.0751
  487    9.720   2392.96     6.6096     0.0334     0.1035     0.0972     6.6744     0.6768   155.5200     6.5189     0.0090
  488    9.740   2394.09     9.1448     0.0478     0.0833     0.0974     9.1783     0.5577   155.8400     9.0225    -0.0020
  489    9.760   2395.19    10.3610     0.0594     0.0896     0.0976    10.3972     0.5999   156.1600    10.2411    -0.0011
  490    9.780   2396.31    11.1637     0.0684     0.0948     0.0978    11.2033     0.6294   156.4800    11.0468    -0.0003
  491    9.800   2397.37    11.7129     0.0717     0.0948     0.0980    11.7524     0.6247   156.8000    11.5956    -0.0003
  492    9.820   2398.53    12.2674     0.0755     0.0964     0.0982    12.3079     0.6194   157.1200    12.1508    -0.0001
  493    9.840   2399.65    12.6006     0.0817     0.1010     0.0984    12.6422     0.6520   157.4400    12.4848     0.0001
  494    9.860   2400.72    12.6875     0.0885     0.1002     0.0986    12.7300     0.6993   157.7600    12.5722     0.0002
  495    9.880   2401.86    12.7901     0.0928     0.0994     0.0988    12.8317     0.7296   158.0800    12.6736     0.0000
  496    9.900   2402.97    13.1037     0.0932     0.0996     0.0990    13.1455     0.7199   158.4000    12.9871     0.0000
  497    9.920   2404.12    13.4084     0.0947     0.1008     0.0992    13.4508     0.7078   158.7200    13.2921     0.0001
  498    9.940   2405.20    13.5215     0.0987     0.0986     0.0994    13.5635     0.7320   159.0400    13.4045     0.0000
  499    9.960   2406.32    13.6125     0.1018     0.0855     0.0996    13.6509     0.7507   159.3600    13.4916    -0.0006
  500    9.980   2407.45    13.7726     0.1027     0.0774     0.0998    13.8047     0.7483   159.6800    13.6450    -0.0017
  501   10.000   2408.53    13.8185     0.1012     0.0834     0.1000    13.8527     0.7330   160.0000    13.6927    -0.0014
  502   10.020   2409.64    13.8246     0.1011     0.0921     0.1002    13.8622     0.7317   160.3200    13.7019    -0.0008
  503   10.040   2410.75    13.8394     0.1038     0.0961     0.1004    13.8796     0.7498   160.6400    13.7189    -0.0004
  504   10.060   2411.91    13.8262     0.1041     0.0968     0.1006    13.8664     0.7529   160.9600    13.7054    -0.0004
  505   10.080   2413.01    13.8150     0.1012     0.0992     0.1008    13.8563     0.7327   161.2800    13.6950    -0.0002
  506   10.100   2414.13    13.7222     0.0985     0.1036     0.1010    13.7652     0.7171   161.6000    13.6036     0.0001
  507   10.120   2415.25    13.5328     0.0962     0.1022     0.1012    13.5759     0.7091   161.9200    13.4140     0.0001
  508   10.140   2416.31    13.3663     0.0956     0.0974     0.1014    13.4085     0.7112   162.2400    13.2462    -0.0001
  509   10.160   2417.47    13.2178     0.0941     0.0978     0.1016    13.2581     0.7107   162.5600    13.0956    -0.0004
  510   10.180   2418.53    13.0683     0.0906     0.1006     0.1018    13.1096     0.6896   162.8800    12.9467    -0.0003
  511   10.200   2419.64    12.8680     0.0882     0.1014     0.1020    12.9105     0.6810   163.2000    12.7473    -0.0001
  512   10.220   2420.77    12.6615     0.0877     0.1007     0.1022    12.7038     0.6893   163.5200    12.5403    -0.0001
  513   10.240   2421.91    12.5085     0.0851     0.0998     0.1024    12.5511     0.6764   163.8400    12.3873    -0.0001
  514   10.260   2423.00    12.4011     0.0837     0.1012     0.1026    12.4439     0.6728   164.1600    12.2797    -0.0001
  515   10.280   2424.11    12.4184     0.0818     0.1037     0.1028    12.4620     0.6608   164.4800    12.2975     0.0001
  516   10.300   2425.24    12.7158     0.0825     0.1035     0.1030    12.7590     0.6565   164.8000    12.5942     0.0000
  517   10.320   2426.34    13.2818     0.0835     0.1042     0.1032    13.3255     0.6394   165.1200    13.1603     0.0001
  518   10.340   2427.48    13.9424     0.0874     0.1045     0.1034    13.9863     0.6400   165.4400    13.8209     0.0001
  519   10.360   2428.61    14.6167     0.0928     0.1012     0.1036    14.6593     0.6428   165.7600    14.4935    -0.0002
  520   10.380   2429.76    14.9776     0.0976     0.0972     0.1038    15.0191     0.6562   166.0800    14.8531    -0.0003
  521   10.400   2430.93    15.1445     0.1014     0.0979     0.1040    15.1850     0.6723   166.4000    15.0186    -0.0005
  522   10.420   2432.01    15.2471     0.1043     0.0989     0.1042    15.2883     0.6862   166.7200    15.1216    -0.0004
  523   10.440   2433.15    15.3331     0.1054     0.1018     0.1044    15.3754     0.6884   167.0400    15.2084    -0.0002
  524   10.460   2434.27    15.3835     0.1058     0.1024     0.1046    15.4262     0.6884   167.3600    15.2588    -0.0002
  525   10.480   2435.41    15.3508     0.1045     0.1056     0.1048    15.3946     0.6800   167.6800    15.2269     0.0000
  526   10.500   2436.52    15.2562     0.1039     0.1026     0.1050    15.2999     0.6793   168.0000    15.1319    -0.0001
  527   10.520   2437.63    15.1963     0.1043     0.1054     0.1052    15.2403     0.6855   168.3200    15.0720     0.0000
  528   10.540   2438.79    15.3107     0.1026     0.1048     0.1054    15.3549     0.6720   168.6400    15.1862     0.0000
  529   10.560   2439.90    15.6107     0.1019     0.1071     0.1056    15.6553     0.6582   168.9600    15.4864     0.0000
  530   10.580   2441.05    16.3358     0.1062     0.1060     0.1058    16.3799     0.6568   169.2800    16.2106    -0.0001
  531   10.600   2442.14    17.2720     0.1119     0.1084     0.1060    17.3174     0.6604   169.6000    17.1478     0.0001
  532   10.620   2443.22    18.3395     0.1208     0.1037     0.1062    18.3850     0.6742   169.9200    18.2151     0.0001
  533   10.640   2444.15    19.3430     0.1313     0.0832     0.1064    19.3807     0.6935   170.2400    19.2104    -0.0009
  534   10.660   2445.07    20.0935     0.1359     0.0796     0.1066    20.1266     0.6981   170.5600    19.9560    -0.0014
  535   10.680   2445.96    20.3155     0.1396     0.0834     0.1068    20.3496     0.7004   170.8800    20.1787    -0.0013
  536   10.700   2446.92    20.3858     0.1431     0.0907     0.1070    20.4230     0.7026   171.2000    20.2518    -0.0009
  537   10.720   2447.92    20.2781     0.1445     0.0949     0.1072    20.3184     0.7109   171.5200    20.1469    -0.0005
  538   10.740   2448.87    19.9055     0.1450     0.1006     0.1074    19.9474     0.7245   171.8400    19.7756    -0.0004
  539   10.760   2455.51    19.4152     0.1432     0.1021     0.1076    19.4578     0.7293   172.1600    19.2857    -0.0003
  540   10.780   2467.83    18.9797     0.1374     0.1036     0.1078    19.0230     0.7000   172.4800    18.8505    -0.0002
  541   10.800   2480.16    18.5442     0.1291     0.1050     0.1080    18.5881     0.6588   172.8000    18.4153    -0.0002
  542   10.820   2485.15    18.0593     0.1244     0.1056     0.1082    18.1038     0.6853   173.1200    17.9307    -0.0001
  543   10.840   2486.20    17.4629     0.1221     0.1072     0.1084    17.5082     0.6950   173.4400    17.3348     0.0000
  544   10.860   2487.29    17.0487     0.1223     0.1053     0.1086    17.0933     0.7151   173.7600    16.9196    -0.0001
  545   10.880   2488.36    16.9642     0.1216     0.1048     0.1088    17.0083     0.7170   174.0800    16.8342    -0.0002
  546   10.900   2489.45    17.2216     0.1203     0.1064     0.1090    17.2669     0.7006   174.4000    17.0925    -0.0001
  547   10.920   2490.53    17.5213     0.1218     0.1095     0.1092    17.5670     0.6963   174.7200    17.3922     0.0000
  548   10.940   2491.63    17.5828     0.1259     0.1083     0.1094    17.6277     0.7155   175.0400    17.4526    -0.0002
  549   10.960   2492.70    17.4708     0.1309     0.1017     0.1096    17.5147     0.7487   175.3600    17.3394    -0.0003
  550   10.980   2493.77    17.4134     0.1325     0.1009     0.1098    17.4564     0.7607   175.6800    17.2808    -0.0004
  551   11.000   2494.88    17.3656     0.1295     0.1031     0.1100    17.4083     0.7459   176.0000    17.2323    -0.0005
  552   11.020   2495.94    17.4133     0.1289     0.1035     0.1102    17.4569     0.7408   176.3200    17.2805    -0.0004
  553   11.040   2497.02    17.4863     0.1312     0.1089     0.1104    17.5315     0.7501   176.6400    17.3549    -0.0002
  554   11.060   2498.11    17.4324     0.1324     0.1095     0.1106    17.4785     0.7591   176.9600    17.3015     0.0000
  555   11.080   2499.21    17.3045     0.1345     0.1090     0.1108    17.3505     0.7755   177.2800    17.1733    -0.0001
  556   11.100   2500.29    17.0927     0.1320     0.1079     0.1110    17.1384     0.7701   177.6000    16.9608    -0.0001
  557   11.120   2501.33    16.8170     0.1288     0.1089     0.1112    16.8629     0.7640   177.9200    16.6850    -0.0001
  558   11.140   2502.40    16.5490     0.1270     0.1085     0.1114    16.5941     0.7660   178.2400    16.4159    -0.0002
  559   11.160   2503.49    16.4071     0.1271     0.1072     0.1116    16.4517     0.7739   178.5600    16.2731    -0.0003
  560   11.180   2504.54    16.4054     0.1268     0.1086     0.1118    16.4509     0.7734   178.8800    16.2721    -0.0002
  561   11.200   2505.64    16.5324     0.1263     0.1103     0.1120    16.5780     0.7647   179.2000    16.3988    -0.0002
  562   11.220   2506.71    16.5674     0.1270     0.1115     0.1122    16.6146     0.7663   179.5200    16.4351     0.0000
  563   11.240   2507.84    16.4792     0.1264     0.1113     0.1124    16.5254     0.7663   179.8400    16.3455    -0.0002
  564   11.260   2508.92    16.3970     0.1263     0.1127     0.1126    16.4435     0.7692   180.1600    16.2634    -0.0001
  565   11.280   2509.98    16.3456     0.1265     0.1096     0.1128    16.3922     0.7734   180.4800    16.2117    -0.0001
  566   11.300   2511.05    16.3596     0.1279     0.1125     0.1130    16.4064     0.7827   180.8000    16.2256    -0.0001
  567   11.320   2512.12    16.5265     0.1291     0.1055     0.1132    16.5718     0.7826   181.1200    16.3907    -0.0003
  568   11.340   2513.24    16.7202     0.1321     0.1048     0.1134    16.7641     0.7911   181.4400    16.5826    -0.0005
  569   11.360   2514.33    16.7940     0.1360     0.1062     0.1136    16.8383     0.8102   181.7600    16.6566    -0.0005
  570   11.380   2515.42    16.8184     0.1380     0.1050     0.1138    16.8630     0.8207   182.0800    16.6809    -0.0005
  571   11.400   2516.48    16.8259     0.1399     0.1054     0.1140    16.8697     0.8315   182.4000    16.6873    -0.0006
  572   11.420   2517.56    16.8198     0.1384     0.1055     0.1142    16.8637     0.8223   182.7200    16.6810    -0.0006
  573   11.440   2518.63    16.7410     0.1384     0.1069     0.1144    16.7859     0.8257   183.0400    16.6029    -0.0004
  574   11.460   2519.70    16.6250     0.1385     0.1063     0.1146    16.6696     0.8320   183.3600    16.4862    -0.0005
  575   11.480   2520.77    16.4670     0.1380     0.1081     0.1148    16.5119     0.8361   183.6800    16.3283    -0.0005
  576   11.500   2521.88    16.2616     0.1362     0.1085     0.1150    16.3070     0.8357   184.0000    16.1230    -0.0004
  577   11.520   2522.97    15.9831     0.1366     0.1107     0.1152    16.0292     0.8514   184.3200    15.8449    -0.0003
  578   11.540   2524.05    15.6994     0.1347     0.1116     0.1154    15.7470     0.8549   184.6400    15.5624    -0.0001
  579   11.560   2525.13    15.4039     0.1344     0.1109     0.1156    15.4502     0.8683   184.9600    15.2652    -0.0003
  580   11.580   2526.17    15.0495     0.1318     0.1123     0.1158    15.0967     0.8719   185.2800    14.9114    -0.0002
  581   11.600   2527.28    14.6565     0.1301     0.1122     0.1160    14.7036     0.8829   185.6000    14.5180    -0.0003
  582   11.620   2528.35    14.2420     0.1267     0.1137     0.1162    14.2895     0.8840   185.9200    14.1036    -0.0002
  583   11.640   2529.45    13.7918     0.1224     0.1139     0.1164    13.8401     0.8803   186.2400    13.6538    -0.0001
  584   11.660   2530.44    13.3336     0.1169     0.1125     0.1166    13.3812     0.8734   186.5600    13.1946    -0.0003
  585   11.680   2531.55    12.7163     0.1099     0.1116     0.1168    12.7632     0.8531   186.8800    12.5764    -0.0004
  586   11.700   2532.62    11.9964     0.1049     0.1123     0.1170    12.0438     0.8657   187.2000    11.8566    -0.0004
  587   11.720   2533.73    11.4624     0.1035     0.1126     0.1172    11.5097     0.8981   187.5200    11.3221    -0.0004
  588   11.740   2534.77    11.0588     0.1029     0.1137     0.1174    11.1068     0.9272   187.8400    10.9190    -0.0003
  589   11.760   2535.84    10.8015     0.1010     0.1133     0.1176    10.8494     0.9318   188.1600    10.6612    -0.0003
  590   11.780   2536.95    10.7183     0.0977     0.1133     0.1178    10.7663     0.9108   188.4800    10.5778    -0.0003
  591   11.800   2538.04    10.6991     0.0953     0.1188     0.1180    10.7478     0.8901   188.8000    10.5590    -0.0002
  592   11.820   2539.11    10.6787     0.0933     0.1195     0.1182    10.7290     0.8729   189.1200    10.5398     0.0001
  593   11.840   2540.21    10.6236     0.0911     0.1120     0.1184    10.6723     0.8569   189.4400    10.4829    -0.0002
  594   11.860   2541.24    10.5011     0.0896     0.1028     0.1186    10.5456     0.8519   189.7600    10.3558    -0.0012
  595   11.880   2542.37    10.3593     0.0864     0.1041     0.1188    10.4021     0.8323   190.0800    10.2120    -0.0016
  596   11.900   2543.41    10.1923     0.0822     0.1101     0.1190    10.2385     0.8036   190.4000    10.0481    -0.0009
  597   11.920   2544.48    10.0795     0.0784     0.1112     0.1192    10.1261     0.7767   190.7200     9.9354    -0.0008
  598   11.940   2545.58     9.9557     0.0756     0.1122     0.1194    10.0030     0.7584   191.0400     9.8120    -0.0007
  599   11.960   2546.66     9.8084     0.0733     0.1123     0.1196     9.8554     0.7448   191.3600     9.6640    -0.0008
  600   11.980   2547.72     9.6156     0.0724     0.1135     0.1198     9.6628     0.7498   191.6800     9.4711    -0.0008
  601   12.000   2548.78     9.4453     0.0735     0.1164     0.1200     9.4938     0.7753   192.0000     9.3018    -0.0005
  602   12.020   2549.91     9.3845     0.0754     0.1166     0.1202     9.4331     0.8035   192.3200     9.2408    -0.0005
  603   12.040   2550.97     9.4707     0.0743     0.1182     0.1204     9.5205     0.7871   192.6400     9.3279    -0.0002
  604   12.060   2552.02     9.6074     0.0758     0.1240     0.1206     9.6587     0.7912   192.9600     9.4657     0.0001
  605   12.080   2553.09     9.7251     0.0769     0.1228     0.1208     9.7772     0.7918   193.2800     9.5840     0.0003
  606   12.100   2554.18     9.8169     0.0785     0.1199     0.1210     9.8677     0.8009   193.6000     9.6741     0.0000
  607   12.120   2555.24     9.7988     0.0789     0.1123     0.1212     9.8468     0.8037   193.9200     9.6529    -0.0007
  608   12.140   2556.30     9.6664     0.0787     0.1111     0.1214     9.7126     0.8127   194.2400     9.5183    -0.0012
  609   12.160   2557.35     9.4756     0.0758     0.1166     0.1216     9.5242     0.7961   194.5600     9.3297    -0.0006
  610   12.180   2558.49     9.2786     0.0716     0.1146     0.1218     9.3269     0.7675   194.8800     9.1320    -0.0008
  611   12.200   2559.55     9.0099     0.0693     0.1148     0.1220     9.0581     0.7643   195.2000     8.8629    -0.0008
  612   12.220   2560.62     8.6923     0.0687     0.1163     0.1222     8.7410     0.7851   195.5200     8.5455    -0.0007
  613   12.240   2561.68     8.4008     0.0699     0.1172     0.1224     8.4499     0.8282   195.8400     8.2541    -0.0007
  614   12.260   2562.71     8.2765     0.0709     0.1196     0.1226     8.3264     0.8560   196.1600     8.1302    -0.0005
  615   12.280   2563.82     8.4865     0.0709     0.1237     0.1228     8.5377     0.8405   196.4800     8.3412    -0.0001
  616   12.300   2564.88     9.0989     0.0758     0.1275     0.1230     9.1522     0.8422   196.8000     8.9554     0.0004
  617   12.320   2566.02     9.8493     0.0813     0.1261     0.1232     9.9026     0.8362   197.1200     9.7055     0.0004
  618   12.340   2567.07    10.4939     0.0866     0.1056     0.1234    10.5431     0.8312   197.4400    10.3456    -0.0006
  619   12.360   2568.19    10.8495     0.0874     0.0796     0.1236    10.8844     0.8080   197.7600    10.6867    -0.0038
  620   12.380   2569.26    10.9490     0.0872     0.0837     0.1238    10.9829     0.7969   198.0800    10.7848    -0.0040
  621   12.400   2570.32    10.8492     0.0850     0.0934     0.1240    10.8873     0.7827   198.4000    10.6889    -0.0031
  622   12.420   2571.40    10.6945     0.0892     0.0981     0.1242    10.7356     0.8333   198.7200    10.5369    -0.0025
  623   12.440   2572.51    10.5120     0.0913     0.0978     0.1244    10.5529     0.8670   199.0400    10.3538    -0.0026
  624   12.460   2573.56    10.4402     0.0888     0.1053     0.1246    10.4836     0.8513   199.3600    10.2842    -0.0021
  625   12.480   2574.65    10.7081     0.0913     0.1098     0.1248    10.7534     0.8562   199.6800    10.5537    -0.0016
  626   12.500   2575.74    11.2484     0.0883     0.1200     0.1250    11.2976     0.7879   200.0000    11.0976    -0.0007
  627   12.520   2576.84    11.7232     0.0905     0.1272     0.1252    11.7766     0.7743   200.3200    11.5763     0.0002
  628   12.540   2577.96    12.1100     0.0962     0.1076     0.1254    12.1583     0.7984   200.6400    11.9576    -0.0009
  629   12.560   2579.02    12.7131     0.1001     0.1091     0.1256    12.7579     0.7933   200.9600    12.5569    -0.0015
  630   12.580   2580.10    13.5502     0.1020     0.1136     0.1258    13.5970     0.7519   201.2800    13.3957    -0.0011
  631   12.600   2581.22    14.5630     0.1053     0.1246     0.1260    14.6134     0.7284   201.6000    14.4118    -0.0004
  632   12.620   2582.33    15.4170     0.1150     0.1224     0.1262    15.4711     0.7496   201.9200    15.2692     0.0002
  633   12.640   2583.41    15.8789     0.1214     0.0941     0.1264    15.9219     0.7660   202.2400    15.7197    -0.0015
  634   12.660   2584.48    16.1261     0.1229     0.0979     0.1266    16.1662     0.7625   202.5600    15.9637    -0.0019
  635   12.680   2585.60    16.4799     0.1223     0.1066     0.1268    16.5240     0.7406   202.8800    16.3211    -0.0013
  636   12.700   2586.69    17.0999     0.1215     0.1152     0.1270    17.1465     0.7123   203.2000    16.9433    -0.0010
  637   12.720   2587.74    17.7530     0.1207     0.1220     0.1272    17.8043     0.6839   203.5200    17.6008    -0.0003
  638   12.740   2588.88    18.2474     0.1239     0.1260     0.1274    18.3003     0.6814   203.8400    18.0964    -0.0001
  639   12.760   2589.99    18.4071     0.1271     0.1024     0.1276    18.4528     0.6911   204.1600    18.2486    -0.0010
  640   12.780   2593.02    18.4198     0.1300     0.1032     0.1278    18.4617     0.7054   204.4800    18.2572    -0.0015
  641   12.800   2603.41    18.3586     0.1299     0.1127     0.1280    18.4046     0.7045   204.8000    18.1998    -0.0010
  642   12.820   2613.80    18.2975     0.1313     0.1222     0.1282    18.3474     0.7121   205.1200    18.1423    -0.0005
  643   12.840   2621.28    18.3032     0.1356     0.1264     0.1284    18.3561     0.7417   205.4400    18.1506    -0.0001
  644   12.860   2622.37    18.4447     0.1387     0.1247     0.1286    18.4973     0.7530   205.7600    18.2915    -0.0002
  645   12.880   2623.46    18.5029     0.1401     0.1254     0.1288    18.5558     0.7581   206.0800    18.3497    -0.0002
  646   12.900   2624.54    18.5860     0.1345     0.1190     0.1290    18.6380     0.7243   206.4000    18.4316    -0.0003
  647   12.920   2625.56    18.5721     0.1265     0.1173     0.1292    18.6237     0.6810   206.7200    18.4170    -0.0003
  648   12.940   2626.65    18.5427     0.1164     0.1200     0.1294    18.5928     0.6276   207.0400    18.3857    -0.0006
  649   12.960   2627.78    18.6163     0.1045     0.1245     0.1296    18.6683     0.5624   207.3600    18.4610    -0.0003
  650   12.980   2628.79    18.9525     0.0981     0.1228     0.1298    19.0046     0.5209   207.6800    18.7969    -0.0003
  651   13.000   2629.87    19.6714     0.0944     0.1230     0.1300    19.7214     0.4865   208.0000    19.5134    -0.0006
  652   13.020   2630.90    21.0537     0.0908     0.1247     0.1302    21.1068     0.4421   208.3200    20.8985    -0.0002
  653   13.040   2631.96    23.1902     0.0900     0.1274     0.1304    23.2437     0.4016   208.6400    23.0351    -0.0001
  654   13.060   2633.05    25.9441     0.0981     0.1190     0.1306    25.9942     0.3938   208.9600    25.7852    -0.0004
  655   13.080   2634.11    28.5413     0.1091     0.1147     0.1308    28.5904     0.3960   209.2800    28.3811    -0.0005
  656   13.100   2635.16    30.3671     0.1116     0.1062     0.1310    30.4123     0.3759   209.6000    30.2027    -0.0008
  657   13.120   2636.20    31.8008     0.1089     0.1014     0.1312    31.8442     0.3494   209.9200    31.6343    -0.0009
  658   13.140   2637.24    32.8460     0.1061     0.1004     0.1314    32.8876     0.3235   210.2400    32.6774    -0.0010
  659   13.160   2638.29    33.1634     0.1031     0.1046     0.1316    33.2069     0.3109   210.5600    32.9963    -0.0009
  660   13.180   2639.28    32.3722     0.1005     0.1058     0.1318    32.4171     0.3092   210.8800    32.2062    -0.0008
  661   13.200   2640.28    31.1959     0.0934     0.1102     0.1320    31.2395     0.2984   211.2000    31.0283    -0.0009
  662   13.220   2641.33    30.0934     0.0873     0.1068     0.1322    30.1380     0.2878   211.5200    29.9265    -0.0009
  663   13.240   2642.32    28.5827     0.0806     0.1001     0.1324    28.6255     0.2804   211.8400    28.4136    -0.0011
  664   13.260   2643.32    27.1057     0.0707     0.0939     0.1326    27.1456     0.2590   212.1600    26.9334    -0.0014
  665   13.280   2644.28    25.6199     0.0559     0.0994     0.1328    25.6649     0.2133   212.4800    25.4524    -0.0010
  666   13.300   2645.30    24.2439     0.0485     0.1113     0.1330    24.2916     0.1963   212.8000    24.0788    -0.0008
  667   13.320   2646.32    23.6693     0.0427     0.1186     0.1332    23.7182     0.1793   213.1200    23.5050    -0.0007
  668   13.340   2647.34    23.5479     0.0351     0.1194     0.1334    23.5989     0.1494   213.4400    23.3855    -0.0005
  669   13.360   2648.36    24.1886     0.0342     0.1241     0.1336    24.2387     0.1427   213.7600    24.0249    -0.0006
  670   13.380   2649.37    26.0871     0.0359     0.1285     0.1338    26.1382     0.1425   214.0800    25.9241    -0.0005
  671   13.400   2650.46    28.9791     0.0418     0.1272     0.1340    29.0335     0.1498   214.4000    28.8191    -0.0002
  672   13.420   2651.53    31.2328     0.0484     0.1345     0.1342    31.2893     0.1593   214.7200    31.0746     0.0000
  673   13.440   2652.57    31.9500     0.0532     0.1317     0.1344    32.0057     0.1672   215.0400    31.7907    -0.0001
  674   13.460   2653.63    31.6388     0.0558     0.1300     0.1346    31.6940     0.1758   215.3600    31.4787    -0.0001
  675   13.480   2654.62    31.5033     0.0588     0.1381     0.1348    31.5610     0.1863   215.6800    31.3453     0.0001
  676   13.500   2655.67    31.2467     0.0621     0.1389     0.1350    31.3037     0.1980   216.0000    31.0877     0.0000
  677   13.520   2656.68    30.9435     0.0659     0.1363     0.1352    31.0025     0.2117   216.3200    30.7861     0.0002
  678   13.540   2657.70    30.6950     0.0628     0.1296     0.1354    30.7488     0.2043   216.6400    30.5321    -0.0002
  679   13.560   2658.75    30.6939     0.0607     0.1281     0.1356    30.7478     0.1977   216.9600    30.5308    -0.0002
  680   13.580   2659.74    30.4024     0.0554     0.1289     0.1358    30.4559     0.1810   217.2800    30.2386    -0.0003
  681   13.600   2660.82    29.4404     0.0486     0.1285     0.1360    29.4952     0.1633   217.6000    29.2776    -0.0002
  682   13.620   2661.80    28.6484     0.0471     0.1272     0.1362    28.7005     0.1630   217.9200    28.4826    -0.0004
  683   13.640   2662.85    29.0021     0.0464     0.1324     0.1364    29.0559     0.1615   218.2400    28.8377    -0.0003
  684   13.660   2663.88    29.9778     0.0489     0.1279     0.1366    30.0327     0.1656   218.5600    29.8141    -0.0002
  685   13.680   2664.92    30.5845     0.0544     0.1351     0.1368    30.6415     0.1787   218.8800    30.4226     0.0000
  686   13.700   2665.97    30.9961     0.0616     0.1239     0.1370    31.0494     0.1988   219.2000    30.8302    -0.0003
  687   13.720   2667.01    30.9304     0.0652     0.1314     0.1372    30.9846     0.2105   219.5200    30.7651    -0.0003
  688   13.740   2668.01    30.3245     0.0683     0.1316     0.1374    30.3814     0.2252   219.8400    30.1616    -0.0001
  689   13.760   2669.03    29.8122     0.0671     0.1374     0.1376    29.8687     0.2246   220.1600    29.6485    -0.0001
  690   13.780   2670.08    28.9618     0.0702     0.1343     0.1378    29.0164     0.2415   220.4800    28.7959    -0.0003
  691   13.800   2671.07    27.8149     0.0713     0.1275     0.1380    27.8678     0.2554   220.8000    27.6470    -0.0004
  692   13.820   2672.06    26.5412     0.0738     0.1247     0.1382    26.5935     0.2762   221.1200    26.3724    -0.0005
  693   13.840   2673.04    25.2780     0.0731     0.1268     0.1384    25.3317     0.2885   221.4400    25.1103    -0.0004
  694   13.860   2674.07    24.2147     0.0758     0.1370     0.1386    24.2710     0.3126   221.7600    24.0493    -0.0002
  695   13.880   2675.07    23.4452     0.0700     0.1422     0.1388    23.5041     0.2933   222.0800    23.2820     0.0001
  696   13.900   2676.08    22.5879     0.0580     0.1351     0.1390    22.6452     0.2527   222.4000    22.4228    -0.0001
  697   13.920   2677.06    21.7555     0.0472     0.1333     0.1392    21.8105     0.2141   222.7200    21.5878    -0.0004
  698   13.940   2678.10    21.6191     0.0419     0.1364     0.1394    21.6747     0.1942   223.0400    21.4517    -0.0003
  699   13.960   2679.12    22.2686     0.0367     0.1340     0.1396    22.3249     0.1675   223.3600    22.1016    -0.0002
  700   13.980   2680.18    24.0875     0.0382     0.1350     0.1398    24.1436     0.1644   223.6800    23.9199    -0.0003
  701   14.000   2681.22    26.4955     0.0394     0.1400     0.1400    26.5545     0.1538   224.0000    26.3305     0.0000
  702   14.020   2682.27    28.3422     0.0428     0.1371     0.1402    28.3993     0.1549   224.3200    28.1750    -0.0002
  703   14.040   2683.37    29.3293     0.0460     0.1419     0.1404    29.3864     0.1573   224.6400    29.1617    -0.0002
  704   14.060   2684.36    29.4571     0.0498     0.1457     0.1406    29.5173     0.1692   224.9600    29.2923     0.0001
  705   14.080   2685.38    29.1161     0.0515     0.1442     0.1408    29.1753     0.1769   225.2800    28.9500     0.0000
  706   14.100   2686.37    28.9097     0.0558     0.1363     0.1410    28.9700     0.1935   225.6000    28.7444     0.0001
  707   14.120   2687.40    29.0395     0.0601     0.1431     0.1412    29.1024     0.2072   225.9200    28.8765     0.0003
  708   14.140   2688.45    28.2429     0.0619     0.1433     0.1414    28.3035     0.2189   226.2400    28.0772     0.0001
  709   14.160   2689.44    27.5808     0.0682     0.1313     0.1416    27.6386     0.2470   226.5600    27.4121    -0.0001
  710   14.180   2690.47    27.3497     0.0705     0.1389     0.1418    27.4072     0.2579   226.8800    27.1803    -0.0002
  711   14.200   2691.50    27.8668     0.0676     0.1392     0.1420    27.9262     0.2428   227.2000    27.6990     0.0000
  712   14.220   2692.54    27.7972     0.0664     0.1409     0.1422    27.8559     0.2381   227.5200    27.6284    -0.0001
  713   14.240   2693.55    26.6317     0.0618     0.1427     0.1424    26.6925     0.2310   227.8400    26.4647     0.0001
  714   14.260   2694.52    25.0273     0.0580     0.1425     0.1426    25.0859     0.2243   228.1600    24.8577    -0.0001
  715   14.280   2695.50    23.4477     0.0514     0.1392     0.1428    23.5078     0.2129   228.4800    23.2793     0.0000
  716   14.300   2696.54    22.6937     0.0460     0.1339     0.1430    22.7523     0.2009   228.8000    22.5235    -0.0002
  717   14.320   2697.57    22.7774     0.0387     0.1432     0.1432    22.8374     0.1709   229.1200    22.6083     0.0000
  718   14.340   2698.59    23.4232     0.0359     0.1395     0.1434    23.4831     0.1553   229.4400    23.2536     0.0000
  719   14.360   2699.59    24.5384     0.0336     0.1426     0.1436    24.5984     0.1392   229.7600    24.3687     0.0000
  720   14.380   2700.62    25.6797     0.0338     0.1446     0.1438    25.7390     0.1336   230.0800    25.5089    -0.0001
  721   14.400   2701.67    26.6653     0.0393     0.1475     0.1440    26.7275     0.1489   230.4000    26.4971     0.0002
  722   14.420   2702.74    27.4498     0.0358     0.1471     0.1442    27.5124     0.1315   230.7200    27.2817     0.0002
  723   14.440   2703.80    28.1108     0.0339     0.1476     0.1444    28.1729     0.1215   231.0400    27.9418     0.0001
  724   14.460   2704.86    28.9864     0.0364     0.1479     0.1446    29.0499     0.1267   231.3600    28.8185     0.0002
  725   14.480   2705.79    29.5486     0.0382     0.1470     0.1448    29.6103     0.1297   231.6800    29.3786     0.0001
  726   14.500   2706.87    29.3156     0.0436     0.1534     0.1450    29.3781     0.1460   232.0000    29.1461     0.0001
  727   14.520   2707.93    29.4567     0.0478     0.1443     0.1452    29.5177     0.1573   232.3200    29.2854     0.0000
  728   14.540   2708.99    30.9595     0.0520     0.1437     0.1454    31.0202     0.1689   232.6400    30.7876     0.0000
  729   14.560   2710.02    32.2335     0.0553     0.1457     0.1456    32.2938     0.1718   232.9600    32.0609    -0.0001
  730   14.580   2711.08    32.1778     0.0581     0.1412     0.1458    32.2386     0.1803   233.2800    32.0054     0.0000
  731   14.600   2714.04    31.5124     0.0636     0.1422     0.1460    31.5719     0.1993   233.6000    31.3383    -0.0001
  732   14.620   2726.48    30.3437     0.0678     0.1436     0.1462    30.4038     0.2137   233.9200    30.1699    -0.0001
  733   14.640   2738.92    29.1750     0.0707     0.1454     0.1464    29.2357     0.2230   234.2400    29.0015    -0.0001
  734   14.660   2743.57    28.3343     0.0718     0.1535     0.1466    28.3985     0.2523   234.5600    28.1640     0.0002
  735   14.680   2744.62    27.7222     0.0681     0.1456     0.1468    27.7837     0.2448   234.8800    27.5488     0.0000
  736   14.700   2745.64    26.8768     0.0651     0.1519     0.1470    26.9418     0.2402   235.2000    26.7066     0.0003
  737   14.720   2746.66    25.9719     0.0630     0.1510     0.1472    26.0356     0.2402   235.5200    25.8001     0.0002
  738   14.740   2747.68    25.2423     0.0555     0.1544     0.1474    25.3054     0.2163   235.8400    25.0696     0.0001
  739   14.760   2748.68    24.5588     0.0446     0.1461     0.1476    24.6224     0.1805   236.1600    24.3863     0.0002
  740   14.780   2749.71    24.5849     0.0384     0.1541     0.1478    24.6480     0.1572   236.4800    24.4115     0.0001
  741   14.800   2750.75    25.4345     0.0363     0.1480     0.1480    25.4984     0.1436   236.8000    25.2616     0.0002
  742   14.820   2751.80    26.1017     0.0361     0.1512     0.1482    26.1646     0.1386   237.1200    25.9274     0.0001
  743   14.840   2752.77    26.6263     0.0400     0.1502     0.1484    26.6909     0.1517   237.4400    26.4535     0.0002
  744   14.860   2753.81    27.4935     0.0473     0.1500     0.1486    27.5575     0.1742   237.7600    27.3198     0.0001
  745   14.880   2754.83    28.0003     0.0512     0.1509     0.1488    28.0659     0.1833   238.0800    27.8278     0.0003
  746   14.900   2755.85    27.9387     0.0571     0.1440     0.1490    28.0008     0.2044   238.4000    27.7624     0.0000
  747   14.920   2756.89    27.0368     0.0630     0.1529     0.1492    27.1023     0.2323   238.7200    26.8636     0.0003
  748   14.940   2757.92    26.0677     0.0667     0.1508     0.1494    26.1321     0.2547   239.0400    25.8930     0.0001
  749   14.960   2758.96    24.8201     0.0665     0.1538     0.1496    24.8840     0.2659   239.3600    24.6446     0.0001
  750   14.980   2759.95    23.7153     0.0626     0.1512     0.1498    23.7807     0.2627   239.6800    23.5410     0.0002
  751   15.000   2760.96    22.2846     0.0601     0.1537     0.1500    22.3511     0.2688   240.0000    22.1111     0.0004
  752   15.020   2761.94    21.1526     0.0574     0.1545     0.1502    21.2173     0.2652   240.3200    20.9770     0.0002
  753   15.040   2762.93    20.1394     0.0524     0.1526     0.1504    20.2051     0.2558   240.6400    19.9644     0.0003
  754   15.060   2763.90    19.0257     0.0429     0.1534     0.1506    19.0893     0.2218   240.9600    18.8483     0.0000
  755   15.080   2764.91    17.8982     0.0355     0.1538     0.1508    17.9639     0.1969   241.2800    17.7226     0.0003
  756   15.100   2766.00    17.1053     0.0323     0.1538     0.1510    17.1704     0.1875   241.6000    16.9288     0.0002
  757   15.120   2767.06    16.5377     0.0201     0.1514     0.1512    16.6018     0.1213   241.9200    16.3599     0.0001
  758   15.140   2768.14    16.1108     0.0136     0.1557     0.1514    16.1757     0.0840   242.2400    15.9334     0.0002
  759   15.160   2769.25    16.1938     0.0128     0.1545     0.1516    16.2583     0.0793   242.5600    16.0158     0.0001
  760   15.180   2770.37    17.2331     0.0168     0.1554     0.1518    17.2985     0.0996   242.8800    17.0556     0.0002
  761   15.200   2771.48    19.0362     0.0230     0.1532     0.1520    19.1021     0.1260   243.2000    18.8589     0.0003
  762   15.220   2772.58    21.6293     0.0342     0.1566     0.1522    21.6948     0.1667   243.5200    21.4513     0.0002
  763   15.240   2773.62    22.9486     0.0344     0.1538     0.1524    23.0139     0.1512   243.8400    22.7701     0.0001
  764   15.260   2774.65    23.2401     0.0325     0.1569     0.1526    23.3052     0.1400   244.1600    23.0610     0.0001
  765   15.280   2775.68    23.4632     0.0374     0.1564     0.1528    23.5297     0.1593   244.4800    23.2853     0.0002
  766   15.300   2776.71    22.9716     0.0416     0.1555     0.1530    23.0355     0.1806   244.8000    22.7907     0.0000
  767   15.320   2777.69    22.2086     0.0435     0.1578     0.1532    22.2753     0.1955   245.1200    22.0302     0.0003
  768   15.340   2778.73    22.1379     0.0417     0.1582     0.1534    22.2040     0.1887   245.4400    21.9586     0.0002
  769   15.360   2779.76    22.3488     0.0403     0.1553     0.1536    22.4142     0.1815   245.7600    22.1685     0.0001
  770   15.380   2780.74    22.5608     0.0384     0.1590     0.1538    22.6275     0.1706   246.0800    22.3814     0.0002
  771   15.400   2781.78    22.7203     0.0438     0.1590     0.1540    22.7880     0.1931   246.4000    22.5416     0.0003
  772   15.420   2782.79    22.6656     0.0507     0.1604     0.1542    22.7317     0.2237   246.7200    22.4850     0.0001
  773   15.440   2783.81    23.2103     0.0529     0.1593     0.1544    23.2774     0.2283   247.0400    23.0303     0.0002
  774   15.460   2784.89    23.4182     0.0495     0.1594     0.1546    23.4835     0.2115   247.3600    23.2362     0.0000
  775   15.480   2785.87    23.2844     0.0517     0.1601     0.1548    23.3513     0.2220   247.6800    23.1036     0.0002
  776   15.500   2786.89    22.5542     0.0504     0.1605     0.1550    22.6207     0.2224   248.0000    22.3727     0.0002
  777   15.520   2787.84    21.3866     0.0522     0.1577     0.1552    21.4536     0.2369   248.3200    21.2053     0.0002
  778   15.540   2788.81    20.0689     0.0469     0.1585     0.1554    20.1352     0.2261   248.6400    19.8865     0.0001
  779   15.560   2789.85    19.7766     0.0393     0.1614     0.1556    19.8440     0.1989   248.9600    19.5950     0.0003
  780   15.580   2790.90    19.9430     0.0355     0.1585     0.1558    20.0103     0.1793   249.2800    19.7610     0.0002
  781   15.600   2791.95    20.9538     0.0357     0.1593     0.1560    21.0215     0.1750   249.6000    20.7719     0.0003
  782   15.620   2792.97    21.4521     0.0326     0.1592     0.1562    21.5200     0.1522   249.9200    21.2701     0.0003
  783   15.640   2793.96    21.4732     0.0314     0.1596     0.1564    21.5401     0.1462   250.2400    21.2899     0.0001
  784   15.660   2795.00    22.4831     0.0316     0.1639     0.1566    22.5504     0.1430   250.5600    22.2998     0.0002
  785   15.680   2796.06    23.6299     0.0351     0.1600     0.1568    23.6971     0.1520   250.8800    23.4462     0.0001
  786   15.700   2797.05    24.6589     0.0371     0.1618     0.1570    24.7277     0.1525   251.2000    24.4765     0.0003
  787   15.720   2798.07    24.9701     0.0443     0.1636     0.1572    25.0379     0.1783   251.5200    24.7864     0.0002
  788   15.740   2799.11    25.6237     0.0485     0.1600     0.1574    25.6918     0.1919   251.8400    25.4400     0.0002
  789   15.760   2800.14    26.3436     0.0621     0.1625     0.1576    26.4121     0.2384   252.1600    26.1599     0.0002
  790   15.780   2801.22    27.1151     0.0704     0.1625     0.1578    27.1837     0.2621   252.4800    26.9312     0.0002
  791   15.800   2802.22    27.6992     0.0700     0.1622     0.1580    27.7671     0.2541   252.8000    27.5143     0.0001
  792   15.820   2803.27    27.7251     0.0672     0.1642     0.1582    27.7935     0.2419   253.1200    27.5404     0.0002
  793   15.840   2804.34    27.6152     0.0695     0.1602     0.1584    27.6837     0.2515   253.4400    27.4302     0.0002
  794   15.860   2805.35    27.5692     0.0623     0.1614     0.1586    27.6371     0.2250   253.7600    27.3834     0.0001
  795   15.880   2806.38    27.2728     0.0525     0.1659     0.1588    27.3416     0.1921   254.0800    27.0875     0.0002
  796   15.900   2807.39    27.7149     0.0507     0.1628     0.1590    27.7851     0.1837   254.4000    27.5307     0.0003
  797   15.920   2808.43    28.7460     0.0534     0.1655     0.1592    28.8132     0.1868   254.7200    28.5585     0.0000
  798   15.940   2809.55    31.5004     0.0553     0.1615     0.1594    31.5687     0.1785   255.0400    31.3137     0.0001
  799   15.960   2810.64    34.8792     0.0611     0.1678     0.1596    34.9506     0.1786   255.3600    34.6952     0.0003
  800   15.980   2811.73    37.6083     0.0698     0.1668     0.1598    37.6770     0.1882   255.6800    37.4213     0.0001
  801   16.000   2812.83    39.5051     0.0779     0.1664     0.1600    39.5761     0.1987   256.0000    39.3201     0.0002
  802   16.020   2813.89    40.4725     0.0865     0.1638     0.1602    40.5397     0.2147   256.3200    40.2834     0.0000
  803   16.040   2814.95    41.2282     0.0890     0.1670     0.1604    41.2966     0.2166   256.6400    41.0400     0.0001
  804   16.060   2816.04    41.3853     0.0938     0.1713     0.1606    41.4582     0.2273   256.9600    41.2012     0.0003
  805   16.080   2817.05    41.5668     0.1043     0.1818     0.1608    41.6389     0.2511   257.2800    41.3816     0.0003
  806   16.100   2818.16    41.8189     0.1194     0.1639     0.1610    41.8898     0.2865   257.6000    41.6322     0.0002
  807   16.120   2819.22    41.9990     0.1209     0.1745     0.1612    42.0714     0.2882   257.9200    41.8135     0.0003
  808   16.140   2820.29    42.1206     0.1241     0.1656     0.1614    42.1899     0.2947   258.2400    41.9316     0.0001
  809   16.160   2821.35    42.2404     0.1232     0.1659     0.1616    42.3122     0.2920   258.5600    42.0536     0.0002
  810   16.180   2822.38    41.6332     0.1171     0.1678     0.1618    41.7036     0.2798   258.8800    41.4447     0.0001
  811   16.200   2823.47    40.7939     0.1157     0.1685     0.1620    40.8643     0.2818   259.2000    40.6051     0.0001
  812   16.220   2824.53    39.6956     0.1193     0.1528     0.1622    39.7595     0.2978   259.5200    39.5000    -0.0003
  813   16.240   2825.54    38.9472     0.1193     0.1845     0.1624    39.0184     0.3043   259.8400    38.7586     0.0002
  814   16.260   2826.58    37.7659     0.1168     0.1665     0.1626    37.8370     0.3055   260.1600    37.5769     0.0002
  815   16.280   2827.63    36.7552     0.1160     0.1642     0.1628    36.8223     0.3129   260.4800    36.5618    -0.0001
  816   16.300   2828.68    35.7508     0.1110     0.1635     0.1630    35.8200     0.3068   260.8000    35.5592     0.0001
  817   16.320   2829.73    34.4422     0.1085     0.1650     0.1632    34.5130     0.3106   261.1200    34.2518     0.0002
  818   16.340   2830.75    33.3303     0.1021     0.1701     0.1634    33.3970     0.3034   261.4400    33.1356    -0.0001
  819   16.360   2831.80    32.5306     0.0917     0.1675     0.1636    32.6002     0.2806   261.7600    32.3385     0.0001
  820   16.380   2832.86    32.6356     0.0868     0.1665     0.1638    32.7056     0.2659   262.0800    32.4436     0.0001
  821   16.400   2833.84    32.8076     0.0780     0.1634     0.1640    32.8750     0.2380   262.4000    32.6126    -0.0001
  822   16.420   2834.90    32.7733     0.0739     0.1629     0.1642    32.8436     0.2253   262.7200    32.5809     0.0001
  823   16.440   2835.99    33.0598     0.0700     0.1602     0.1644    33.1283     0.2125   263.0400    32.8653     0.0000
  824   16.460   2837.05    33.9004     0.0654     0.1608     0.1646    33.9699     0.1940   263.3600    33.7066     0.0000
  825   16.480   2838.12    34.3634     0.0634     0.1679     0.1648    34.4333     0.1851   263.6800    34.1697     0.0001
  826   16.500   2839.15    34.7511     0.0661     0.1747     0.1650    34.8222     0.1901   264.0000    34.5582     0.0001
  827   16.520   2840.26    35.4616     0.0766     0.1719     0.1652    35.5353     0.2146   264.3200    35.2709     0.0003
  828   16.540   2841.33    36.4981     0.0872     0.1681     0.1654    36.5706     0.2391   264.6400    36.3060     0.0002
  829   16.560   2842.42    38.0508     0.1070     0.1640     0.1656    38.1186     0.2865   264.9600    37.8537    -0.0001
  830   16.580   2843.48    39.6587     0.1191     0.1743     0.1658    39.7305     0.3011   265.2800    39.4652     0.0001
  831   16.600   2844.57    40.5485     0.1330     0.1766     0.1660    40.6214     0.3306   265.6000    40.3558     0.0002
  832   16.620   2854.98    40.6645     0.1372     0.1750     0.1662    40.7382     0.3373   265.9200    40.4723     0.0002
  833   16.640   2869.65    40.6319     0.1369     0.1733     0.1664    40.7049     0.3366   266.2400    40.4386     0.0002
  834   16.660   2877.47    40.7674     0.1372     0.1987     0.1666    40.8457     0.3367   266.5600    40.5791     0.0005
  835   16.680   2878.57    41.6749     0.1379     0.1881     0.1668    41.7502     0.3311   266.8800    41.4833     0.0003
  836   16.700   2879.70    43.2963     0.1418     0.1896     0.1670    43.3753     0.3292   267.2000    43.1081     0.0005
  837   16.720   2880.78    45.2328     0.1486     0.1797     0.1672    45.3118     0.3308   267.5200    45.0443     0.0005
  838   16.740   2881.90    46.8906     0.1548     0.1810     0.1674    46.9692     0.3327   267.8400    46.7014     0.0004
  839   16.760   2883.00    47.3990     0.1672     0.1810     0.1676    47.4750     0.3533   268.1600    47.2068     0.0003
  840   16.780   2884.10    47.3326     0.1672     0.1672     0.1678    47.4038     0.3526   268.4800    47.1354     0.0000
  841   16.800   2885.15    46.3030     0.1640     0.1600     0.1680    46.3733     0.3517   268.8000    46.1046     0.0000
  842   16.820   2886.20    44.5932     0.1533     0.1612     0.1682    44.6601     0.3415   269.1200    44.3909    -0.0002
  843   16.840   2887.22    43.2235     0.1435     0.1718     0.1684    43.2957     0.3296   269.4400    43.0262     0.0001
  844   16.860   2888.33    42.0251     0.1362     0.1664     0.1686    42.0970     0.3226   269.7600    41.8272     0.0001
  845   16.880   2889.37    41.5787     0.1267     0.1667     0.1688    41.6511     0.3041   270.0800    41.3810     0.0001
  846   16.900   2890.50    41.7141     0.1279     0.1756     0.1690    41.7897     0.3069   270.4000    41.5193     0.0003
  847   16.920   2891.57    41.8045     0.1283     0.1695     0.1692    41.8758     0.3068   270.7200    41.6051     0.0000
  848   16.940   2892.65    42.2739     0.1301     0.1841     0.1694    42.3507     0.3085   271.0400    42.0797     0.0003
  849   16.960   2893.71    42.9007     0.1386     0.1760     0.1696    42.9724     0.3255   271.3600    42.7010     0.0000
  850   16.980   2894.81    43.7381                0.1743     0.1698    43.8108              271.6800    43.5391     0.0001
  851   17.000   2895.85    44.2568                0.1757     0.1700    44.3332              272.0000    44.0612     0.0003
  852   17.020   2896.97    44.3492                0.1833     0.1702    44.4253              272.3200    44.1530     0.0003
  853   17.040   2898.03    43.8536                0.1838     0.1704    43.9305              272.6400    43.6579     0.0003
  854   17.060   2907.43    38.6804                0.1657     0.1706    38.7560              272.9600    38.4830     0.0002
  855   17.069   2912.88    42.6289                           0.1707    42.6969              273.0990    42.4238    -0.0002
 
 
