

 Program UNIPLOT                         version 05.36.02
 _______________
 (c) Fugro Netherlands Marine, Nootdorp, The Netherlands


 ASCII representation of data plotted on a graph.

 This ASCII file presents data interpolated to values per fixed depth interval.
 The data are corrected for the depth-offset differences between the various 
 transducers in the penetrometer.

 The records at the start of penetration may include no values or anomalous
 values where a depth offset implies incomplete penetration of a particular
 sensor into the ground.

 The records at the end of penetration may include no values for data channels
 where the transducer did not reach this depth.

 The reference level for test values is (1) the ground surface for onshore tests and (2) the seafloor for nearshore and offshore tests.

 UNICAS data file          : CPT-1023.000                            
 Output using command file : PlotASCII.cmd

 ASCII file created at : date          :27-Apr-2022
                         time          :16:05:18
 Project number                        :20024805
 Date of testing                       :24-Apr-2022
 Location                              :Hong Kong Offshore Wind Farm Project
 Test name                             :CPT-1023
 Penetrometer                          :F7.5CKE2HAW2/B/3342
 Serial no                             :1701-3342

 Table description:
 Column ID                             :Parameter name
 ___________________________________________________________________________________
 Rec                                   :Record ID, Record ID [-]
 Depth                                 :Depth, Depth [m]
 Time                                  :Time, Time [s]
 Cone                                  :Cone Resistance, Cone Resistance [MPa]
 Friction                              :Sleeve Friction, Sleeve Friction [MPa]
 Pore 2                                :Porewater Pressure, Porewater Pressure at Shoulder [MPa]
 HydroPress                            :Hydrostatic Pressure, Hydrostatic Pressure [MPa]
 qt                                    :Total Cone Resistance, Total Cone Resistance [MPa]
 Fric_ratio                            :Friction Ratio, Friction Ratio [%]
 SigmaVert                             :Vertical stress, Vertical stress [kPa] as specified in ground model
 Qnet                                  :Net Cone Resistance, Net Cone Resistance [MPa], unit weight as specified in ground model
 Bq                                    :Porewater Pressure Ratio, Porewater Pressure Ratio [-], unit weight as specified in ground model


 Data table:
  Rec    Depth      Time       Cone   Friction     Pore 2 HydroPress         qt Fric_ratio  SigmaVert       Qnet         Bq
   No        m         s        MPa        MPa        MPa        MPa        MPa          %        kPa        MPa          -
    1    0.000   1320.00     0.0000                           0.0000     0.0000                0.0000     0.0000           
    2    0.020   1321.08     0.0011                0.0005     0.0002     0.0014                0.3200     0.0011     0.4868
    3    0.040   1322.16     0.0032                0.0007     0.0004     0.0034                0.6400     0.0028     0.0710
    4    0.060   1323.19     0.0061     0.0006     0.0009     0.0006     0.0064    11.8297     0.9600     0.0054     0.0140
    5    0.080   1324.24     0.0055     0.0007     0.0002     0.0008     0.0057    11.0557     1.2800     0.0044    -0.0992
    6    0.100   1325.28     0.0063     0.0008    -0.0002     0.0010     0.0062    10.0436     1.6000     0.0046    -0.3328
    7    0.120   1326.36     0.0077     0.0010     0.0001     0.0012     0.0077    10.8038     1.9200     0.0058    -0.2221
    8    0.140   1327.43     0.0069     0.0010    -0.0001     0.0014     0.0068    11.9535     2.2400     0.0046    -0.3550
    9    0.160   1328.45     0.0112     0.0014     0.0000     0.0016     0.0112    14.5138     2.5600     0.0087    -0.1764
   10    0.180   1330.68     0.0113     0.0011     0.0002     0.0018     0.0114     9.5184     2.8800     0.0085    -0.2032
   11    0.200   1334.07     0.0105     0.0014     0.0005     0.0020     0.0107    11.6999     3.2000     0.0075    -0.2186
   12    0.220   1337.46     0.0098     0.0012     0.0008     0.0022     0.0100    10.3265     3.5200     0.0065    -0.2341
   13    0.240   1339.25     0.0074     0.0010     0.0017     0.0024     0.0081    13.0692     3.8400     0.0042    -0.1754
   14    0.260   1340.29     0.0082     0.0010     0.0017     0.0026     0.0088    12.3077     4.1600     0.0046    -0.3075
   15    0.280   1341.35     0.0090     0.0011     0.0017     0.0028     0.0096    11.6205     4.4800     0.0051    -0.2471
   16    0.300   1342.34     0.0102     0.0011     0.0031     0.0030     0.0113    10.8205     4.8000     0.0065    -0.0581
   17    0.320   1343.40     0.0091     0.0011     0.0032     0.0032     0.0104    11.5241     5.1200     0.0053    -0.0023
   18    0.340   1344.45     0.0099     0.0012     0.0028     0.0034     0.0113    11.9352     5.4400     0.0058    -0.0295
   19    0.360   1351.11     0.0117     0.0012     0.0025     0.0036     0.0128     9.3139     5.7600     0.0070    -0.3210
   20    0.380   1363.87     0.0093     0.0011     0.0025     0.0038     0.0104     8.4957     6.0800     0.0043    -0.7303
   21    0.400   1376.64     0.0069     0.0016     0.0026     0.0040     0.0079    14.8010     6.4000     0.0015    -1.1396
   22    0.420   1378.98     0.0061     0.0013     0.0030     0.0042     0.0074    20.9607     6.7200     0.0006    -2.0557
   23    0.440   1380.08     0.0061     0.0013     0.0026     0.0044     0.0072    20.0365     7.0400     0.0001   -16.9783
   24    0.460   1381.11     0.0035     0.0013     0.0040     0.0046     0.0049    35.6695     7.3600    -0.0025    -0.3277
   25    0.480   1382.20     0.0054     0.0011     0.0055     0.0048     0.0075    25.1585     7.6800    -0.0001     0.0905
   26    0.500   1383.25     0.0062     0.0015     0.0061     0.0050     0.0089    19.6587     8.0000     0.0009    -0.0615
   27    0.520   1384.25     0.0050     0.0014     0.0077     0.0052     0.0080    44.0784     8.3200    -0.0003     0.0751
   28    0.540   1385.30     0.0074     0.0015     0.0068     0.0054     0.0103    22.6967     8.6400     0.0017     1.0771
   29    0.560   1386.36     0.0086     0.0009     0.0070     0.0056     0.0114    12.2462     8.9600     0.0024     0.5551
   30    0.580   1387.41     0.0071     0.0007     0.0079     0.0058     0.0104    11.5515     9.2800     0.0011     3.3811
   31    0.600   1388.44     0.0093     0.0012     0.0066     0.0060     0.0122    11.1982     9.6000     0.0026     0.2608
   32    0.620   1389.49     0.0085     0.0012     0.0079     0.0062     0.0113    17.8941     9.9200     0.0013     0.2598
   33    0.640   1390.54     0.0062     0.0016     0.0075     0.0064     0.0097    22.0018    10.2400    -0.0006    -2.2307
   34    0.660   1391.59     0.0097     0.0016     0.0090     0.0066     0.0133    17.8202    10.5600     0.0027     0.7586
   35    0.680   1392.67     0.0114     0.0015     0.0077     0.0068     0.0144    12.8656    10.8800     0.0035     0.0303
   36    0.700   1393.70     0.0117     0.0015     0.0071     0.0070     0.0149    12.8264    11.2000     0.0037     0.1687
   37    0.720   1394.75     0.0126     0.0015     0.0062     0.0072     0.0151    12.7859    11.5200     0.0036    -0.3520
   38    0.740   1395.80     0.0095     0.0014     0.0100     0.0074     0.0132    11.7750    11.8400     0.0013    -5.4551
   39    0.760   1396.83     0.0103     0.0016     0.0097     0.0076     0.0144    12.8898    12.1600     0.0023     1.5795
   40    0.780   1397.83     0.0122     0.0014     0.0097     0.0078     0.0161    11.4849    12.4800     0.0036     0.3913
   41    0.800   1398.87     0.0132     0.0014     0.0108     0.0080     0.0176    10.4977    12.8000     0.0048     0.5518
   42    0.820   1399.92     0.0108     0.0016     0.0113     0.0082     0.0155    15.9216    13.1200     0.0023     1.2899
   43    0.840   1400.99     0.0111     0.0019     0.0113     0.0084     0.0158    13.8620    13.4400     0.0023     1.1700
   44    0.860   1402.09     0.0125     0.0017     0.0119     0.0086     0.0175    12.4885    13.7600     0.0037     0.8781
   45    0.880   1403.09     0.0121     0.0016     0.0124     0.0088     0.0173    12.7005    14.0800     0.0032     1.1580
   46    0.900   1404.16     0.0126     0.0017     0.0132     0.0090     0.0182    13.9526    14.4000     0.0038     1.2741
   47    0.920   1405.18     0.0138     0.0018     0.0137     0.0092     0.0192    12.6925    14.7200     0.0045     0.8013
   48    0.940   1406.24     0.0113     0.0020     0.0138     0.0094     0.0171    14.1845    15.0400     0.0021     2.9058
   49    0.960   1407.27     0.0118     0.0019     0.0139     0.0096     0.0175    13.4791    15.3600     0.0021     1.8153
   50    0.980   1408.33     0.0126     0.0017     0.0148     0.0098     0.0188    12.7737    15.6800     0.0031     1.7168
   51    1.000   1409.38     0.0108     0.0017     0.0153     0.0100     0.0171    14.7538    16.0000     0.0011     9.7281
   52    1.020   1410.43     0.0143     0.0018     0.0161     0.0102     0.0209    11.9541    16.3200     0.0046     1.2390
   53    1.040   1411.49     0.0121     0.0021     0.0155     0.0104     0.0188    14.7481    16.6400     0.0021     2.6698
   54    1.060   1416.21     0.0136     0.0018     0.0143     0.0106     0.0198    15.3082    16.9600     0.0028     1.8792
   55    1.080   1420.96     0.0152     0.0017     0.0132     0.0108     0.0209    14.4757    17.2800     0.0036     1.0432
   56    1.100   1424.78     0.0148     0.0019     0.0127     0.0110     0.0203    12.5727    17.6000     0.0027     1.0775
   57    1.120   1425.85     0.0177     0.0015     0.0134     0.0112     0.0227     9.4538    17.9200     0.0048     0.1478
   58    1.140   1426.91     0.0171     0.0020     0.0178     0.0114     0.0241    11.1221    18.2400     0.0059     0.8844
   59    1.160   1427.95     0.0191     0.0019     0.0161     0.0116     0.0266    11.0918    18.5600     0.0080     0.7946
   60    1.180   1428.97     0.0253     0.0019     0.0145     0.0118     0.0314     7.7972    18.8800     0.0125     0.2182
   61    1.200   1430.03     0.0240     0.0021     0.0148     0.0120     0.0299     8.3064    19.2000     0.0107     0.1898
   62    1.220   1431.04     0.0265     0.0019     0.0136     0.0122     0.0329     7.1377    19.5200     0.0134     0.2233
   63    1.240   1432.09     0.0300     0.0020     0.0142     0.0124     0.0355     6.5268    19.8400     0.0157     0.0378
   64    1.260   1433.15     0.0359     0.0021     0.0126     0.0126     0.0414     6.3658    20.1600     0.0213     0.0327
   65    1.280   1434.18     0.0331     0.0021     0.0137     0.0128     0.0384     6.1620    20.4800     0.0179    -0.0043
   66    1.300   1435.21     0.0349     0.0022     0.0160     0.0130     0.0412     6.1453    20.8000     0.0204     0.1086
   67    1.320   1436.27     0.0329     0.0019     0.0153     0.0132     0.0395     6.1320    21.1200     0.0184     0.1478
   68    1.340   1437.38     0.0337     0.0022     0.0155     0.0134     0.0403     6.1629    21.4400     0.0189     0.1272
   69    1.360   1438.40     0.0365     0.0021     0.0153     0.0136     0.0425     5.7730    21.7600     0.0207     0.0241
   70    1.380   1439.44     0.0397     0.0027     0.0183     0.0138     0.0474     7.0174    22.0800     0.0253     0.1738
   71    1.400   1440.48     0.0436     0.0028     0.0186     0.0140     0.0515     6.7788    22.4000     0.0291     0.1647
   72    1.420   1441.51     0.0391     0.0028     0.0144     0.0142     0.0463     6.5269    22.7200     0.0236     0.1342
   73    1.440   1442.56     0.0427     0.0027     0.0090     0.0144     0.0469     6.1488    23.0400     0.0238    -0.1890
   74    1.460   1443.63     0.0384     0.0027     0.0117     0.0146     0.0426     6.8812    23.3600     0.0192    -0.2432
   75    1.480   1444.69     0.0349     0.0025     0.0193     0.0148     0.0418     6.8573    23.6800     0.0181     0.0852
   76    1.500   1445.70     0.0365     0.0023     0.0236     0.0150     0.0458     6.2699    24.0000     0.0218     0.3313
   77    1.520   1446.76     0.0364     0.0022     0.0267     0.0152     0.0473     6.0046    24.3200     0.0230     0.4669
   78    1.540   1447.85     0.0365     0.0024     0.0268     0.0154     0.0478     6.5608    24.6400     0.0231     0.4922
   79    1.560   1448.86     0.0390     0.0025     0.0264     0.0156     0.0503     7.0906    24.9600     0.0253     0.4482
   80    1.580   1449.90     0.0397     0.0025     0.0239     0.0158     0.0503     6.2709    25.2800     0.0250     0.3786
   81    1.600   1450.97     0.0460     0.0023     0.0220     0.0160     0.0552     5.1723    25.6000     0.0296     0.1983
   82    1.620   1452.03     0.0406     0.0022     0.0234     0.0162     0.0505     5.1068    25.9200     0.0246     0.3055
   83    1.640   1453.09     0.0394     0.0023     0.0240     0.0164     0.0495     5.7669    26.2400     0.0233     0.3343
   84    1.660   1454.15     0.0405     0.0023     0.0283     0.0166     0.0517     5.5132    26.5600     0.0251     0.3957
   85    1.680   1455.21     0.0401     0.0023     0.0257     0.0168     0.0511     5.6195    26.8800     0.0242     0.3822
   86    1.700   1456.24     0.0425     0.0024     0.0255     0.0170     0.0532     5.7393    27.2000     0.0260     0.3231
   87    1.720   1457.27     0.0427     0.0025     0.0245     0.0172     0.0534     5.8309    27.5200     0.0259     0.3238
   88    1.740   1458.31     0.0397     0.0024     0.0219     0.0174     0.0490     5.4808    27.8400     0.0211     0.2300
   89    1.760   1459.36     0.0374     0.0024     0.0213     0.0176     0.0466     6.5131    28.1600     0.0184     0.2359
   90    1.780   1460.42     0.0295     0.0025     0.0208     0.0178     0.0380     7.7135    28.4800     0.0096     0.2765
   91    1.800   1461.48     0.0272     0.0024     0.0231     0.0180     0.0366     8.0457    28.8000     0.0078     0.5561
   92    1.820   1462.53     0.0245     0.0025     0.0266     0.0182     0.0350     9.7658    29.1200     0.0058     1.1323
   93    1.840   1463.62     0.0339     0.0023     0.0303     0.0184     0.0463     8.3848    29.4400     0.0168     0.6959
   94    1.860   1464.61     0.0546     0.0027     0.0324     0.0186     0.0680     5.4839    29.7600     0.0383     0.3509
   95    1.880   1465.65     0.0602     0.0025     0.0317     0.0188     0.0733     4.2283    30.0800     0.0432     0.2855
   96    1.900   1466.72     0.0610     0.0028     0.0338     0.0190     0.0746     4.5792    30.4000     0.0442     0.3068
   97    1.920   1467.74     0.0646     0.0027     0.0378     0.0192     0.0803     4.2407    30.7200     0.0496     0.3640
   98    1.940   1468.79     0.0683     0.0031     0.0382     0.0194     0.0826     4.6492    31.0400     0.0516     0.2842
   99    1.960   1469.85     0.0621     0.0027     0.0427     0.0196     0.0800     4.2489    31.3600     0.0487     0.4750
  100    1.980   1470.92     0.0618     0.0024     0.0373     0.0198     0.0783     3.9457    31.6800     0.0466     0.4138
  101    2.000   1471.98     0.0578     0.0025     0.0361     0.0200     0.0730     4.1998    32.0000     0.0410     0.3955
  102    2.020   1472.98     0.0579     0.0030     0.0376     0.0202     0.0734     5.0952    32.3200     0.0411     0.4091
  103    2.040   1474.01     0.0597     0.0031     0.0417     0.0204     0.0765     5.3715    32.6400     0.0438     0.4462
  104    2.060   1475.07     0.0617     0.0028     0.0447     0.0206     0.0803     4.5794    32.9600     0.0473     0.5012
  105    2.080   1476.15     0.0593     0.0031     0.0395     0.0208     0.0770     5.1900    33.2800     0.0437     0.4898
  106    2.100   1477.18     0.0574     0.0029     0.0424     0.0210     0.0750     4.7383    33.6000     0.0414     0.5087
  107    2.120   1478.22     0.0533     0.0026     0.0436     0.0212     0.0712     4.8009    33.9200     0.0373     0.5741
  108    2.140   1479.26     0.0531     0.0027     0.0489     0.0214     0.0726     5.1391    34.2400     0.0384     0.6570
  109    2.160   1480.32     0.0577     0.0027     0.0536     0.0216     0.0796     4.8315    34.5600     0.0451     0.6811
  110    2.180   1481.37     0.0566     0.0026     0.0560     0.0218     0.0798     4.5159    34.8800     0.0449     0.7464
  111    2.200   1482.36     0.0588     0.0025     0.0573     0.0220     0.0826     4.1524    35.2000     0.0474     0.7333
  112    2.220   1483.40     0.0599     0.0024     0.0570     0.0222     0.0845     3.7926    35.5200     0.0490     0.7412
  113    2.240   1484.49     0.0638     0.0026     0.0533     0.0224     0.0865     3.9716    35.8400     0.0506     0.6262
  114    2.260   1485.54     0.0675     0.0025     0.0520     0.0226     0.0896     3.7462    36.1600     0.0535     0.5640
  115    2.280   1486.60     0.0700     0.0025     0.0524     0.0228     0.0924     3.6904    36.4800     0.0559     0.5486
  116    2.300   1497.30     0.0763     0.0028     0.0528     0.0230     0.0984     3.7606    36.8000     0.0616     0.4819
  117    2.320   1514.47     0.0805     0.0026     0.0533     0.0232     0.1028     3.5478    37.1200     0.0657     0.4583
  118    2.340   1531.63     0.0847     0.0027     0.0522     0.0234     0.1073     3.6093    37.4400     0.0698     0.4346
  119    2.360   1535.00     0.0892     0.0029     0.0492     0.0236     0.1100     3.2989    37.7600     0.0722     0.3599
  120    2.380   1536.02     0.0900     0.0027     0.0514     0.0238     0.1113     3.0234    38.0800     0.0733     0.3674
  121    2.400   1537.08     0.0842     0.0028     0.0490     0.0240     0.1059     3.2655    38.4000     0.0675     0.4106
  122    2.420   1538.15     0.0868     0.0029     0.0568     0.0242     0.1103     3.3114    38.7200     0.0716     0.4436
  123    2.440   1539.18     0.0845     0.0025     0.0584     0.0244     0.1083     2.9091    39.0400     0.0693     0.4664
  124    2.460   1540.25     0.0842     0.0021     0.0635     0.0246     0.1101     2.4813    39.3600     0.0707     0.5235
  125    2.480   1541.29     0.0839     0.0021     0.0641     0.0248     0.1111     2.5811    39.6800     0.0714     0.5588
  126    2.500   1542.37     0.0855     0.0018     0.0621     0.0250     0.1122     2.0302    40.0000     0.0722     0.5319
  127    2.520   1543.41     0.0883     0.0024     0.0613     0.0252     0.1145     2.7912    40.3200     0.0742     0.5010
  128    2.540   1544.49     0.0891     0.0027     0.0579     0.0254     0.1133     3.0117    40.6400     0.0726     0.4423
  129    2.560   1545.52     0.0912     0.0024     0.0541     0.0256     0.1151     2.7670    40.9600     0.0742     0.4219
  130    2.580   1546.55     0.0959     0.0027     0.0495     0.0258     0.1170     2.8596    41.2800     0.0757     0.3219
  131    2.600   1547.62     0.1013     0.0033     0.0407     0.0260     0.1185     3.2517    41.6000     0.0769     0.1945
  132    2.620   1548.68     0.0999     0.0031     0.0488     0.0262     0.1194     3.1072    41.9200     0.0775     0.2628
  133    2.640   1549.71     0.0972     0.0032     0.0497     0.0264     0.1181     3.2558    42.2400     0.0759     0.3098
  134    2.660   1550.78     0.0941     0.0035     0.0469     0.0266     0.1141     3.7010    42.5600     0.0715     0.2930
  135    2.680   1551.81     0.0910     0.0037     0.0492     0.0268     0.1108     3.9690    42.8800     0.0680     0.3017
  136    2.700   1552.89     0.0824     0.0035     0.0565     0.0270     0.1052     4.1340    43.2000     0.0620     0.4421
  137    2.720   1553.93     0.0869     0.0030     0.0627     0.0272     0.1125     3.5308    43.5200     0.0690     0.4915
  138    2.740   1554.99     0.0894     0.0028     0.0611     0.0274     0.1151     3.2368    43.8400     0.0713     0.4762
  139    2.760   1556.02     0.0879     0.0031     0.0597     0.0276     0.1127     3.4571    44.1600     0.0686     0.4578
  140    2.780   1557.07     0.0922     0.0029     0.0626     0.0278     0.1178     3.1746    44.4800     0.0733     0.4523
  141    2.800   1558.11     0.0942     0.0027     0.0611     0.0280     0.1203     2.9118    44.8000     0.0755     0.4505
  142    2.820   1559.18     0.0949     0.0031     0.0555     0.0282     0.1195     3.3589    45.1200     0.0744     0.4092
  143    2.840   1560.24     0.1003     0.0033     0.0504     0.0284     0.1219     3.3220    45.4400     0.0765     0.3018
  144    2.860   1561.27     0.1053     0.0030     0.0497     0.0286     0.1259     2.8414    45.7600     0.0801     0.2535
  145    2.880   1562.31     0.1042     0.0034     0.0463     0.0288     0.1252     3.2871    46.0800     0.0792     0.2699
  146    2.900   1563.34     0.1097     0.0033     0.0407     0.0290     0.1270     3.0653    46.4000     0.0806     0.1516
  147    2.920   1564.46     0.0987     0.0033     0.0464     0.0292     0.1171     3.1810    46.7200     0.0704     0.2082
  148    2.940   1565.47     0.0968     0.0028     0.0442     0.0294     0.1170     2.8757    47.0400     0.0699     0.2646
  149    2.960   1566.50     0.0993     0.0028     0.0449     0.0296     0.1163     2.7918    47.3600     0.0689     0.1573
  150    2.980   1567.58     0.0939     0.0029     0.0500     0.0298     0.1146     2.9996    47.6800     0.0669     0.2907
  151    3.000   1568.61     0.0982     0.0028     0.0466     0.0300     0.1186     2.8956    48.0000     0.0706     0.2616
  152    3.020   1569.67     0.0974     0.0025     0.0445     0.0302     0.1159     2.5497    48.3200     0.0675     0.2027
  153    3.040   1570.70     0.0956     0.0028     0.0391     0.0304     0.1125     2.9299    48.6400     0.0638     0.1512
  154    3.060   1571.74     0.1015     0.0031     0.0469     0.0306     0.1205     3.0523    48.9600     0.0716     0.2043
  155    3.080   1572.79     0.1034     0.0031     0.0593     0.0308     0.1268     2.9848    49.2800     0.0775     0.3187
  156    3.100   1573.85     0.1041     0.0029     0.0594     0.0310     0.1300     2.7624    49.6000     0.0804     0.3805
  157    3.120   1574.91     0.1016     0.0033     0.0492     0.0312     0.1232     3.2063    49.9200     0.0732     0.2759
  158    3.140   1575.92     0.1004     0.0031     0.0550     0.0314     0.1221     2.9634    50.2400     0.0718     0.2805
  159    3.160   1576.97     0.1041     0.0031     0.0649     0.0316     0.1300     3.1490    50.5600     0.0794     0.3773
  160    3.180   1578.03     0.1091     0.0033     0.0650     0.0318     0.1365     3.1982    50.8800     0.0856     0.3918
  161    3.200   1579.09     0.1119     0.0034     0.0695     0.0320     0.1411     3.0593    51.2000     0.0899     0.4175
  162    3.220   1580.13     0.1183     0.0035     0.0750     0.0322     0.1490     3.0349    51.5200     0.0975     0.4197
  163    3.240   1581.15     0.1219     0.0029     0.0704     0.0324     0.1528     2.4263    51.8400     0.1010     0.4092
  164    3.260   1582.19     0.1304     0.0024     0.0702     0.0326     0.1597     1.8741    52.1600     0.1075     0.3449
  165    3.280   1583.24     0.1393     0.0030     0.0736     0.0328     0.1691     2.2193    52.4800     0.1166     0.3259
  166    3.300   1584.29     0.1465     0.0036     0.0727     0.0330     0.1781     2.5483    52.8000     0.1253     0.3379
  167    3.320   1585.33     0.1633     0.0040     0.0739     0.0332     0.1938     2.5431    53.1200     0.1407     0.2803
  168    3.340   1586.38     0.1837     0.0044     0.0655     0.0334     0.2140     2.4724    53.4400     0.1605     0.2408
  169    3.360   1587.42     0.1935     0.0047     0.0453     0.0336     0.2147     2.4644    53.7600     0.1610     0.1043
  170    3.380   1588.46     0.1853     0.0050     0.0335     0.0338     0.2011     2.6712    54.0800     0.1471     0.0266
  171    3.400   1589.50     0.1724     0.0051     0.0207     0.0340     0.1829     2.9410    54.4000     0.1285    -0.0709
  172    3.420   1590.58     0.1616     0.0050     0.0280     0.0342     0.1714     2.9978    54.7200     0.1167    -0.0918
  173    3.440   1591.63     0.1477     0.0049     0.0433     0.0344     0.1640     3.1812    55.0400     0.1090     0.0404
  174    3.460   1592.66     0.1393     0.0044     0.0534     0.0346     0.1597     3.0745    55.3600     0.1044     0.1341
  175    3.480   1593.74     0.1299     0.0040     0.0597     0.0348     0.1545     3.0306    55.6800     0.0989     0.2420
  176    3.500   1594.78     0.1260     0.0039     0.0679     0.0350     0.1535     3.0881    56.0000     0.0975     0.3117
  177    3.520   1595.80     0.1235     0.0036     0.0708     0.0352     0.1529     2.8662    56.3200     0.0966     0.3623
  178    3.540   1596.85     0.1255     0.0038     0.0758     0.0354     0.1568     3.0012    56.6400     0.1001     0.3912
  179    3.560   1597.92     0.1281     0.0037     0.0773     0.0356     0.1603     2.9383    56.9600     0.1034     0.3993
  180    3.580   1598.98     0.1246     0.0030     0.0799     0.0358     0.1577     2.4481    57.2800     0.1004     0.4278
  181    3.600   1600.02     0.1204     0.0030     0.0782     0.0360     0.1538     2.4306    57.6000     0.0962     0.4526
  182    3.620   1601.05     0.1235     0.0031     0.0741     0.0362     0.1534     2.5566    57.9200     0.0955     0.3664
  183    3.640   1602.10     0.1227     0.0028     0.0800     0.0364     0.1552     2.2899    58.2400     0.0969     0.4225
  184    3.660   1603.15     0.1296     0.0031     0.0797     0.0366     0.1637     2.4940    58.5600     0.1051     0.4234
  185    3.680   1604.17     0.1332     0.0030     0.0825     0.0368     0.1680     2.2470    58.8800     0.1092     0.4223
  186    3.700   1605.23     0.1319     0.0029     0.0811     0.0370     0.1658     2.1986    59.2000     0.1066     0.4100
  187    3.720   1606.27     0.1292     0.0028     0.0795     0.0372     0.1631     2.1418    59.5200     0.1036     0.4203
  188    3.740   1607.31     0.1311     0.0030     0.0811     0.0374     0.1640     2.3178    59.8400     0.1042     0.3934
  189    3.760   1608.34     0.1287     0.0028     0.0862     0.0376     0.1644     2.1322    60.1600     0.1042     0.4545
  190    3.780   1609.38     0.1291     0.0026     0.0862     0.0378     0.1657     1.9961    60.4800     0.1052     0.4689
  191    3.800   1610.44     0.1361     0.0025     0.0832     0.0380     0.1714     1.8278    60.8000     0.1106     0.4151
  192    3.820   1611.49     0.1348     0.0027     0.0829     0.0382     0.1694     2.0229    61.1200     0.1083     0.4075
  193    3.840   1612.53     0.1382     0.0032     0.0834     0.0384     0.1735     2.3520    61.4400     0.1121     0.4071
  194    3.860   1613.60     0.1471     0.0031     0.0749     0.0386     0.1794     2.1681    61.7600     0.1177     0.3269
  195    3.880   1614.64     0.1588     0.0033     0.0622     0.0388     0.1874     2.1351    62.0800     0.1253     0.2343
  196    3.900   1615.70     0.1679     0.0035     0.0526     0.0390     0.1906     2.1384    62.4000     0.1282     0.1180
  197    3.920   1616.76     0.1746     0.0035     0.0615     0.0392     0.1987     2.0115    62.7200     0.1359     0.1326
  198    3.940   1617.82     0.1675     0.0034     0.0728     0.0394     0.1963     2.0030    63.0400     0.1333     0.2189
  199    3.960   1618.87     0.1673     0.0039     0.0784     0.0396     0.1997     2.3654    63.3600     0.1363     0.2750
  200    3.980   1619.93     0.1651     0.0036     0.0725     0.0398     0.1979     2.1571    63.6800     0.1342     0.2847
  201    4.000   1620.99     0.1617     0.0034     0.0751     0.0400     0.1923     2.0499    64.0000     0.1283     0.2562
  202    4.020   1622.05     0.1596     0.0034     0.0724     0.0402     0.1902     2.0874    64.3200     0.1259     0.2585
  203    4.040   1623.08     0.1591     0.0033     0.0769     0.0404     0.1908     2.0553    64.6400     0.1261     0.2778
  204    4.060   1624.16     0.1562     0.0030     0.0832     0.0406     0.1905     1.8917    64.9600     0.1255     0.3266
  205    4.080   1625.19     0.1541     0.0034     0.0831     0.0408     0.1890     2.2443    65.2800     0.1238     0.3424
  206    4.100   1626.28     0.1600     0.0035     0.0816     0.0410     0.1944     2.1927    65.6000     0.1288     0.3177
  207    4.120   1627.26     0.1612     0.0038     0.0810     0.0412     0.1955     2.3885    65.9200     0.1296     0.3132
  208    4.140   1628.35     0.1601     0.0039     0.0705     0.0414     0.1919     2.4358    66.2400     0.1257     0.2736
  209    4.160   1629.41     0.1619     0.0038     0.0665     0.0416     0.1888     2.3264    66.5600     0.1222     0.1834
  210    4.180   1630.49     0.1539     0.0038     0.0816     0.0418     0.1862     2.4340    66.8800     0.1193     0.2941
  211    4.200   1631.52     0.1506     0.0039     0.0913     0.0420     0.1880     2.5532    67.2000     0.1208     0.3896
  212    4.220   1632.55     0.1506     0.0041     0.0904     0.0422     0.1899     2.6725    67.5200     0.1224     0.4192
  213    4.240   1633.60     0.1514     0.0039     0.0887     0.0424     0.1887     2.5901    67.8400     0.1208     0.3835
  214    4.260   1634.68     0.1567     0.0038     0.0932     0.0426     0.1951     2.4500    68.1600     0.1269     0.3837
  215    4.280   1635.71     0.1605     0.0044     0.0925     0.0428     0.2000     2.7782    68.4800     0.1315     0.3894
  216    4.300   1647.72     0.1672     0.0042     0.0858     0.0430     0.2042     2.5985    68.8000     0.1354     0.3349
  217    4.320   1664.06     0.1737     0.0042     0.0792     0.0432     0.2079     2.5954    69.1200     0.1388     0.2776
  218    4.340   1677.68     0.1800     0.0044     0.0805     0.0434     0.2126     2.4897    69.4400     0.1431     0.2384
  219    4.360   1678.74     0.1817     0.0044     0.0784     0.0436     0.2160     2.4200    69.7600     0.1462     0.2603
  220    4.380   1679.78     0.1798     0.0040     0.0851     0.0438     0.2145     2.1752    70.0800     0.1444     0.2698
  221    4.400   1680.83     0.1756     0.0037     0.0963     0.0440     0.2145     2.0832    70.4000     0.1441     0.3375
  222    4.420   1681.87     0.1726     0.0037     0.1040     0.0442     0.2152     2.1424    70.7200     0.1445     0.3965
  223    4.440   1682.95     0.1763     0.0037     0.1055     0.0444     0.2203     2.1008    71.0400     0.1493     0.4046
  224    4.460   1683.99     0.1780     0.0038     0.1024     0.0446     0.2218     2.1337    71.3600     0.1505     0.3967
  225    4.480   1685.11     0.1816     0.0035     0.0989     0.0448     0.2238     1.9395    71.6800     0.1521     0.3657
  226    4.500   1686.11     0.1825     0.0034     0.0926     0.0450     0.2218     1.8530    72.0000     0.1498     0.3240
  227    4.520   1687.22     0.1728     0.0038     0.0957     0.0452     0.2121     2.1701    72.3200     0.1398     0.3461
  228    4.540   1688.25     0.1710     0.0038     0.0981     0.0454     0.2122     2.2167    72.6400     0.1395     0.3769
  229    4.560   1689.32     0.1729     0.0039     0.0997     0.0456     0.2147     2.2408    72.9600     0.1417     0.3807
  230    4.580   1690.35     0.1763     0.0041     0.0957     0.0458     0.2177     2.3464    73.2800     0.1444     0.3641
  231    4.600   1691.42     0.1832     0.0042     0.0883     0.0460     0.2208     2.3367    73.6000     0.1472     0.2954
  232    4.620   1692.46     0.1799     0.0038     0.0908     0.0462     0.2178     2.0892    73.9200     0.1439     0.3057
  233    4.640   1693.54     0.1829     0.0040     0.0934     0.0464     0.2232     2.1875    74.2400     0.1490     0.3324
  234    4.660   1694.54     0.1843     0.0039     0.0880     0.0466     0.2212     2.1289    74.5600     0.1467     0.2823
  235    4.680   1695.63     0.1775     0.0037     0.0858     0.0468     0.2133     2.0683    74.8800     0.1384     0.2772
  236    4.700   1696.70     0.1701     0.0039     0.1013     0.0470     0.2105     2.2292    75.2000     0.1353     0.3647
  237    4.720   1697.76     0.1677     0.0035     0.1072     0.0472     0.2121     2.0899    75.5200     0.1365     0.4282
  238    4.740   1698.79     0.1698     0.0033     0.1109     0.0474     0.2160     1.9892    75.8400     0.1402     0.4473
  239    4.760   1699.82     0.1720     0.0034     0.1090     0.0476     0.2183     1.9647    76.1600     0.1421     0.4393
  240    4.780   1700.89     0.1771     0.0037     0.1144     0.0478     0.2241     2.1078    76.4800     0.1477     0.4349
  241    4.800   1701.93     0.1824     0.0038     0.1146     0.0480     0.2308     2.1006    76.8000     0.1540     0.4365
  242    4.820   1702.99     0.1872     0.0041     0.1051     0.0482     0.2331     2.2346    77.1200     0.1559     0.3913
  243    4.840   1704.01     0.1935     0.0043     0.0956     0.0484     0.2349     2.1958    77.4400     0.1574     0.3177
  244    4.860   1705.10     0.1947     0.0044     0.0944     0.0486     0.2347     2.2749    77.7600     0.1569     0.2976
  245    4.880   1706.16     0.1884     0.0049     0.0938     0.0488     0.2268     2.5721    78.0800     0.1487     0.2860
  246    4.900   1707.23     0.1805     0.0043     0.0942     0.0490     0.2208     2.3771    78.4000     0.1424     0.3283
  247    4.920   1708.29     0.1733     0.0038     0.0963     0.0492     0.2130     2.1949    78.7200     0.1343     0.3369
  248    4.940   1709.34     0.1677     0.0037     0.1065     0.0494     0.2113     2.1777    79.0400     0.1322     0.4106
  249    4.960   1710.41     0.1653     0.0034     0.1117     0.0496     0.2116     2.0998    79.3600     0.1322     0.4586
  250    4.980   1711.45     0.1667     0.0035     0.1140     0.0498     0.2146     2.1363    79.6800     0.1349     0.4763
  251    5.000   1712.48     0.1677     0.0038     0.1120     0.0500     0.2158     2.2683    80.0000     0.1358     0.4757
  252    5.020   1713.59     0.1726     0.0037     0.1037     0.0502     0.2164     2.1338    80.3200     0.1361     0.3990
  253    5.040   1714.60     0.1736     0.0037     0.1037     0.0504     0.2184     2.1153    80.6400     0.1377     0.4071
  254    5.060   1715.63     0.1754     0.0038     0.1072     0.0506     0.2199     2.1880    80.9600     0.1389     0.3990
  255    5.080   1716.70     0.1802     0.0041     0.1091     0.0508     0.2261     2.2630    81.2800     0.1448     0.4038
  256    5.100   1717.75     0.1816     0.0043     0.1078     0.0510     0.2266     2.4009    81.6000     0.1450     0.3863
  257    5.120   1718.80     0.1852     0.0042     0.1047     0.0512     0.2295     2.3014    81.9200     0.1476     0.3683
  258    5.140   1719.88     0.1821     0.0045     0.1038     0.0514     0.2264     2.4780    82.2400     0.1442     0.3747
  259    5.160   1720.94     0.1858     0.0047     0.1014     0.0516     0.2282     2.5338    82.5600     0.1456     0.3394
  260    5.180   1721.93     0.1808     0.0046     0.1048     0.0518     0.2244     2.5530    82.8800     0.1415     0.3676
  261    5.200   1722.99     0.1795     0.0043     0.1109     0.0520     0.2248     2.4247    83.2000     0.1416     0.3956
  262    5.220   1723.99     0.1735     0.0042     0.1057     0.0522     0.2197     2.4644    83.5200     0.1362     0.4248
  263    5.240   1725.04     0.1802     0.0045     0.1070     0.0524     0.2239     2.5083    83.8400     0.1400     0.3682
  264    5.260   1726.10     0.1744     0.0041     0.1127     0.0526     0.2207     2.3213    84.1600     0.1365     0.4214
  265    5.280   1727.13     0.1756     0.0044     0.1122     0.0528     0.2227     2.4723    84.4800     0.1382     0.4286
  266    5.300   1728.22     0.1768     0.0044     0.1105     0.0530     0.2235     2.4945    84.8000     0.1387     0.4184
  267    5.320   1729.26     0.1810     0.0045     0.1133     0.0532     0.2274     2.4636    85.1200     0.1423     0.4026
  268    5.340   1730.31     0.1781     0.0041     0.1185     0.0534     0.2274     2.2971    85.4400     0.1419     0.4508
  269    5.360   1731.36     0.1795     0.0042     0.1241     0.0536     0.2312     2.3733    85.7600     0.1454     0.4767
  270    5.380   1732.42     0.1837     0.0038     0.1188     0.0538     0.2346     2.0458    86.0800     0.1485     0.4527
  271    5.400   1733.48     0.1861     0.0040     0.1142     0.0540     0.2345     2.1359    86.4000     0.1481     0.4134
  272    5.420   1734.51     0.1914     0.0042     0.1117     0.0542     0.2381     2.1753    86.7200     0.1514     0.3768
  273    5.440   1735.55     0.1950     0.0043     0.1131     0.0544     0.2432     2.2535    87.0400     0.1561     0.3859
  274    5.460   1736.61     0.1970     0.0051     0.1020     0.0546     0.2406     2.5797    87.3600     0.1532     0.3213
  275    5.480   1737.64     0.1951     0.0049     0.0981     0.0548     0.2362     2.4807    87.6800     0.1485     0.2903
  276    5.500   1738.80     0.1912     0.0046     0.1009     0.0550     0.2327     2.3800    88.0000     0.1447     0.3034
  277    5.520   1739.82     0.1843     0.0047     0.1058     0.0552     0.2286     2.4935    88.3200     0.1402     0.3585
  278    5.540   1740.84     0.1805     0.0042     0.1107     0.0554     0.2259     2.2754    88.6400     0.1372     0.3838
  279    5.560   1741.90     0.1758     0.0043     0.1198     0.0556     0.2246     2.3430    88.9600     0.1356     0.4480
  280    5.580   1742.89     0.1731     0.0041     0.1223     0.0558     0.2246     2.3530    89.2800     0.1353     0.4935
  281    5.600   1743.91     0.1758     0.0038     0.1246     0.0560     0.2273     2.2112    89.6000     0.1377     0.4848
  282    5.620   1744.99     0.1779     0.0040     0.1279     0.0562     0.2313     2.2195    89.9200     0.1414     0.5022
  283    5.640   1746.02     0.1837     0.0038     0.1213     0.0564     0.2339     2.1509    90.2400     0.1437     0.4396
  284    5.660   1747.07     0.1836     0.0039     0.1266     0.0566     0.2366     2.1115    90.5600     0.1461     0.4761
  285    5.680   1748.11     0.1897     0.0039     0.1172     0.0568     0.2389     2.0740    90.8800     0.1480     0.4074
  286    5.700   1749.18     0.1881     0.0041     0.1153     0.0570     0.2360     2.1901    91.2000     0.1448     0.3949
  287    5.720   1750.16     0.1891     0.0042     0.1197     0.0572     0.2383     2.2099    91.5200     0.1468     0.4084
  288    5.740   1751.16     0.1877     0.0045     0.1226     0.0574     0.2391     2.4111    91.8400     0.1472     0.4414
  289    5.760   1752.28     0.1920     0.0045     0.1176     0.0576     0.2415     2.3606    92.1600     0.1494     0.4042
  290    5.780   1753.34     0.1916     0.0048     0.1147     0.0578     0.2402     2.5055    92.4800     0.1477     0.3912
  291    5.800   1754.36     0.1935     0.0046     0.1157     0.0580     0.2419     2.3750    92.8000     0.1491     0.3832
  292    5.820   1755.29     0.1893     0.0046     0.1222     0.0582     0.2395     2.4324    93.1200     0.1464     0.4195
  293    5.840   1756.11     0.1903     0.0046     0.1230     0.0584     0.2412     2.4330    93.4400     0.1478     0.4246
  294    5.860   1757.06     0.1819     0.0047     0.1304     0.0586     0.2357     2.5805    93.7600     0.1419     0.4888
  295    5.880   1758.17     0.1802     0.0042     0.1338     0.0588     0.2360     2.3002    94.0800     0.1420     0.5226
  296    5.900   1759.26     0.1804     0.0037     0.1308     0.0590     0.2359     2.0734    94.4000     0.1415     0.5170
  297    5.920   1760.30     0.1776     0.0038     0.1322     0.0592     0.2329     2.1568    94.7200     0.1382     0.5252
  298    5.940   1761.38     0.1794     0.0036     0.1317     0.0594     0.2342     1.9984    95.0400     0.1391     0.5099
  299    5.960   1762.40     0.1823     0.0038     0.1367     0.0596     0.2393     2.0882    95.3600     0.1439     0.5294
  300    5.980   1763.51     0.1903     0.0041     0.1300     0.0598     0.2463     2.1543    95.6800     0.1506     0.4874
  301    6.000   1764.60     0.2001     0.0043     0.1220     0.0600     0.2525     2.1685    96.0000     0.1565     0.4141
  302    6.020   1765.63     0.2061     0.0047     0.1252     0.0602     0.2574     2.2838    96.3200     0.1611     0.3838
  303    6.040   1766.69     0.2083     0.0049     0.1292     0.0604     0.2626     2.3734    96.6400     0.1660     0.4155
  304    6.060   1767.78     0.2114     0.0048     0.1227     0.0606     0.2632     2.3116    96.9600     0.1662     0.3772
  305    6.080   1768.82     0.2129     0.0049     0.1207     0.0608     0.2634     2.2812    97.2800     0.1661     0.3583
  306    6.100   1769.86     0.2143     0.0048     0.1246     0.0610     0.2660     2.2225    97.6000     0.1684     0.3688
  307    6.120   1770.93     0.2102     0.0045     0.1351     0.0612     0.2653     2.1469    97.9200     0.1674     0.4191
  308    6.140   1771.95     0.2081     0.0046     0.1367     0.0614     0.2661     2.2053    98.2400     0.1679     0.4566
  309    6.160   1772.99     0.2066     0.0047     0.1354     0.0616     0.2638     2.2636    98.5600     0.1652     0.4504
  310    6.180   1773.99     0.2008     0.0049     0.1374     0.0618     0.2583     2.4006    98.8800     0.1594     0.4710
  311    6.200   1775.07     0.2050     0.0052     0.1332     0.0620     0.2622     2.5502    99.2000     0.1630     0.4554
  312    6.220   1776.17     0.2048     0.0052     0.1322     0.0622     0.2595     2.5155    99.5200     0.1599     0.4250
  313    6.240   1786.89     0.2051     0.0051     0.1304     0.0624     0.2601     2.5005    99.8400     0.1603     0.4284
  314    6.260   1802.28     0.2066     0.0052     0.1286     0.0626     0.2609     2.5609   100.1600     0.1607     0.4146
  315    6.280   1812.84     0.2071     0.0051     0.1312     0.0628     0.2618     2.4650   100.4800     0.1614     0.4179
  316    6.300   1813.91     0.2002     0.0054     0.1354     0.0630     0.2561     2.6433   100.8000     0.1553     0.4520
  317    6.320   1814.97     0.1979     0.0053     0.1350     0.0632     0.2547     2.6539   101.1200     0.1536     0.4692
  318    6.340   1816.03     0.1970     0.0049     0.1371     0.0634     0.2536     2.4628   101.4400     0.1521     0.4682
  319    6.360   1817.06     0.1951     0.0048     0.1411     0.0636     0.2544     2.4338   101.7600     0.1526     0.5082
  320    6.380   1818.05     0.1976     0.0051     0.1408     0.0638     0.2564     2.5826   102.0800     0.1543     0.4932
  321    6.400   1819.14     0.1911     0.0049     0.1441     0.0640     0.2513     2.5377   102.4000     0.1489     0.5323
  322    6.420   1820.19     0.1905     0.0051     0.1415     0.0642     0.2507     2.6862   102.7200     0.1480     0.5339
  323    6.440   1821.25     0.1880     0.0047     0.1395     0.0644     0.2468     2.5028   103.0400     0.1438     0.5260
  324    6.460   1822.32     0.1897     0.0048     0.1392     0.0646     0.2482     2.5468   103.3600     0.1448     0.5149
  325    6.480   1823.39     0.1868     0.0047     0.1456     0.0648     0.2468     2.4646   103.6800     0.1431     0.5447
  326    6.500   1824.43     0.1822     0.0047     0.1476     0.0650     0.2445     2.6097   104.0000     0.1405     0.5922
  327    6.520   1825.48     0.1831     0.0044     0.1453     0.0652     0.2442     2.4360   104.3200     0.1399     0.5732
  328    6.540   1826.49     0.1837     0.0051     0.1452     0.0654     0.2440     2.8111   104.6400     0.1394     0.5613
  329    6.560   1827.49     0.1828     0.0050     0.1466     0.0656     0.2446     2.7113   104.9600     0.1396     0.5839
  330    6.580   1828.60     0.1846     0.0047     0.1458     0.0658     0.2466     2.5463   105.2800     0.1413     0.5789
  331    6.600   1829.64     0.1857     0.0044     0.1459     0.0660     0.2477     2.3650   105.6000     0.1421     0.5742
  332    6.620   1830.68     0.1923     0.0045     0.1375     0.0662     0.2522     2.3709   105.9200     0.1463     0.5219
  333    6.640   1831.70     0.1933     0.0050     0.1478     0.0664     0.2534     2.6014   106.2400     0.1472     0.5226
  334    6.660   1832.78     0.1947     0.0055     0.1492     0.0666     0.2577     2.8318   106.5600     0.1512     0.5527
  335    6.680   1833.81     0.2013     0.0051     0.1381     0.0668     0.2613     2.5549   106.8800     0.1544     0.4925
  336    6.700   1834.84     0.2014     0.0058     0.1305     0.0670     0.2571     2.8525   107.2000     0.1499     0.4372
  337    6.720   1841.26     0.1975     0.0059     0.1285     0.0672     0.2513     2.9734   107.5200     0.1438     0.4246
  338    6.740   1857.54     0.1948     0.0056     0.1295     0.0674     0.2490     2.8356   107.8400     0.1412     0.4379
  339    6.760   1873.83     0.1921     0.0050     0.1304     0.0676     0.2467     2.5541   108.1600     0.1385     0.4511
  340    6.780   1882.79     0.1918     0.0048     0.1378     0.0678     0.2484     2.4973   108.4800     0.1399     0.4781
  341    6.800   1883.45     0.1875     0.0049     0.1456     0.0680     0.2474     2.5978   108.8000     0.1386     0.5390
  342    6.820   1884.09     0.1918     0.0049     0.1532     0.0682     0.2554     2.5987   109.1200     0.1463     0.5688
  343    6.840   1884.74     0.1974     0.0046     0.1564     0.0684     0.2628     2.3656   109.4400     0.1533     0.5691
  344    6.860   1885.39     0.2113     0.0048     0.1550     0.0686     0.2772     2.4243   109.7600     0.1674     0.5279
  345    6.880   1886.03     0.2292     0.0051     0.1436     0.0688     0.2907     2.3670   110.0800     0.1806     0.4292
  346    6.900   1886.69     0.2339     0.0055     0.1392     0.0690     0.2927     2.3970   110.4000     0.1823     0.3896
  347    6.920   1887.36     0.2382     0.0059     0.1304     0.0692     0.2940     2.5165   110.7200     0.1833     0.3468
  348    6.940   1888.01     0.2399     0.0059     0.1354     0.0694     0.2967     2.4797   111.0400     0.1856     0.3538
  349    6.960   1888.65     0.2410     0.0059     0.1331     0.0696     0.2976     2.4429   111.3600     0.1862     0.3499
  350    6.980   1889.33     0.2307     0.0063     0.1318     0.0698     0.2860     2.6762   111.6800     0.1744     0.3558
  351    7.000   1889.96     0.2218     0.0066     0.1446     0.0700     0.2807     2.9117   112.0000     0.1687     0.4158
  352    7.020   1892.52     0.2163     0.0066     0.1484     0.0702     0.2796     3.0519   112.3200     0.1673     0.4806
  353    7.040   1907.81     0.2124     0.0063     0.1419     0.0704     0.2729     2.9162   112.6400     0.1603     0.4587
  354    7.060   1923.09     0.2084     0.0059     0.1354     0.0706     0.2662     2.7111   112.9600     0.1532     0.4368
  355    7.080   1930.61     0.2035     0.0051     0.1482     0.0708     0.2631     2.5156   113.2800     0.1498     0.4736
  356    7.100   1931.66     0.2026     0.0047     0.1593     0.0710     0.2680     2.3336   113.6000     0.1544     0.5480
  357    7.120   1932.74     0.2074     0.0047     0.1702     0.0712     0.2780     2.2801   113.9200     0.1640     0.5900
  358    7.140   1933.80     0.2040     0.0048     0.1742     0.0714     0.2768     2.3647   114.2400     0.1625     0.6263
  359    7.160   1934.86     0.2102     0.0052     0.1727     0.0716     0.2837     2.5144   114.5600     0.1691     0.6114
  360    7.180   1935.92     0.2146     0.0051     0.1690     0.0718     0.2855     2.4162   114.8800     0.1706     0.5678
  361    7.200   1936.96     0.2198     0.0053     0.1559     0.0720     0.2883     2.4155   115.2000     0.1731     0.5260
  362    7.220   1938.02     0.2239     0.0052     0.1494     0.0722     0.2861     2.2777   115.5200     0.1706     0.4450
  363    7.240   1939.09     0.2247     0.0055     0.1523     0.0724     0.2884     2.4590   115.8400     0.1725     0.4589
  364    7.260   1940.15     0.2203     0.0058     0.1544     0.0726     0.2845     2.5977   116.1600     0.1683     0.4776
  365    7.280   1941.21     0.2196     0.0054     0.1572     0.0728     0.2850     2.4843   116.4800     0.1685     0.4918
  366    7.300   1942.25     0.2168     0.0056     0.1581     0.0730     0.2837     2.5788   116.8000     0.1669     0.5172
  367    7.320   1943.32     0.2197     0.0058     0.1614     0.0732     0.2865     2.6494   117.1200     0.1693     0.5061
  368    7.340   1944.39     0.2154     0.0055     0.1682     0.0734     0.2855     2.5281   117.4400     0.1680     0.5565
  369    7.360   1945.45     0.2176     0.0056     0.1669     0.0736     0.2880     2.5828   117.7600     0.1702     0.5518
  370    7.380   1946.53     0.2187     0.0052     0.1695     0.0738     0.2897     2.3934   118.0800     0.1716     0.5545
  371    7.400   1947.57     0.2176     0.0054     0.1712     0.0740     0.2884     2.4671   118.4000     0.1700     0.5564
  372    7.420   1948.61     0.2143     0.0060     0.1778     0.0742     0.2878     2.7811   118.7200     0.1691     0.5965
  373    7.440   1949.69     0.2169     0.0055     0.1777     0.0744     0.2921     2.5202   119.0400     0.1731     0.6051
  374    7.460   1950.79     0.2171     0.0057     0.1769     0.0746     0.2918     2.6450   119.3600     0.1725     0.5997
  375    7.480   1951.82     0.2237     0.0061     0.1725     0.0748     0.2966     2.7595   119.6800     0.1770     0.5589
  376    7.500   1952.91     0.2259     0.0056     0.1725     0.0750     0.2980     2.4804   120.0000     0.1780     0.5439
  377    7.520   1953.99     0.2251     0.0057     0.1730     0.0752     0.2980     2.5258   120.3200     0.1777     0.5536
  378    7.540   1955.02     0.2238     0.0059     0.1702     0.0754     0.2951     2.6498   120.6400     0.1744     0.5408
  379    7.560   1956.09     0.2212     0.0059     0.1727     0.0756     0.2929     2.6375   120.9600     0.1719     0.5538
  380    7.580   1957.16     0.2162     0.0056     0.1816     0.0758     0.2912     2.5692   121.2800     0.1699     0.6047
  381    7.600   1958.22     0.2140     0.0053     0.1738     0.0760     0.2898     2.4720   121.6000     0.1682     0.6207
  382    7.620   1959.27     0.2192     0.0056     0.1685     0.0762     0.2899     2.5671   121.9200     0.1680     0.5477
  383    7.640   1960.35     0.2158     0.0059     0.1652     0.0764     0.2857     2.6877   122.2400     0.1635     0.5503
  384    7.660   1961.38     0.2169     0.0055     0.1692     0.0766     0.2864     2.5238   122.5600     0.1639     0.5422
  385    7.680   1962.48     0.2186     0.0060     0.1737     0.0768     0.2909     2.7583   122.8800     0.1680     0.5671
  386    7.700   1963.56     0.2205     0.0061     0.1823     0.0770     0.2963     2.7605   123.2000     0.1731     0.5982
  387    7.720   1964.60     0.2378     0.0069     0.1828     0.0772     0.3161     2.9385   123.5200     0.1926     0.5675
  388    7.740   1965.66     0.2359     0.0067     0.1945     0.0774     0.3168     2.8386   123.8400     0.1929     0.5966
  389    7.760   1966.71     0.2394     0.0067     0.1807     0.0776     0.3185     2.8096   124.1600     0.1944     0.5695
  390    7.780   1967.77     0.2373     0.0066     0.1869     0.0778     0.3134     2.7147   124.4800     0.1889     0.5479
  391    7.800   1968.85     0.2304     0.0063     0.1945     0.0780     0.3110     2.7193   124.8000     0.1862     0.6125
  392    7.820   1969.90     0.2287     0.0061     0.1927     0.0782     0.3104     2.6566   125.1200     0.1853     0.6281
  393    7.840   1971.00     0.2328     0.0063     0.1900     0.0784     0.3102     2.7208   125.4400     0.1848     0.5738
  394    7.860   1972.02     0.2373     0.0063     0.1962     0.0786     0.3190     2.6685   125.7600     0.1933     0.5996
  395    7.880   1973.09     0.2367     0.0060     0.1936     0.0788     0.3180     2.5540   126.0800     0.1919     0.5980
  396    7.900   1974.15     0.2420     0.0066     0.1943     0.0790     0.3234     2.7634   126.4000     0.1970     0.5833
  397    7.920   1975.22     0.2577     0.0067     0.1930     0.0792     0.3386     2.6420   126.7200     0.2119     0.5358
  398    7.940   1976.31     0.2701     0.0068     0.1893     0.0794     0.3504     2.5636   127.0400     0.2234     0.5008
  399    7.960   1977.39     0.2840     0.0066     0.1800     0.0796     0.3614     2.2961   127.3600     0.2340     0.4475
  400    7.980   1978.46     0.2869     0.0073     0.1718     0.0798     0.3598     2.5245   127.6800     0.2321     0.4038
  401    8.000   1979.54     0.2738     0.0070     0.1913     0.0800     0.3508     2.4998   128.0000     0.2228     0.4642
  402    8.020   1980.56     0.2675     0.0064     0.2046     0.0802     0.3530     2.3794   128.3200     0.2247     0.5488
  403    8.040   1981.65     0.2641     0.0065     0.2033     0.0804     0.3502     2.4603   128.6400     0.2216     0.5624
  404    8.060   1982.68     0.2671     0.0063     0.2063     0.0806     0.3523     2.3832   128.9600     0.2234     0.5474
  405    8.080   1983.72     0.2619     0.0064     0.2134     0.0808     0.3505     2.4193   129.2800     0.2212     0.5888
  406    8.100   1984.77     0.2662     0.0066     0.2125     0.0810     0.3559     2.4797   129.6000     0.2263     0.5853
  407    8.120   1985.89     0.2662     0.0064     0.2096     0.0812     0.3543     2.4114   129.9200     0.2243     0.5725
  408    8.140   1986.92     0.2621     0.0062     0.2082     0.0814     0.3500     2.3109   130.2400     0.2197     0.5823
  409    8.160   1988.04     0.2522     0.0051     0.2087     0.0816     0.3401     2.0077   130.5600     0.2096     0.6093
  410    8.180   1989.07     0.2525     0.0055     0.2027     0.0818     0.3385     2.2007   130.8800     0.2076     0.5917
  411    8.200   1990.05     0.2469     0.0059     0.1989     0.0820     0.3305     2.3649   131.2000     0.1993     0.5875
  412    8.220   1991.17     0.2420     0.0060     0.2156     0.0822     0.3301     2.4602   131.5200     0.1985     0.6424
  413    8.240   1992.25     0.2434     0.0063     0.2196     0.0824     0.3355     2.6247   131.8400     0.2037     0.6722
  414    8.260   1993.63     0.2530     0.0062     0.2186     0.0826     0.3450     2.4902   132.1600     0.2129     0.6421
  415    8.280   2004.15     0.2425     0.0062     0.2077     0.0828     0.3314     3.0569   132.4800     0.1989     0.6567
  416    8.300   2016.77     0.2666     0.0061     0.2010     0.0830     0.3508     2.9373   132.8000     0.2180     0.5423
  417    8.320   2019.97     0.2738     0.0055     0.2014     0.0832     0.3583     2.0124   133.1200     0.2251     0.5232
  418    8.340   2021.06     0.2644     0.0057     0.2106     0.0834     0.3527     2.1482   133.4400     0.2192     0.5783
  419    8.360   2022.10     0.2632     0.0055     0.2250     0.0836     0.3550     2.1122   133.7600     0.2213     0.6108
  420    8.380   2023.08     0.2603     0.0059     0.2319     0.0838     0.3577     2.2866   134.0800     0.2236     0.6620
  421    8.400   2024.16     0.2759     0.0063     0.2355     0.0840     0.3742     2.2962   134.4000     0.2398     0.6262
  422    8.420   2025.27     0.2877     0.0073     0.2214     0.0842     0.3825     2.5649   134.7200     0.2478     0.5709
  423    8.440   2026.33     0.2879     0.0086     0.2259     0.0844     0.3815     2.9726   135.0400     0.2465     0.5622
  424    8.460   2027.39     0.2957     0.0069     0.2281     0.0846     0.3914     2.3707   135.3600     0.2560     0.5595
  425    8.480   2028.52     0.3075     0.0045     0.2315     0.0848     0.4036     1.4625   135.6800     0.2679     0.5372
  426    8.500   2029.57     0.3311     0.0030     0.2410     0.0850     0.4314     0.9226   136.0000     0.2954     0.5213
  427    8.520   2030.59     0.4277     0.0031     0.2590     0.0852     0.5334     0.7643   136.3200     0.3971     0.4227
  428    8.540   2031.71     1.0908     0.0065     0.2434     0.0854     1.1973     0.7669   136.6400     1.0606     0.1741
  429    8.560   2032.77     3.0988     0.0114     0.1317     0.0856     3.1742     0.4090   136.9600     3.0373     0.0338
  430    8.580   2033.86     5.5472     0.0163     0.0380     0.0858     5.5713     0.3122   137.2800     5.4340    -0.0049
  431    8.600   2034.94     7.1409     0.0209     0.0366     0.0860     7.1543     0.3049   137.6000     7.0167    -0.0077
  432    8.620   2036.04     7.8607     0.0263     0.0524     0.0862     7.8818     0.3411   137.9200     7.7439    -0.0047
  433    8.640   2037.10     8.3224     0.0327     0.0674     0.0864     8.3529     0.3952   138.2400     8.2147    -0.0017
  434    8.660   2038.18     8.6615     0.0363     0.0876     0.0866     8.6948     0.4223   138.5600     8.5562    -0.0009
  435    8.680   2039.27     8.9187     0.0395     0.0905     0.0868     8.9558     0.4453   138.8800     8.8169     0.0002
  436    8.700   2040.33     9.0839     0.0433     0.0912     0.0870     9.1221     0.4775   139.2000     8.9829     0.0005
  437    8.720   2041.34     9.1317     0.0448     0.0914     0.0872     9.1702     0.4908   139.5200     9.0306     0.0005
  438    8.740   2042.51     9.0242     0.0455     0.0909     0.0874     9.0621     0.5017   139.8400     8.9223     0.0003
  439    8.760   2043.60     8.8239     0.0462     0.0922     0.0876     8.8621     0.5210   140.1600     8.7220     0.0004
  440    8.780   2044.64     8.6822     0.0457     0.0936     0.0878     8.7212     0.5254   140.4800     8.5807     0.0006
  441    8.800   2045.74     8.5583     0.0439     0.0916     0.0880     8.5972     0.5114   140.8000     8.4564     0.0006
  442    8.820   2046.75     8.4761     0.0417     0.0905     0.0882     8.5142     0.4908   141.1200     8.3730     0.0003
  443    8.840   2047.84     8.3498     0.0396     0.0895     0.0884     8.3871     0.4731   141.4400     8.2457     0.0001
  444    8.860   2048.88     8.1078     0.0392     0.0895     0.0886     8.1459     0.4791   141.7600     8.0041     0.0003
  445    8.880   2050.05     7.6103     0.0425     0.0877     0.0888     7.6471     0.5499   142.0800     7.5050    -0.0002
  446    8.900   2051.08     7.0522     0.0486     0.0868     0.0890     7.0895     0.6760   142.4000     6.9471     0.0000
  447    8.920   2052.18     6.4078     0.0550     0.0873     0.0892     6.4441     0.8351   142.7200     6.3014    -0.0004
  448    8.940   2053.22     5.6845     0.0609     0.0844     0.0894     5.7204     1.0432   143.0400     5.5773    -0.0007
  449    8.960   2054.24     4.9619     0.0610     0.0851     0.0896     4.9973     1.1887   143.3600     4.8540    -0.0011
  450    8.980   2055.36     4.0188     0.0493     0.0981     0.0898     4.0583     1.1626   143.6800     3.9146     0.0012
  451    9.000   2056.43     3.2853     0.0418     0.1003     0.0900     3.3262     1.2108   144.0000     3.1822     0.0023
  452    9.020   2057.51     2.7320     0.0370     0.1075     0.0902     2.7765     1.3011   144.3200     2.6322     0.0060
  453    9.040   2058.54     2.7161     0.0335     0.1093     0.0904     2.7622     1.2384   144.6400     2.6176     0.0074
  454    9.060   2059.63     3.3365     0.0333     0.1118     0.0906     3.3809     1.0373   144.9600     3.2360     0.0046
  455    9.080   2060.69     5.3334     0.0322    -0.0451     0.0908     5.3376     0.6240   145.2800     5.1923    -0.0151
  456    9.100   2061.75     6.9863     0.0235    -0.1241     0.0910     6.9380     0.3423   145.6000     6.7924    -0.0303
  457    9.120   2062.85     7.7209     0.0179    -0.0790     0.0912     7.6801     0.2376   145.9200     7.5342    -0.0251
  458    9.140   2063.98     8.1829     0.0175    -0.0334     0.0914     8.1596     0.2163   146.2400     8.0134    -0.0183
  459    9.160   2065.10     8.8163     0.0181     0.0281     0.0916     8.8193     0.2081   146.5600     8.6727    -0.0097
  460    9.180   2066.19     9.9216     0.0184     0.0855     0.0918     9.9453     0.1873   146.8800     9.7984    -0.0037
  461    9.200   2067.28    11.0732     0.0195     0.0613     0.0920    11.1044     0.1778   147.2000    10.9572    -0.0016
  462    9.220   2068.39    11.7642     0.0236     0.0298     0.0922    11.7810     0.2015   147.5200    11.6335    -0.0045
  463    9.240   2069.41    11.9099     0.0291     0.0126     0.0924    11.9137     0.2444   147.8400    11.7659    -0.0071
  464    9.260   2070.46    11.7781     0.0313     0.0211     0.0926    11.7847     0.2635   148.1600    11.6365    -0.0066
  465    9.280   2071.64    11.3990     0.0346     0.0108     0.0928    11.3993     0.3025   148.4800    11.2508    -0.0082
  466    9.300   2072.74    11.2051     0.0389     0.0396     0.0930    11.2151     0.3468   148.8000    11.0663    -0.0063
  467    9.320   2073.82    11.1140     0.0418     0.0681     0.0932    11.1389     0.3762   149.1200    10.9897    -0.0031
  468    9.340   2074.93    11.1872     0.0471     0.0506     0.0934    11.2125     0.4212   149.4400    11.0630    -0.0030
  469    9.360   2076.04    11.2909     0.0497     0.0525     0.0936    11.3143     0.4404   149.7600    11.1646    -0.0034
  470    9.380   2077.15    11.4059     0.0516     0.0567     0.0938    11.4318     0.4531   150.0800    11.2817    -0.0028
  471    9.400   2078.22    11.4365     0.0553     0.0354     0.0940    11.4527     0.4836   150.4000    11.3023    -0.0049
  472    9.420   2079.32    11.3350     0.0590     0.0636     0.0942    11.3581     0.5190   150.7200    11.2074    -0.0035
  473    9.440   2080.35    11.2421     0.0607     0.0781     0.0944    11.2732     0.5385   151.0400    11.1221    -0.0018
  474    9.460   2081.46    11.3062     0.0633     0.0667     0.0946    11.3335     0.5634   151.3600    11.1822    -0.0026
  475    9.480   2082.58    11.5947     0.0661     0.0624     0.0948    11.6209     0.5771   151.6800    11.4692    -0.0028
  476    9.500   2083.78    12.0037     0.0666     0.0660     0.0950    12.0316     0.5590   152.0000    11.8796    -0.0024
  477    9.520   2084.89    12.3854     0.0688     0.0693     0.0952    12.4126     0.5562   152.3200    12.2602    -0.0025
  478    9.540   2085.98    12.6281     0.0707     0.0841     0.0954    12.6614     0.5610   152.6400    12.5088    -0.0013
  479    9.560   2087.07    12.8038     0.0710     0.0694     0.0956    12.8334     0.5548   152.9600    12.6804    -0.0020
  480    9.580   2088.21    13.0766     0.0711     0.0784     0.0958    13.1079     0.5459   153.2800    12.9546    -0.0016
  481    9.600   2089.32    13.4368     0.0700     0.0916     0.0960    13.4733     0.5269   153.6000    13.3197    -0.0007
  482    9.620   2090.41    13.8182     0.0696     0.0912     0.0962    13.8561     0.5096   153.9200    13.7022    -0.0004
  483    9.640   2091.46    14.2935     0.0716     0.0892     0.0964    14.3303     0.5079   154.2400    14.1761    -0.0006
  484    9.660   2092.51    14.8772     0.0717     0.0938     0.0966    14.9151     0.4881   154.5600    14.7606    -0.0004
  485    9.680   2093.70    15.4713     0.0709     0.0965     0.0968    15.5101     0.4643   154.8800    15.3552    -0.0003
  486    9.700   2094.88    15.9863     0.0741     0.0902     0.0970    16.0257     0.4694   155.2000    15.8705    -0.0002
  487    9.720   2096.00    16.4910     0.0768     0.0884     0.0972    16.5288     0.4707   155.5200    16.3733    -0.0004
  488    9.740   2097.10    16.9966     0.0784     0.0885     0.0974    17.0353     0.4617   155.8400    16.8794    -0.0003
  489    9.760   2098.26    17.5390     0.0814     0.0922     0.0976    17.5785     0.4652   156.1600    17.4223    -0.0002
  490    9.780   2099.38    18.0518     0.0853     0.0952     0.0978    18.0917     0.4731   156.4800    17.9352    -0.0002
  491    9.800   2100.52    18.6365     0.0887     0.0872     0.0980    18.6753     0.4771   156.8000    18.5185    -0.0003
  492    9.820   2101.63    19.1151     0.0920     0.0916     0.0982    19.1524     0.4814   157.1200    18.9953    -0.0005
  493    9.840   2102.63    19.1744     0.0941     0.0922     0.0984    19.2127     0.4903   157.4400    19.0552    -0.0004
  494    9.860   2103.74    18.8930     0.0967     0.0911     0.0986    18.9317     0.5078   157.7600    18.7740    -0.0003
  495    9.880   2104.88    18.6267     0.0959     0.0788     0.0988    18.6592     0.5120   158.0800    18.5011    -0.0012
  496    9.900   2106.07    18.2464     0.0936     0.0836     0.0990    18.2804     0.5122   158.4000    18.1220    -0.0010
  497    9.920   2107.14    17.8887     0.0927     0.0893     0.0992    17.9276     0.5178   158.7200    17.7689    -0.0004
  498    9.940   2108.24    17.4938     0.0950     0.1017     0.0994    17.5354     0.5421   159.0400    17.3764     0.0000
  499    9.960   2109.32    17.0963     0.0980     0.0981     0.0996    17.1356     0.5726   159.3600    16.9762    -0.0004
  500    9.980   2110.48    16.7712     0.0989     0.0999     0.0998    16.8135     0.5859   159.6800    16.6538     0.0001
  501   10.000   2111.57    16.5047     0.0969     0.0991     0.1000    16.5446     0.5826   160.0000    16.3846    -0.0003
  502   10.020   2112.69    16.2282     0.0975     0.0972     0.1002    16.2690     0.5980   160.3200    16.1087    -0.0002
  503   10.040   2113.76    15.9785     0.0976     0.1000     0.1004    16.0182     0.6102   160.6400    15.8576    -0.0004
  504   10.060   2114.85    15.8568     0.0995     0.0943     0.1006    15.8968     0.6261   160.9600    15.7358    -0.0003
  505   10.080   2116.03    15.8099     0.1013     0.0994     0.1008    15.8510     0.6398   161.2800    15.6897    -0.0002
  506   10.100   2117.10    15.7875     0.1030     0.0930     0.1010    15.8280     0.6522   161.6000    15.6664    -0.0003
  507   10.120   2118.25    15.7378     0.1045     0.0991     0.1012    15.7791     0.6642   161.9200    15.6172    -0.0002
  508   10.140   2119.30    15.7727     0.1055     0.0922     0.1014    15.8118     0.6690   162.2400    15.6496    -0.0005
  509   10.160   2120.41    15.8778     0.1071     0.0915     0.1016    15.9165     0.6748   162.5600    15.7539    -0.0006
  510   10.180   2126.54    15.9632     0.1085     0.0940     0.1018    16.0024     0.6812   162.8800    15.8395    -0.0005
  511   10.200   2138.25    16.0481     0.1111     0.0965     0.1020    16.0883     0.6975   163.2000    15.9251    -0.0004
  512   10.220   2149.09    16.1467     0.1151     0.0978     0.1022    16.1878     0.7197   163.5200    16.0243    -0.0003
  513   10.240   2150.28    16.3794     0.1184     0.0997     0.1024    16.4215     0.7263   163.8400    16.2576    -0.0001
  514   10.260   2151.40    16.5536     0.1204     0.0989     0.1026    16.5946     0.7307   164.1600    16.4304    -0.0003
  515   10.280   2152.53    16.6404     0.1212     0.0953     0.1028    16.6811     0.7294   164.4800    16.5167    -0.0003
  516   10.300   2153.63    16.5712     0.1229     0.0925     0.1030    16.6114     0.7405   164.8000    16.4466    -0.0004
  517   10.320   2154.74    16.4261     0.1229     0.0968     0.1032    16.4668     0.7466   165.1200    16.3017    -0.0004
  518   10.340   2155.89    16.3992     0.1227     0.0909     0.1034    16.4390     0.7484   165.4400    16.2735    -0.0005
  519   10.360   2156.99    16.6770     0.1207     0.0905     0.1036    16.7162     0.7241   165.7600    16.5504    -0.0006
  520   10.380   2158.08    17.2641     0.1189     0.1001     0.1038    17.3038     0.6904   166.0800    17.1377    -0.0006
  521   10.400   2159.21    17.8112     0.1199     0.0903     0.1040    17.8522     0.6738   166.4000    17.6858    -0.0004
  522   10.420   2160.28    18.1943     0.1199     0.0802     0.1042    18.2306     0.6620   166.7200    18.0639    -0.0010
  523   10.440   2161.45    18.5388     0.1212    -0.0223     0.1044    18.5489     0.6549   167.0400    18.3819    -0.0044
  524   10.460   2162.54    18.6612     0.1264    -0.0451     0.1046    18.6376     0.6793   167.3600    18.4702    -0.0087
  525   10.480   2163.65    18.7290     0.1316    -0.0144     0.1048    18.7190     0.7036   167.6800    18.5513    -0.0069
  526   10.500   2164.76    18.8472     0.1355     0.0292     0.1050    18.8555     0.7196   168.0000    18.6875    -0.0046
  527   10.520   2165.81    19.1240     0.1379     0.0482     0.1052    19.1437     0.7221   168.3200    18.9753    -0.0031
  528   10.540   2166.93    19.6066     0.1402     0.0748     0.1054    19.6370     0.7182   168.6400    19.4684    -0.0017
  529   10.560   2168.07    20.3840     0.1441     0.0888     0.1056    20.4200     0.7126   168.9600    20.2510    -0.0010
  530   10.580   2169.20    21.5491     0.1478     0.0894     0.1058    21.5874     0.6970   169.2800    21.4181    -0.0007
  531   10.600   2170.27    22.6989     0.1522     0.0851     0.1060    22.7340     0.6800   169.6000    22.5644    -0.0010
  532   10.620   2171.34    23.6489     0.1549     0.0898     0.1062    23.6865     0.6625   169.9200    23.5166    -0.0007
  533   10.640   2172.37    24.4135     0.1608     0.0903     0.1064    24.4505     0.6640   170.2400    24.2803    -0.0007
  534   10.660   2173.39    25.0346     0.1670     0.0912     0.1066    25.0732     0.6725   170.5600    24.9026    -0.0006
  535   10.680   2174.48    25.6383     0.1722     0.1065     0.1068    25.6835     0.6766   170.8800    25.5126     0.0000
  536   10.700   2175.56    26.1912     0.1763     0.0980     0.1070    26.2310     0.6785   171.2000    26.0598    -0.0005
  537   10.720   2176.57    26.7146     0.1842     0.0865     0.1072    26.7577     0.6937   171.5200    26.5862    -0.0002
  538   10.740   2177.63    27.2865     0.1844     0.0990     0.1074    27.3285     0.6795   171.8400    27.1567    -0.0003
  539   10.760   2178.66    27.5442     0.1748     0.0942     0.1076    27.5874     0.6354   172.1600    27.4153    -0.0002
  540   10.780   2179.71    27.5889     0.1646     0.1001     0.1078    27.6281     0.5965   172.4800    27.4557    -0.0005
  541   10.800   2180.79    27.6719     0.1524     0.0869     0.1080    27.7088     0.5519   172.8000    27.5360    -0.0007
  542   10.820   2181.83    28.1246     0.1437     0.0989     0.1082    28.1641     0.5136   173.1200    27.9910    -0.0005
  543   10.840   2182.90    28.7185     0.1376     0.0931     0.1084    28.7550     0.4816   173.4400    28.5816    -0.0008
  544   10.860   2183.98    29.4898     0.1316     0.0780     0.1086    29.5220     0.4475   173.7600    29.3483    -0.0011
  545   10.880   2185.06    30.3791     0.1314     0.0996     0.1088    30.4186     0.4334   174.0800    30.2446    -0.0005
  546   10.900   2186.11    31.0703     0.1342     0.0767     0.1090    31.1017     0.4326   174.4000    30.9273    -0.0011
  547   10.920   2187.15    31.8114     0.1374     0.0956     0.1092    31.8483     0.4323   174.7200    31.6736    -0.0007
  548   10.940   2188.30    32.9023     0.1363     0.1012     0.1094    32.9434     0.4165   175.0400    32.7684    -0.0004
  549   10.960   2189.41    34.1787     0.1356     0.1025     0.1096    34.2190     0.3983   175.3600    34.0436    -0.0004
  550   10.980   2190.55    35.7779     0.1359     0.1014     0.1098    35.8197     0.3840   175.6800    35.6440    -0.0003
  551   11.000   2191.61    36.9960     0.1374     0.0968     0.1100    37.0382     0.3742   176.0000    36.8622    -0.0003
  552   11.020   2192.67    37.4488     0.1403     0.0985     0.1102    37.4891     0.3754   176.3200    37.3128    -0.0004
  553   11.040   2193.77    37.7204     0.1439     0.1026     0.1104    37.7629     0.3818   176.6400    37.5863    -0.0002
  554   11.060   2194.83    37.8138     0.1459     0.1049     0.1106    37.8589     0.3853   176.9600    37.6819    -0.0001
  555   11.080   2195.88    37.6592     0.1447     0.1005     0.1108    37.7040     0.3844   177.2800    37.5267    -0.0001
  556   11.100   2196.96    37.6316     0.1386     0.1085     0.1110    37.6801     0.3681   177.6000    37.5025     0.0001
  557   11.120   2198.04    37.6369     0.1362     0.1096     0.1112    37.6846     0.3621   177.9200    37.5067     0.0001
  558   11.140   2199.12    37.9196     0.1394     0.1081     0.1114    37.9642     0.3686   178.2400    37.7860    -0.0001
  559   11.160   2200.13    38.6039     0.1401     0.1116     0.1116    38.6454     0.3641   178.5600    38.4668    -0.0003
  560   11.180   2201.21    39.1274     0.1438     0.1048     0.1118    39.1739     0.3684   178.8800    38.9950     0.0000
  561   11.200   2202.34    39.7908     0.1494     0.1034     0.1120    39.8325     0.3772   179.2000    39.6533    -0.0003
  562   11.220   2203.40    40.5783     0.1504     0.1035     0.1122    40.6219     0.3727   179.5200    40.4424    -0.0002
  563   11.240   2204.49    41.0543     0.1507     0.0940     0.1124    41.0955     0.3679   179.8400    40.9157    -0.0003
  564   11.260   2205.55    40.6748     0.1524     0.1046     0.1126    40.7143     0.3731   180.1600    40.5342    -0.0005
  565   11.280   2206.58    39.3708     0.1536     0.0946     0.1128    39.4102     0.3866   180.4800    39.2297    -0.0005
  566   11.300   2207.67    38.1169     0.1442     0.0981     0.1130    38.1609     0.3756   180.8000    37.9801    -0.0002
  567   11.320   2208.70    37.1596     0.1344     0.0937     0.1132    37.1997     0.3601   181.1200    37.0186    -0.0005
  568   11.340   2209.76    36.6946     0.1294     0.1024     0.1134    36.7397     0.3525   181.4400    36.5582    -0.0002
  569   11.360   2210.87    36.3622     0.1240     0.1025     0.1136    36.4061     0.3405   181.7600    36.2243    -0.0003
  570   11.380   2211.94    36.2396     0.1244     0.0921     0.1138    36.2770     0.3432   182.0800    36.0949    -0.0007
  571   11.400   2213.03    35.8872     0.1291     0.1108     0.1140    35.9301     0.3590   182.4000    35.7477    -0.0003
  572   11.420   2214.06    35.3731     0.1289     0.1216     0.1142    35.4182     0.3635   182.7200    35.2355    -0.0002
  573   11.440   2215.16    34.6683     0.1210     0.1073     0.1144    34.7114     0.3479   183.0400    34.5284    -0.0003
  574   11.460   2216.23    34.3969     0.1147     0.1054     0.1146    34.4429     0.3338   183.3600    34.2595    -0.0001
  575   11.480   2217.29    34.7673     0.1128     0.1076     0.1148    34.8143     0.3259   183.6800    34.6306    -0.0001
  576   11.500   2218.42    35.3589     0.1107     0.1092     0.1150    35.4083     0.3144   184.0000    35.2243     0.0001
  577   11.520   2219.46    35.8293     0.1140     0.1076     0.1152    35.8715     0.3188   184.3200    35.6872    -0.0004
  578   11.540   2220.52    36.1177     0.1182     0.1038     0.1154    36.1639     0.3284   184.6400    35.9793    -0.0001
  579   11.560   2221.58    36.0605     0.1156     0.1211     0.1156    36.1102     0.3203   184.9600    35.9253     0.0001
  580   11.580   2222.65    35.3860     0.1167     0.1142     0.1158    35.4362     0.3275   185.2800    35.2510     0.0001
  581   11.600   2223.71    34.8678     0.1165     0.1073     0.1160    34.9143     0.3331   185.6000    34.7287    -0.0001
  582   11.620   2224.82    34.5803     0.1151     0.1067     0.1162    34.6253     0.3325   185.9200    34.4394    -0.0003
  583   11.640   2225.88    34.5040     0.1194     0.0971     0.1164    34.5452     0.3457   186.2400    34.3590    -0.0005
  584   11.660   2226.92    34.3641     0.1220     0.1126     0.1166    34.4082     0.3538   186.5600    34.2216    -0.0003
  585   11.680   2227.95    33.7596     0.1147     0.1167     0.1168    33.8107     0.3370   186.8800    33.6239     0.0001
  586   11.700   2229.04    32.9882     0.1145     0.1065     0.1170    33.0368     0.3436   187.2000    32.8496     0.0000
  587   11.720   2230.05    32.4753     0.1080     0.1153     0.1172    32.5232     0.3316   187.5200    32.3357    -0.0001
  588   11.740   2231.10    31.8402     0.1142     0.1177     0.1174    31.8857     0.3566   187.8400    31.6979    -0.0003
  589   11.760   2232.16    31.2333     0.1189     0.1136     0.1176    31.2789     0.3784   188.1600    31.0908    -0.0003
  590   11.780   2233.21    30.4840     0.1004     0.1143     0.1178    30.5323     0.3263   188.4800    30.3438    -0.0001
  591   11.800   2234.21    29.3240     0.0870     0.1121     0.1180    29.3721     0.2934   188.8000    29.1833    -0.0001
  592   11.820   2235.30    28.4894     0.0770     0.1118     0.1182    28.5373     0.2684   189.1200    28.3482    -0.0001
  593   11.840   2236.35    28.9257     0.0700     0.1144     0.1184    28.9711     0.2441   189.4400    28.7817    -0.0004
  594   11.860   2237.45    30.1693     0.0684     0.1175     0.1186    30.2181     0.2297   189.7600    30.0284    -0.0001
  595   11.880   2238.53    31.1246     0.0712     0.1158     0.1188    31.1747     0.2300   190.0800    30.9846     0.0000
  596   11.900   2239.49    31.4345     0.0648     0.1098     0.1190    31.4810     0.2064   190.4000    31.2906    -0.0003
  597   11.920   2240.57    31.1265     0.0610     0.1079     0.1192    31.1777     0.1957   190.7200    30.9870     0.0001
  598   11.940   2241.61    30.8792     0.0611     0.1242     0.1194    30.9300     0.1981   191.0400    30.7390     0.0001
  599   11.960   2242.72    31.9393     0.0658     0.1231     0.1196    31.9861     0.2080   191.3600    31.7947    -0.0003
  600   11.980   2243.82    33.7930     0.0736     0.1152     0.1198    33.8366     0.2214   191.6800    33.6450    -0.0005
  601   12.000   2244.91    35.0880     0.0866     0.1227     0.1200    35.1341     0.2485   192.0000    34.9421    -0.0003
  602   12.020   2245.99    35.6174     0.0959     0.1182     0.1202    35.6623     0.2697   192.3200    35.4700    -0.0004
  603   12.040   2247.04    35.4897     0.1056     0.1267     0.1204    35.5414     0.2968   192.6400    35.3487     0.0001
  604   12.060   2248.07    35.2569     0.1172     0.1187     0.1206    35.3055     0.3320   192.9600    35.1126    -0.0001
  605   12.080   2249.09    34.4142     0.1224     0.1287     0.1208    34.4707     0.3541   193.2800    34.2774     0.0004
  606   12.100   2250.14    33.7091     0.1270     0.1124     0.1210    33.7553     0.3757   193.6000    33.5617    -0.0003
  607   12.120   2251.23    33.1850     0.1301     0.1176     0.1212    33.2385     0.3893   193.9200    33.0446     0.0002
  608   12.140   2252.26    32.6969     0.1333     0.1294     0.1214    32.7446     0.4053   194.2400    32.5503    -0.0002
  609   12.160   2253.35    32.1877     0.1389     0.1181     0.1216    32.2347     0.4287   194.5600    32.0401    -0.0003
  610   12.180   2259.92    31.6811     0.1468     0.1211     0.1218    31.7321     0.4593   194.8800    31.5372     0.0000
  611   12.200   2274.10    30.9996     0.1519     0.1198     0.1220    31.0501     0.4753   195.2000    30.8549    -0.0001
  612   12.220   2285.28    30.3035     0.1495     0.1190     0.1222    30.3531     0.4913   195.5200    30.1576    -0.0001
  613   12.240   2286.38    29.6880     0.1430     0.1297     0.1224    29.7408     0.4801   195.8400    29.5450     0.0001
  614   12.260   2287.50    29.2886     0.1368     0.1175     0.1226    29.3414     0.4655   196.1600    29.1452     0.0001
  615   12.280   2288.56    29.0795     0.1342     0.1188     0.1228    29.1311     0.4609   196.4800    28.9346     0.0000
  616   12.300   2289.62    29.1873     0.1273     0.1177     0.1230    29.2417     0.4371   196.8000    29.0449     0.0002
  617   12.320   2290.68    29.5524     0.1251     0.1194     0.1232    29.6048     0.4243   197.1200    29.4077     0.0001
  618   12.340   2291.75    29.6501     0.1309     0.1297     0.1234    29.7027     0.4415   197.4400    29.5052     0.0001
  619   12.360   2292.84    29.7967     0.1384     0.1241     0.1236    29.8492     0.4658   197.7600    29.6514     0.0000
  620   12.380   2293.91    30.0193     0.1440     0.1258     0.1238    30.0731     0.4812   198.0800    29.8750     0.0001
  621   12.400   2294.97    30.1168     0.1470     0.1271     0.1240    30.1705     0.4875   198.4000    29.9721     0.0001
  622   12.420   2295.98    29.9307     0.1467     0.1349     0.1242    29.9874     0.4882   198.7200    29.7887     0.0004
  623   12.440   2297.05    29.4660     0.1378     0.1321     0.1244    29.5191     0.4664   199.0400    29.3201     0.0001
  624   12.460   2298.14    29.3191     0.1320     0.1305     0.1246    29.3717     0.4502   199.3600    29.1723     0.0000
  625   12.480   2299.14    29.4174     0.1279     0.1296     0.1248    29.4701     0.4352   199.6800    29.2704     0.0000
  626   12.500   2300.17    30.0724     0.1250     0.1268     0.1250    30.1252     0.4163   200.0000    29.9252     0.0000
  627   12.520   2301.25    31.3487     0.1252     0.1209     0.1252    31.3984     0.4001   200.3200    31.1981    -0.0002
  628   12.540   2302.40    32.8951     0.1293     0.1261     0.1254    32.9482     0.3947   200.6400    32.7476     0.0000
  629   12.560   2303.52    33.8475     0.1344     0.1271     0.1256    33.9002     0.3988   200.9600    33.6992     0.0000
  630   12.580   2304.63    34.4188     0.1379     0.1325     0.1258    34.4728     0.4015   201.2800    34.2715     0.0001
  631   12.600   2305.69    34.5028     0.1427     0.1394     0.1260    34.5575     0.4132   201.6000    34.3559     0.0001
  632   12.620   2306.77    34.3247     0.1458     0.1300     0.1262    34.3799     0.4246   201.9200    34.1780     0.0002
  633   12.640   2307.84    34.5197     0.1473     0.1258     0.1264    34.5738     0.4270   202.2400    34.3715     0.0001
  634   12.660   2308.90    34.8498     0.1501     0.1213     0.1266    34.9022     0.4320   202.5600    34.6997    -0.0001
  635   12.680   2310.01    35.2042     0.1553     0.1212     0.1268    35.2533     0.4416   202.8800    35.0504    -0.0003
  636   12.700   2311.07    35.1099     0.1661     0.1292     0.1270    35.1623     0.4722   203.2000    34.9591    -0.0001
  637   12.720   2312.03    34.5331     0.1702     0.1267     0.1272    34.5866     0.4913   203.5200    34.3831     0.0000
  638   12.740   2313.09    33.7122     0.1709     0.1354     0.1274    33.7656     0.5048   203.8400    33.5618     0.0000
  639   12.760   2314.15    32.7056     0.1682     0.1277     0.1276    32.7573     0.5103   204.1600    32.5532    -0.0001
  640   12.780   2315.29    31.8284     0.1644     0.1300     0.1278    31.8797     0.5141   204.4800    31.6752    -0.0002
  641   12.800   2316.35    31.4833     0.1569     0.1314     0.1280    31.5374     0.4980   204.8000    31.3326     0.0000
  642   12.820   2317.40    31.7244     0.1499     0.1282     0.1282    31.7795     0.4737   205.1200    31.5744     0.0001
  643   12.840   2318.46    32.2688     0.1439     0.1297     0.1284    32.3160     0.4476   205.4400    32.1105    -0.0005
  644   12.860   2319.48    32.8776     0.1447     0.1284     0.1286    32.9316     0.4429   205.7600    32.7258     0.0000
  645   12.880   2320.53    33.3915     0.1485     0.1333     0.1288    33.4469     0.4464   206.0800    33.2409     0.0001
  646   12.900   2321.59    33.7556     0.1482     0.1347     0.1290    33.8107     0.4399   206.4000    33.6043     0.0001
  647   12.920   2322.71    33.8162     0.1441     0.1223     0.1292    33.8684     0.4258   206.7200    33.6617    -0.0001
  648   12.940   2323.81    33.2539     0.1398     0.1311     0.1294    33.3063     0.4171   207.0400    33.0993    -0.0001
  649   12.960   2324.85    32.3809     0.1344     0.1277     0.1296    32.4347     0.4105   207.3600    32.2274     0.0000
  650   12.980   2325.89    31.2585     0.1336     0.1285     0.1298    31.3142     0.4232   207.6800    31.1066     0.0001
  651   13.000   2326.90    30.0097     0.1316     0.1272     0.1300    30.0606     0.4314   208.0000    29.8526    -0.0003
  652   13.020   2327.97    28.9246     0.1234     0.1226     0.1302    28.9787     0.4219   208.3200    28.7703    -0.0001
  653   13.040   2329.04    28.1468     0.1122     0.1363     0.1304    28.2016     0.3949   208.6400    27.9930     0.0000
  654   13.060   2330.05    27.7548     0.1053     0.1240     0.1306    27.8038     0.3771   208.9600    27.5948    -0.0005
  655   13.080   2331.11    27.4257     0.1020     0.1329     0.1308    27.4849     0.3703   209.2800    27.2757     0.0004
  656   13.100   2332.06    27.2386     0.1064     0.1248     0.1310    27.2924     0.3897   209.6000    27.0828    -0.0001
  657   13.120   2333.14    27.1327     0.1080     0.1372     0.1312    27.1902     0.3980   209.9200    26.9802     0.0002
  658   13.140   2334.20    26.8331     0.1092     0.1196     0.1314    26.8862     0.4057   210.2400    26.6760    -0.0002
  659   13.160   2335.27    26.1718     0.1078     0.1265     0.1316    26.2216     0.4073   210.5600    26.0111    -0.0005
  660   13.180   2336.33    25.1400     0.1024     0.1303     0.1318    25.1938     0.3995   210.8800    24.9830    -0.0001
  661   13.200   2337.28    23.8944     0.0950     0.1298     0.1320    23.9496     0.3918   211.2000    23.7384     0.0000
  662   13.220   2338.28    22.6728     0.0880     0.1318     0.1322    22.7284     0.3804   211.5200    22.5169     0.0000
  663   13.240   2339.29    21.7794     0.0852     0.1392     0.1324    21.8359     0.3859   211.8400    21.6241     0.0001
  664   13.260   2340.43    21.1904     0.0828     0.1366     0.1326    21.2485     0.3861   212.1600    21.0363     0.0003
  665   13.280   2341.43    20.4051     0.0772     0.1344     0.1328    20.4621     0.3723   212.4800    20.2496     0.0001
  666   13.300   2342.47    19.1574     0.0700     0.1360     0.1330    19.2142     0.3583   212.8000    19.0014     0.0001
  667   13.320   2343.49    17.2620     0.0608     0.1337     0.1332    17.3182     0.3438   213.1200    17.1051     0.0000
  668   13.340   2344.45    15.1817     0.0533     0.1346     0.1334    15.2392     0.3462   213.4400    15.0257     0.0002
  669   13.360   2345.55    12.7698     0.0537     0.1404     0.1336    12.8294     0.4128   213.7600    12.6156     0.0007
  670   13.380   2346.61    10.9834     0.0496     0.1330     0.1338    11.0417     0.4438   214.0800    10.8276     0.0005
  671   13.400   2347.72     9.1474     0.0507     0.1409     0.1340     9.2053     0.5413   214.4000     8.9909     0.0004
  672   13.420   2348.84     7.6758     0.0571     0.1425     0.1342     7.7351     0.7279   214.7200     7.5204     0.0009
  673   13.440   2349.96     6.5592     0.0582     0.1427     0.1344     6.6190     0.8669   215.0400     6.4040     0.0013
  674   13.460   2351.01     5.4005     0.0602     0.1410     0.1346     5.4587     1.0632   215.3600     5.2433     0.0008
  675   13.480   2352.11     4.4932     0.0636     0.1366     0.1348     4.5508     1.3561   215.6800     4.3351     0.0005
  676   13.500   2353.20     3.5972     0.0643     0.1507     0.1350     3.6596     1.6895   216.0000     3.4436     0.0040
  677   13.520   2354.25     2.7420     0.0613     0.1603     0.1352     2.8064     2.1700   216.3200     2.5901     0.0071
  678   13.540   2355.36     2.3903     0.0541     0.2090     0.1354     2.4702     2.2195   216.6400     2.2535     0.0244
  679   13.560   2356.37     2.1150     0.0454     0.2491     0.1356     2.2127     2.1248   216.9600     1.9957     0.0487
  680   13.580   2357.45     1.8410     0.0496     0.2995     0.1358     1.9624     2.6517   217.2800     1.7452     0.0880
  681   13.600   2358.52     1.6574     0.0555     0.3796     0.1360     1.8101     3.2843   217.6000     1.5925     0.1431
  682   13.620   2359.69     1.7029     0.0559     0.4070     0.1362     1.8696     3.3170   217.9200     1.6517     0.1578
  683   13.640   2360.74     1.7566     0.0537     0.3511     0.1364     1.9153     3.0727   218.2400     1.6971     0.1423
  684   13.660   2361.85     1.8768     0.0483     0.3002     0.1366     2.0094     2.6610   218.5600     1.7909     0.1003
  685   13.680   2362.89     2.2808     0.0490     0.2204     0.1368     2.3846     2.3331   218.8800     2.1657     0.0516
  686   13.700   2363.86     2.6565     0.0581     0.1386     0.1370     2.7280     2.2165   219.2000     2.5088     0.0134
  687   13.720   2364.95     2.8557     0.0647     0.0621     0.1372     2.8869     2.2843   219.5200     2.6674    -0.0235
  688   13.740   2366.14     2.9269     0.0675     0.0566     0.1374     2.9481     2.3083   219.8400     2.7282    -0.0319
  689   13.760   2367.15     2.9137     0.0602     0.0104     0.1376     2.9235     2.0567   220.1600     2.7034    -0.0423
  690   13.780   2368.14     2.7232     0.0618     0.0419     0.1378     2.7284     2.2540   220.4800     2.5079    -0.0499
  691   13.800   2369.29     2.3231     0.0635     0.1290     0.1380     2.3657     2.6830   220.8000     2.1449    -0.0166
  692   13.820   2370.42     1.9497     0.0664     0.1864     0.1382     2.0172     3.3496   221.1200     1.7961     0.0126
  693   13.840   2371.53     1.7573     0.0688     0.3786     0.1384     1.9006     3.8524   221.4400     1.6791     0.1207
  694   13.860   2372.59     1.8568     0.0662     0.4373     0.1386     2.0470     3.5975   221.7600     1.8252     0.1722
  695   13.880   2373.66     2.0486     0.0589     0.3506     0.1388     2.2221     2.9376   222.0800     2.0000     0.1375
  696   13.900   2374.73     2.1974     0.0574     0.2011     0.1390     2.3014     2.6116   222.4000     2.0790     0.0521
  697   13.920   2375.82     2.0510     0.0623     0.2173     0.1392     2.1417     2.9611   222.7200     1.9190     0.0401
  698   13.940   2376.91     1.8773     0.0643     0.2625     0.1394     1.9697     3.3827   223.0400     1.7467     0.0462
  699   13.960   2378.00     1.8744     0.0623     0.2910     0.1396     2.0054     3.3318   223.3600     1.7820     0.0967
  700   13.980   2379.03     1.8896     0.0523     0.2671     0.1398     2.0040     2.7615   223.6800     1.7803     0.0744
  701   14.000   2380.14     1.7766     0.0460     0.2804     0.1400     1.8819     2.5567   224.0000     1.6579     0.0668
  702   14.020   2381.21     1.6628     0.0483     0.3329     0.1402     1.7974     2.8746   224.3200     1.5731     0.1146
  703   14.040   2382.32     1.5929     0.0476     0.4159     0.1404     1.7557     3.0033   224.6400     1.5310     0.1614
  704   14.060   2383.38     1.5683     0.0374     0.4174     0.1406     1.7478     2.3539   224.9600     1.5229     0.1883
  705   14.080   2384.44     1.3818     0.0412     0.3659     0.1408     1.5436     2.8919   225.2800     1.3183     0.1853
  706   14.100   2385.55     1.3024     0.0449     0.4237     0.1410     1.4658     3.4300   225.6000     1.2402     0.2002
  707   14.120   2386.63     1.1793     0.0398     0.5159     0.1412     1.3847     3.2018   225.9200     1.1588     0.3005
  708   14.140   2387.67     1.1261     0.0419     0.5355     0.1414     1.3509     3.6971   226.2400     1.1246     0.3502
  709   14.160   2388.76     1.1411     0.0440     0.6253     0.1416     1.3873     3.8992   226.5600     1.1608     0.3829
  710   14.180   2398.73     1.1843     0.0431     0.5871     0.1418     1.4361     4.0276   226.8800     1.2093     0.3877
  711   14.200   2412.76     1.3675     0.0441     0.5512     0.1420     1.6042     4.1215   227.2000     1.3770     0.3123
  712   14.220   2419.21     1.4322     0.0413     0.5056     0.1422     1.6354     2.8722   227.5200     1.4078     0.2427
  713   14.240   2420.35     1.3948     0.0427     0.5308     0.1424     1.6224     3.0342   227.8400     1.3946     0.2866
  714   14.260   2421.42     1.3436     0.0542     0.6003     0.1426     1.5744     4.0264   228.1600     1.3462     0.3021
  715   14.280   2422.49     1.5525     0.0702     0.6515     0.1428     1.8251     4.7863   228.4800     1.5966     0.3173
  716   14.300   2423.53     1.9349     0.0672     0.4848     0.1430     2.1781     3.6826   228.8000     1.9493     0.2239
  717   14.320   2424.61     2.0542     0.0579     0.2607     0.1432     2.1903     2.8219   229.1200     1.9612     0.0918
  718   14.340   2425.74     1.7668     0.0618     0.2260     0.1434     1.8556     3.3569   229.4400     1.6261     0.0418
  719   14.360   2426.76     1.6395     0.0836     0.3362     0.1436     1.7736     5.1422   229.7600     1.5439     0.1137
  720   14.380   2427.82     1.9809     0.0922     0.4584     0.1438     2.1467     4.8151   230.0800     1.9167     0.1297
  721   14.400   2428.85     2.5425     0.0821     0.3533     0.1440     2.7241     3.3354   230.4000     2.4937     0.1168
  722   14.420   2429.93     2.7290     0.0670     0.1275     0.1442     2.8013     2.4435   230.7200     2.5706     0.0107
  723   14.440   2431.00     2.3792     0.0688     0.1909     0.1444     2.4442     2.7933   231.0400     2.2132     0.0048
  724   14.460   2432.12     2.1263     0.0775     0.2555     0.1446     2.2267     3.5871   231.3600     1.9953     0.0474
  725   14.480   2433.22     2.0525     0.0811     0.3312     0.1448     2.1803     3.9874   231.6800     1.9486     0.0818
  726   14.500   2434.32     2.1749     0.0758     0.4681     0.1450     2.3689     3.5406   232.0000     2.1369     0.1481
  727   14.520   2435.34     2.4547     0.0780     0.3362     0.1452     2.6144     3.2544   232.3200     2.3821     0.0992
  728   14.540   2436.38     2.5050     0.0694     0.2749     0.1454     2.6210     2.7579   232.6400     2.3884     0.0547
  729   14.560   2437.48     2.4192     0.0781     0.2589     0.1456     2.5318     3.2269   232.9600     2.2989     0.0533
  730   14.580   2438.59     2.6154     0.0882     0.2124     0.1458     2.7163     3.4491   233.2800     2.4830     0.0380
  731   14.600   2439.66     2.7896     0.0903     0.2418     0.1460     2.8823     3.2702   233.6000     2.6487     0.0282
  732   14.620   2440.76     2.8967     0.0903     0.1827     0.1462     2.9857     3.0948   233.9200     2.7518     0.0238
  733   14.640   2441.78     2.8273     0.0832     0.0383     0.1464     2.8556     2.9408   234.2400     2.6214    -0.0302
  734   14.660   2442.83     2.6540     0.0731     0.1005     0.1466     2.6823     2.6604   234.5600     2.4478    -0.0321
  735   14.680   2443.97     2.1303     0.0705     0.1736     0.1468     2.1827     3.1626   234.8800     1.9478    -0.0113
  736   14.700   2445.03     1.8805     0.0769     0.4032     0.1470     2.0183     4.0041   235.2000     1.7831     0.1016
  737   14.720   2446.03     1.8155     0.0732     0.5515     0.1472     2.0256     4.0429   235.5200     1.7901     0.1971
  738   14.740   2447.18     2.0948     0.0644     0.4412     0.1474     2.3200     3.1711   235.8400     2.0842     0.1876
  739   14.760   2448.19     2.2704     0.0599     0.1928     0.1476     2.3767     2.6415   236.1600     2.1406     0.0492
  740   14.780   2449.26     2.3119     0.0610     0.2127     0.1478     2.3784     2.6282   236.4800     2.1419     0.0049
  741   14.800   2450.35     2.3023     0.0771     0.2840     0.1480     2.4209     3.4132   236.8000     2.1841     0.0614
  742   14.820   2451.49     2.9762     0.0827     0.1803     0.1482     3.0572     2.9252   237.1200     2.8201     0.0161
  743   14.840   2452.58     3.3565     0.0704     0.0709     0.1484     3.4077     2.1823   237.4400     3.1703    -0.0082
  744   14.860   2453.61     3.2781     0.0663    -0.0538     0.1486     3.2620     1.9694   237.7600     3.0243    -0.0619
  745   14.880   2454.66     2.8939     0.0554    -0.0412     0.1488     2.8774     1.8684   238.0800     2.6393    -0.0713
  746   14.900   2455.74     2.5724     0.0502     0.0251     0.1490     2.5726     1.9090   238.4000     2.3342    -0.0636
  747   14.920   2456.83     2.1924     0.0451     0.1254     0.1492     2.2295     1.9696   238.7200     1.9908    -0.0303
  748   14.940   2457.89     1.8057     0.0404     0.2643     0.1494     1.8988     2.1449   239.0400     1.6597     0.0442
  749   14.960   2458.95     1.5222     0.0392     0.3689     0.1496     1.6617     2.5035   239.3600     1.4224     0.1287
  750   14.980   2459.99     1.3844     0.0407     0.5130     0.1498     1.5728     2.8721   239.6800     1.3332     0.2244
  751   15.000   2461.07     1.5406     0.0386     0.5939     0.1500     1.7784     2.6078   240.0000     1.5384     0.2706
  752   15.020   2462.16     1.8568     0.0406     0.5460     0.1502     2.1051     2.2802   240.3200     1.8648     0.2371
  753   15.040   2463.24     2.1665     0.0416     0.3650     0.1504     2.3473     1.9775   240.6400     2.1066     0.1333
  754   15.060   2464.30     2.3191     0.0335     0.2860     0.1506     2.4457     1.4479   240.9600     2.2048     0.0685
  755   15.080   2465.35     2.2052     0.0322     0.2663     0.1508     2.3197     1.4328   241.2800     2.0785     0.0586
  756   15.100   2466.38     1.9514     0.0360     0.3486     0.1510     2.0789     1.7995   241.6000     1.8373     0.0835
  757   15.120   2467.48     1.6127     0.0353     0.5120     0.1512     1.8037     2.1106   241.9200     1.5618     0.1945
  758   15.140   2468.54     1.4246     0.0369     0.6012     0.1514     1.6797     2.5714   242.2400     1.4375     0.3173
  759   15.160   2469.64     1.4333     0.0365     0.6302     0.1516     1.6899     2.5563   242.5600     1.4473     0.3173
  760   15.180   2470.69     1.5850     0.0403     0.6445     0.1518     1.8571     2.5915   242.8800     1.6142     0.3075
  761   15.200   2471.78     1.8302     0.0431     0.5786     0.1520     2.0811     2.4205   243.2000     1.8379     0.2427
  762   15.220   2472.84     2.1595     0.0593     0.5421     0.1522     2.3960     2.8345   243.5200     2.1525     0.1912
  763   15.240   2473.94     2.5757     0.0522     0.3488     0.1524     2.7628     2.0820   243.8400     2.5189     0.1167
  764   15.260   2475.00     2.8746     0.0527     0.1724     0.1526     2.9579     1.8544   244.1600     2.7137     0.0169
  765   15.280   2476.07     2.9881     0.0596     0.1759     0.1528     3.0597     2.0010   244.4800     2.8153     0.0063
  766   15.300   2477.17     2.8416     0.0487     0.2817     0.1530     2.9391     1.7020   244.8000     2.6943     0.0295
  767   15.320   2478.28     2.7934     0.0528     0.1689     0.1532     2.8900     1.8818   245.1200     2.6449     0.0288
  768   15.340   2479.34     2.6281     0.0566     0.1419     0.1534     2.6835     2.1263   245.4400     2.4380    -0.0088
  769   15.360   2480.38     2.3910     0.0601     0.2128     0.1536     2.4676     2.4971   245.7600     2.2219     0.0130
  770   15.380   2481.46     2.1614     0.0636     0.3090     0.1538     2.2710     2.9200   246.0800     2.0249     0.0530
  771   15.400   2482.62     2.3241     0.0602     0.2524     0.1540     2.4565     2.6383   246.4000     2.2101     0.0734
  772   15.420   2484.65     2.2854     0.0623     0.2028     0.1542     2.3951     2.9772   246.7200     2.1484     0.0529
  773   15.440   2485.77     2.7250     0.0551     0.2139     0.1544     2.8105     1.9981   247.0400     2.5635     0.0193
  774   15.460   2486.84     2.4553     0.0515     0.2837     0.1546     2.5599     2.0522   247.3600     2.3125     0.0410
  775   15.480   2487.94     2.1741     0.0566     0.3093     0.1548     2.3203     2.5740   247.6800     2.0726     0.0933
  776   15.500   2489.06     2.4129     0.0655     0.3504     0.1550     2.5293     2.8287   248.0000     2.2813     0.0533
  777   15.520   2490.09     3.1976     0.0766     0.3182     0.1552     3.3727     2.5548   248.3200     3.1244     0.0847
  778   15.540   2491.16     3.7325     0.0842     0.0282     0.1554     3.7950     2.2759   248.6400     3.5464    -0.0019
  779   15.560   2492.20     3.5815     0.0727    -0.0132     0.1556     3.5755     1.9782   248.9600     3.3265    -0.0511
  780   15.580   2493.29     3.0727     0.0676     0.0238     0.1558     3.0755     2.1283   249.2800     2.8262    -0.0527
  781   15.600   2494.39     2.5401     0.0664     0.0581     0.1560     2.5584     2.5136   249.6000     2.3088    -0.0487
  782   15.620   2495.48     2.1415     0.0648     0.1507     0.1562     2.1776     2.9135   249.9200     1.9276    -0.0365
  783   15.640   2496.51     1.6233     0.0573     0.3272     0.1564     1.7274     3.3372   250.2400     1.4771     0.0622
  784   15.660   2497.57     1.3022     0.0512     0.4685     0.1566     1.4877     3.8056   250.5600     1.2372     0.2306
  785   15.680   2498.63     1.2752     0.0425     0.5518     0.1568     1.4896     3.3225   250.8800     1.2387     0.2854
  786   15.700   2499.72     1.3186     0.0482     0.5856     0.1570     1.5546     3.6902   251.2000     1.3034     0.3106
  787   15.720   2500.81     1.4685     0.0497     0.6312     0.1572     1.7401     3.4945   251.5200     1.4885     0.3293
  788   15.740   2501.88     1.6338     0.0532     0.5853     0.1574     1.8824     3.3294   251.8400     1.6306     0.2666
  789   15.760   2502.94     1.7700     0.0648     0.4535     0.1576     2.0039     3.6872   252.1600     1.7517     0.2279
  790   15.780   2504.01     1.7838     0.0622     0.2771     0.1578     1.9166     3.4883   252.4800     1.6641     0.0951
  791   15.800   2505.15     1.9649     0.0661     0.3119     0.1580     2.0770     3.4411   252.8000     1.8242     0.0594
  792   15.820   2506.18     2.4589     0.1030     0.4099     0.1582     2.6260     4.5010   253.1200     2.3729     0.1016
  793   15.840   2507.26     3.1644     0.1145     0.3600     0.1584     3.3184     3.6258   253.4400     3.0650     0.0680
  794   15.860   2508.32     3.3313     0.1137     0.2901     0.1586     3.4723     3.4354   253.7600     3.2186     0.0552
  795   15.880   2509.41     3.1586     0.1079     0.0157     0.1588     3.1941     3.4022   254.0800     2.9401    -0.0260
  796   15.900   2510.49     2.8313     0.0947     0.0778     0.1590     2.8408     3.3101   254.4000     2.5864    -0.0527
  797   15.920   2511.59     2.2372     0.0833     0.2467     0.1592     2.3134     3.6688   254.7200     2.0587     0.0109
  798   15.940   2512.68     2.3197     0.0752     0.6198     0.1594     2.5653     3.4315   255.0400     2.3102     0.1846
  799   15.960   2513.79     3.5271     0.0561     0.5598     0.1596     3.7501     1.7287   255.3600     3.4947     0.1070
  800   15.980   2514.88     6.3468     0.0557     0.2096     0.1598     6.5204     0.9748   255.6800     6.2647     0.0434
  801   16.000   2515.99     8.4679     0.0697    -0.0708     0.1600     8.4711     0.8483   256.0000     8.2151    -0.0185
  802   16.020   2517.08     7.9528     0.0917    -0.1030     0.1602     7.9084     1.3338   256.3200     7.6521    -0.0348
  803   16.040   2518.15     6.1450     0.1150    -0.0572     0.1604     6.1072     1.9553   256.6400     5.8506    -0.0427
  804   16.060   2519.20     5.0720     0.1337     0.0402     0.1606     5.0730     2.5696   256.9600     4.8161    -0.0327
  805   16.080   2520.30     4.2088     0.1240     0.1332     0.1608     4.2514     2.7762   257.2800     3.9942    -0.0145
  806   16.100   2521.36     3.2425     0.1053     0.1417     0.1610     3.3010     3.0445   257.6000     3.0434    -0.0071
  807   16.120   2525.93     2.6326     0.0760     0.2346     0.1612     2.7121     2.6937   257.9200     2.4542     0.0237
  808   16.140   2537.05     2.0920     0.0693     0.3663     0.1614     2.2268     2.4540   258.2400     1.9685     0.1110
  809   16.160   2548.18     1.5514     0.0798     0.5753     0.1616     1.7414     3.8933   258.5600     1.4829     0.1984
  810   16.180   2549.61     1.6169     0.0693     0.7980     0.1618     1.9201     4.4182   258.8800     1.6612     0.3369
  811   16.200   2550.67     2.0777     0.0541     0.6616     0.1620     2.4045     2.7491   259.2000     2.1453     0.2882
  812   16.220   2551.74     2.3758     0.0488     0.2191     0.1622     2.5252     2.1155   259.5200     2.2657     0.0860
  813   16.240   2552.77     2.4453     0.0575     0.1544     0.1624     2.5141     2.3259   259.8400     2.2542     0.0004
  814   16.260   2553.83     2.0551     0.0679     0.2064     0.1626     2.1420     3.1504   260.1600     1.8819     0.0239
  815   16.280   2554.88     1.8372     0.0618     0.2065     0.1628     1.9252     3.3223   260.4800     1.6648     0.0282
  816   16.300   2556.03     1.5948     0.0458     0.3690     0.1630     1.7248     2.7544   260.8000     1.4640     0.1005
  817   16.320   2557.09     1.8064     0.0457     0.2479     0.1632     1.9289     2.6144   261.1200     1.6678     0.0769
  818   16.340   2558.14     1.4811     0.0536     0.2916     0.1634     1.5910     3.4640   261.4400     1.3296     0.0746
  819   16.360   2559.20     1.8167     0.0567     0.5269     0.1636     2.0100     3.2676   261.7600     1.7483     0.1686
  820   16.380   2560.24     2.4190     0.0511     0.5594     0.1638     2.6571     2.1539   262.0800     2.3950     0.1684
  821   16.400   2561.33     2.2019     0.0390     0.1391     0.1640     2.3004     1.7263   262.4000     2.0380     0.0309
  822   16.420   2562.48     1.7791     0.0396     0.1958     0.1642     1.8388     2.1473   262.7200     1.5760    -0.0140
  823   16.440   2563.55     1.5357     0.0397     0.1955     0.1644     1.6240     2.4855   263.0400     1.3610     0.0337
  824   16.460   2564.62     1.3060     0.0286     0.2403     0.1646     1.3983     2.1056   263.3600     1.1350     0.0489
  825   16.480   2565.70     1.1351     0.0194     0.4456     0.1648     1.2900     1.6625   263.6800     1.0263     0.1987
  826   16.500   2566.81     1.0811     0.0171     0.5730     0.1650     1.3079     1.5750   264.0000     1.0439     0.3590
  827   16.520   2567.87     1.1115     0.0151     0.6457     0.1652     1.3742     1.3739   264.3200     1.1098     0.4145
  828   16.540   2568.92     1.1150     0.0156     0.6680     0.1654     1.4015     1.3810   264.6400     1.1369     0.4547
  829   16.560   2569.96     1.0953     0.0159     0.5969     0.1656     1.3512     1.4610   264.9600     1.0863     0.4085
  830   16.580   2571.03     1.0329     0.0152     0.5681     0.1658     1.2708     1.4543   265.2800     1.0055     0.3984
  831   16.600   2572.09     0.9870     0.0222     0.6594     0.1660     1.2529     2.2395   265.6000     0.9873     0.4730
  832   16.620   2573.05     1.0389     0.0287     0.7001     0.1662     1.3252     2.7816   265.9200     1.0592     0.4866
  833   16.640   2574.16     1.1421     0.0269     0.7278     0.1664     1.4464     2.3712   266.2400     1.1801     0.4729
  834   16.660   2575.24     1.1959     0.0199     0.7221     0.1666     1.4999     1.6654   266.5600     1.2333     0.4517
  835   16.680   2576.39     1.2711     0.0169     0.4502     0.1668     1.5178     1.3483   266.8800     1.2509     0.3357
  836   16.700   2577.47     1.1511     0.0306     0.3885     0.1670     1.3040     2.6129   267.2000     1.0368     0.1902
  837   16.720   2578.55     1.2342     0.0522     0.5387     0.1672     1.4490     4.4341   267.5200     1.1815     0.2921
  838   16.740   2579.66     2.1177     0.0504     0.5411     0.1674     2.3440     2.6286   267.8400     2.0762     0.1795
  839   16.760   2580.69     2.5280     0.0429     0.2584     0.1676     2.7002     1.7345   268.1600     2.4320     0.1000
  840   16.780   2581.68     2.3533     0.0558     0.0967     0.1678     2.4001     2.3273   268.4800     2.1316    -0.0267
  841   16.800   2582.74     2.0418     0.0646     0.2055     0.1680     2.1075     3.1248   268.8000     1.8387    -0.0058
  842   16.820   2583.89     1.7706     0.0683     0.2723     0.1682     1.8588     3.7944   269.1200     1.5896     0.0264
  843   16.840   2584.97     1.5830     0.0586     0.3259     0.1684     1.7355     3.6281   269.4400     1.4660     0.1328
  844   16.860   2586.07     1.6425     0.0443     0.2233     0.1686     1.7404     2.7464   269.7600     1.4706     0.0439
  845   16.880   2587.14     1.3504     0.0393     0.2953     0.1688     1.4554     2.7661   270.0800     1.1853     0.0691
  846   16.900   2588.20     1.0772     0.0392     0.3875     0.1690     1.2196     3.3860   270.4000     0.9492     0.1814
  847   16.920   2589.28     0.9086     0.0275     0.4740     0.1692     1.0858     2.9054   270.7200     0.8151     0.3109
  848   16.940   2590.32     0.8551     0.0189     0.5458     0.1694     1.0775     2.2101   271.0400     0.8065     0.4464
  849   16.960   2591.41     0.8833     0.0140     0.5853     0.1696     1.1232     1.6037   271.3600     0.8519     0.4715
  850   16.980   2592.45     0.9022     0.0128     0.6217     0.1698     1.1576     1.4138   271.6800     0.8859     0.4946
  851   17.000   2593.45     0.8781     0.0134     0.6603     0.1700     1.1511     1.5207   272.0000     0.8791     0.5459
  852   17.020   2594.50     0.8558     0.0137     0.6732     0.1702     1.1360     1.5978   272.3200     0.8637     0.5754
  853   17.040   2595.60     0.8357     0.0137     0.6949     0.1704     1.1233     1.6329   272.6400     0.8507     0.6047
  854   17.060   2596.76     0.8425     0.0133     0.7255     0.1706     1.1403     1.5817   272.9600     0.8673     0.6207
  855   17.080   2597.82     0.8583     0.0141     0.7463     0.1708     1.1712     1.6554   273.2800     0.8979     0.6395
  856   17.100   2598.90     0.8757     0.0141     0.7625     0.1710     1.1940     1.6035   273.6000     0.9204     0.6376
  857   17.120   2599.84     0.8995     0.0141     0.7656     0.1712     1.2202     1.5823   273.9200     0.9463     0.6261
  858   17.140   2600.95     0.9358     0.0148     0.7817     0.1714     1.2614     1.6015   274.2400     0.9872     0.6119
  859   17.160   2602.08     0.9735     0.0162     0.7494     0.1716     1.2986     1.6894   274.5600     1.0240     0.5882
  860   17.180   2603.14     0.9806     0.0163     0.7644     0.1718     1.2901     1.6635   274.8800     1.0153     0.5568
  861   17.200   2604.20     0.9903     0.0167     0.7989     0.1720     1.3222     1.7011   275.2000     1.0470     0.5904
  862   17.220   2605.24     0.9983     0.0164     0.8388     0.1722     1.3450     1.6462   275.5200     1.0694     0.6108
  863   17.240   2606.24     1.0089     0.0158     0.8567     0.1724     1.3666     1.5694   275.8400     1.0907     0.6228
  864   17.260   2607.31     1.0229     0.0159     0.8531     0.1726     1.3809     1.5566   276.1600     1.1048     0.6154
  865   17.280   2608.46     1.0418     0.0154     0.8591     0.1728     1.4010     1.4923   276.4800     1.1246     0.6070
  866   17.300   2609.55     1.0276     0.0147     0.8648     0.1730     1.3895     1.4312   276.8000     1.1127     0.6189
  867   17.320   2610.61     0.9957     0.0145     0.8527     0.1732     1.3573     1.4509   277.1200     1.0802     0.6367
  868   17.340   2611.73     0.9925     0.0136     0.8435     0.1734     1.3468     1.3707   277.4400     1.0694     0.6269
  869   17.360   2612.71     0.9749     0.0134     0.8422     0.1736     1.3293     1.3686   277.7600     1.0516     0.6374
  870   17.380   2613.76     0.9792     0.0138     0.8493     0.1738     1.3344     1.4047   278.0800     1.0563     0.6362
  871   17.400   2614.95     0.9830     0.0140     0.8651     0.1740     1.3433     1.4261   278.4000     1.0649     0.6421
  872   17.420   2615.98     0.9907     0.0144     0.8836     0.1742     1.3595     1.4575   278.7200     1.0808     0.6513
  873   17.440   2617.07     1.0119     0.0142     0.8745     0.1744     1.3825     1.4100   279.0400     1.1034     0.6415
  874   17.460   2618.13     1.0253     0.0130     0.8667     0.1746     1.3911     1.2770   279.3600     1.1117     0.6263
  875   17.480   2619.16     1.0463     0.0126     0.8419     0.1748     1.4051     1.2026   279.6800     1.1254     0.6037
  876   17.500   2620.28     1.0334     0.0127     0.8217     0.1750     1.3814     1.2299   280.0000     1.1014     0.5934
  877   17.520   2621.33     1.0225     0.0127     0.8285     0.1752     1.3696     1.2385   280.3200     1.0893     0.5980
  878   17.540   2622.38     0.9936     0.0129     0.8352     0.1754     1.3417     1.2808   280.6400     1.0611     0.6160
  879   17.560   2623.44     0.9745     0.0137     0.8450     0.1756     1.3286     1.4126   280.9600     1.0476     0.6370
  880   17.580   2624.54     1.0274     0.0134     0.8338     0.1758     1.3820     1.3266   281.2800     1.1007     0.6073
  881   17.600   2625.50     1.0624     0.0138     0.8111     0.1760     1.4109     1.3081   281.6000     1.1293     0.5788
  882   17.620   2626.62     1.0309     0.0145     0.8134     0.1762     1.3635     1.3888   281.9200     1.0815     0.5693
  883   17.640   2627.73     1.0033     0.0166     0.8322     0.1764     1.3459     1.6537   282.2400     1.0637     0.6011
  884   17.660   2628.76     0.9885     0.0173     0.8628     0.1766     1.3480     1.7556   282.5600     1.0655     0.6376
  885   17.680   2629.82     1.0003     0.0154     0.8643     0.1768     1.3652     1.5445   282.8800     1.0823     0.6394
  886   17.700   2630.89     1.0177     0.0147     0.8554     0.1770     1.3751     1.4425   283.2000     1.0919     0.6173
  887   17.720   2631.99     1.0258     0.0156     0.8589     0.1772     1.3845     1.5251   283.5200     1.1010     0.6148
  888   17.740   2633.08     1.0183     0.0174     0.8639     0.1774     1.3810     1.7011   283.8400     1.0972     0.6254
  889   17.760   2634.13     1.0337     0.0170     0.8610     0.1776     1.3977     1.6576   284.1600     1.1135     0.6189
  890   17.780   2635.20     1.0808     0.0161     0.8146     0.1778     1.4328     1.5054   284.4800     1.1483     0.5750
  891   17.800   2636.27     1.0802     0.0163     0.7698     0.1780     1.4089     1.4983   284.8000     1.1241     0.5377
  892   17.820   2637.32     1.0356     0.0161     0.7713     0.1782     1.3599     1.5382   285.1200     1.0748     0.5528
  893   17.840   2638.35     0.9833     0.0170     0.7862     0.1784     1.3091     1.7139   285.4400     1.0236     0.5834
  894   17.860   2639.39     0.9683     0.0160     0.7924     0.1786     1.3010     1.6496   285.7600     1.0153     0.6045
  895   17.880   2640.55     0.9758     0.0154     0.7992     0.1788     1.3118     1.5785   286.0800     1.0258     0.6056
  896   17.900   2641.61     1.0053     0.0153     0.7897     0.1790     1.3376     1.5309   286.4000     1.0512     0.5825
  897   17.920   2642.72     1.0305     0.0163     0.7759     0.1792     1.3574     1.5943   286.7200     1.0707     0.5597
  898   17.940   2643.76     1.0267     0.0165     0.7756     0.1794     1.3508     1.6027   287.0400     1.0638     0.5568
  899   17.960   2644.79     1.0329     0.0178     0.8239     0.1796     1.3704     1.7151   287.3600     1.0831     0.5762
  900   17.980   2645.90     1.0454     0.0152     0.8608     0.1798     1.4012     1.4703   287.6800     1.1135     0.5993
  901   18.000   2646.97     1.0831     0.0173     0.8645     0.1800     1.4488     1.6051   288.0000     1.1608     0.5951
  902   18.020   2648.02     1.1574     0.0174     0.8653     0.1802     1.5172     1.5497   288.3200     1.2289     0.5505
  903   18.040   2649.09     1.1890     0.0183     0.8181     0.1804     1.5467     1.5966   288.6400     1.2581     0.5336
  904   18.060   2650.14     1.0937     0.0190     0.7978     0.1806     1.4236     1.7354   288.9600     1.1346     0.5331
  905   18.080   2651.20     1.0839     0.0180     0.8042     0.1808     1.4197     1.6594   289.2800     1.1305     0.5475
  906   18.100   2652.34     1.0678     0.0172     0.8387     0.1810     1.4160     1.5988   289.6000     1.1264     0.5755
  907   18.120   2653.42     1.0691     0.0147     0.8307     0.1812     1.4189     1.3786   289.9200     1.1290     0.5773
  908   18.140   2665.38     1.1067     0.0139     0.8098     0.1814     1.4501     1.5293   290.2400     1.1599     0.5493
  909   18.160   2681.62     1.1525     0.0151     0.8150     0.1816     1.4892     1.3980   290.5600     1.1987     0.5173
  910   18.180   2682.71     1.1059     0.0136     0.8433     0.1818     1.4589     1.2230   290.8800     1.1680     0.5638
  911   18.200   2683.77     1.0982     0.0142     0.8437     0.1820     1.4523     1.2931   291.2000     1.1611     0.5693
  912   18.220   2684.86     1.0922     0.0139     0.8769     0.1822     1.4547     1.2657   291.5200     1.1632     0.5854
  913   18.240   2686.00     1.1376     0.0150     0.8888     0.1824     1.5149     1.3398   291.8400     1.2230     0.5853
  914   18.260   2687.00     1.0921     0.0137     0.8139     0.1826     1.4347     1.2380   292.1600     1.1425     0.5540
  915   18.280   2688.08     1.0676     0.0129     0.8084     0.1828     1.4103     1.2056   292.4800     1.1178     0.5663
  916   18.300   2689.09     1.0556     0.0126     0.8285     0.1830     1.4017     1.1931   292.8000     1.1089     0.5781
  917   18.320   2690.14     1.0449     0.0125     0.8408     0.1832     1.3973     1.1934   293.1200     1.1042     0.5939
  918   18.340   2691.22     1.0699     0.0116     0.8453     0.1834     1.4235     1.0871   293.4400     1.1301     0.5827
  919   18.360   2692.33     1.1070     0.0103     0.8436     0.1836     1.4632     0.9444   293.7600     1.1694     0.5683
  920   18.380   2693.40     1.1206     0.0109     0.8468     0.1838     1.4783     0.9717   294.0800     1.1842     0.5639
  921   18.400   2694.47     1.1498     0.0112     0.7906     0.1840     1.4877     0.9780   294.4000     1.1933     0.5200
  922   18.420   2695.53     1.0766     0.0115     0.8108     0.1842     1.4140     1.0599   294.7200     1.1192     0.5532
  923   18.440   2696.61     1.0320     0.0119     0.8407     0.1844     1.3825     1.1435   295.0400     1.0875     0.5979
  924   18.460   2697.68     1.0346     0.0122     0.8407     0.1846     1.3890     1.1816   295.3600     1.0936     0.6027
  925   18.480   2698.76     1.0500     0.0108     0.7995     0.1848     1.3884     1.0164   295.6800     1.0927     0.5682
  926   18.500   2699.79     1.0170     0.0098     0.8179     0.1850     1.3578     0.9631   296.0000     1.0618     0.5901
  927   18.520   2700.92     0.9791     0.0102     0.8519     0.1852     1.3345     1.0421   296.3200     1.0382     0.6367
  928   18.540   2701.99     0.9768     0.0105     0.8782     0.1854     1.3422     1.0722   296.6400     1.0455     0.6547
  929   18.560   2703.05     0.9903     0.0105     0.8951     0.1856     1.3647     1.0617   296.9600     1.0678     0.6611
  930   18.580   2704.10     1.0487     0.0106     0.8970     0.1858     1.4244     1.0234   297.2800     1.1272     0.6289
  931   18.600   2705.21     1.0784     0.0101     0.8694     0.1860     1.4500     0.9379   297.6000     1.1524     0.6063
  932   18.620   2706.26     1.0601     0.0117     0.8667     0.1862     1.4253     1.0956   297.9200     1.1274     0.6061
  933   18.640   2707.32     1.0539     0.0110     0.8701     0.1864     1.4213     1.0448   298.2400     1.1231     0.6129
  934   18.660   2708.39     1.0602     0.0100     0.8619     0.1866     1.4235     0.9383   298.5600     1.1249     0.6031
  935   18.680   2709.46     1.0517     0.0095     0.8553     0.1868     1.4111     0.9016   298.8800     1.1122     0.6015
  936   18.700   2710.52     1.0907     0.0090     0.8263     0.1870     1.4421     0.8384   299.2000     1.1429     0.5683
  937   18.720   2711.58     1.0794     0.0085     0.8127     0.1872     1.4186     0.7761   299.5200     1.1190     0.5544
  938   18.740   2712.69     1.0900     0.0079     0.8207     0.1874     1.4346     0.7229   299.8400     1.1347     0.5578
  939   18.760   2713.75     1.0726     0.0082     0.7968     0.1876     1.4106     0.7558   300.1600     1.1104     0.5557
  940   18.780   2714.81     1.0400     0.0090     0.8066     0.1878     1.3762     0.8587   300.4800     1.0758     0.5696
  941   18.800   2715.84     1.0337     0.0096     0.8257     0.1880     1.3771     0.9286   300.8000     1.0763     0.5850
  942   18.820   2716.90     1.0574     0.0089     0.8131     0.1882     1.4040     0.8530   301.1200     1.1029     0.5777
  943   18.840   2717.96     1.0718     0.0101     0.7765     0.1884     1.4039     0.9351   301.4400     1.1024     0.5464
  944   18.860   2719.07     1.0386     0.0108     0.7648     0.1886     1.3609     1.0256   301.7600     1.0591     0.5465
  945   18.880   2720.13     0.9935     0.0107     0.7884     0.1888     1.3214     1.0684   302.0800     1.0193     0.5806
  946   18.900   2721.18     0.9644     0.0103     0.8217     0.1890     1.3052     1.0615   302.4000     1.0028     0.6207
  947   18.920   2722.21     0.9680     0.0097     0.8345     0.1892     1.3164     1.0079   302.7200     1.0137     0.6318
  948   18.940   2723.31     0.9782     0.0096     0.8422     0.1894     1.3317     0.9857   303.0400     1.0287     0.6341
  949   18.960   2724.42     0.9900     0.0105     0.8425     0.1896     1.3432     1.0568   303.3600     1.0398     0.6263
  950   18.980   2725.46     0.9822     0.0100     0.8443     0.1898     1.3371     1.0114   303.6800     1.0334     0.6339
  951   19.000   2726.47     0.9757     0.0106     0.8504     0.1900     1.3312     1.0855   304.0000     1.0272     0.6389
  952   19.020   2727.61     0.9500     0.0110     0.8604     0.1902     1.3105     1.1576   304.3200     1.0061     0.6640
  953   19.040   2728.67     0.9453     0.0110     0.8587     0.1904     1.3072     1.1598   304.6400     1.0026     0.6696
  954   19.060   2729.73     0.9488     0.0105     0.8648     0.1906     1.3117     1.1073   304.9600     1.0067     0.6689
  955   19.080   2730.81     0.9690     0.0102     0.8479     0.1908     1.3289     1.0660   305.2800     1.0236     0.6508
  956   19.100   2731.82     0.9836     0.0102     0.8293     0.1910     1.3345     1.0312   305.6000     1.0289     0.6264
  957   19.120   2732.93     0.9785     0.0101     0.8126     0.1912     1.3209     1.0355   305.9200     1.0150     0.6149
  958   19.140   2733.95     0.9929     0.0106     0.8116     0.1914     1.3353     1.0775   306.2400     1.0291     0.6063
  959   19.160   2735.00     1.0212     0.0106     0.7862     0.1916     1.3536     1.0385   306.5600     1.0470     0.5730
  960   19.180   2736.06     1.0448     0.0097     0.7744     0.1918     1.3727     0.9369   306.8800     1.0658     0.5525
  961   19.200   2737.18     1.0235     0.0093     0.7549     0.1920     1.3416     0.9004   307.2000     1.0344     0.5466
  962   19.220   2738.27     1.0085     0.0097     0.7630     0.1922     1.3281     0.9630   307.5200     1.0206     0.5574
  963   19.240   2739.33     1.0014     0.0088     0.7735     0.1924     1.3259     0.8738   307.8400     1.0181     0.5699
  964   19.260   2740.36     0.9987     0.0088     0.7575     0.1926     1.3181     0.8834   308.1600     1.0099     0.5621
  965   19.280   2741.40     0.9727     0.0095     0.7790     0.1928     1.2957     0.9724   308.4800     0.9872     0.5837
  966   19.300   2742.46     0.9641     0.0093     0.7911     0.1930     1.2965     0.9589   308.8000     0.9877     0.6058
  967   19.320   2743.52     1.0126     0.0097     0.7623     0.1932     1.3408     0.9637   309.1200     1.0317     0.5702
  968   19.340   2744.59     1.0521     0.0086     0.7345     0.1934     1.3641     0.8204   309.4400     1.0546     0.5210
  969   19.360   2745.69     1.0745     0.0074     0.7254     0.1936     1.3819     0.6871   309.7600     1.0721     0.5020
  970   19.380   2746.78     1.0597     0.0078     0.7251     0.1938     1.3627     0.7321   310.0800     1.0526     0.5012
  971   19.400   2747.84     1.0016     0.0081     0.7468     0.1940     1.3119     0.8014   310.4000     1.0015     0.5440
  972   19.420   2748.95     0.9697     0.0071     0.7599     0.1942     1.2890     0.7297   310.7200     0.9782     0.5784
  973   19.440   2750.01     0.9867     0.0065     0.7607     0.1944     1.3063     0.6613   311.0400     0.9953     0.5693
  974   19.460   2751.10     1.0212     0.0072     0.7651     0.1946     1.3463     0.7102   311.3600     1.0350     0.5599
  975   19.480   2752.16     1.0464     0.0089     0.7299     0.1948     1.3579     0.8607   311.6800     1.0462     0.5227
  976   19.500   2753.22     1.0649     0.0099     0.7135     0.1950     1.3671     0.9281   312.0000     1.0551     0.4972
  977   19.520   2754.27     1.0970     0.0095     0.7060     0.1952     1.3937     0.8754   312.3200     1.0813     0.4728
  978   19.540   2755.35     1.1696     0.0086     0.6689     0.1954     1.4555     0.7468   312.6400     1.1429     0.4249
  979   19.560   2756.36     1.2094     0.0081     0.6354     0.1956     1.4813     0.6728   312.9600     1.1683     0.3867
  980   19.580   2757.50     1.1949     0.0100     0.6271     0.1958     1.4575     0.8310   313.2800     1.1442     0.3754
  981   19.600   2758.51     1.2031     0.0088     0.6295     0.1960     1.4646     0.7332   313.6000     1.1510     0.3707
  982   19.620   2759.60     1.2069     0.0086     0.6468     0.1962     1.4758     0.7111   313.9200     1.1619     0.3821
  983   19.640   2760.69     1.1975     0.0085     0.6498     0.1964     1.4718     0.7085   314.2400     1.1576     0.3947
  984   19.660   2761.74     1.2259     0.0085     0.6428     0.1966     1.4971     0.6925   314.5600     1.1826     0.3799
  985   19.680   2762.80     1.1347     0.0086     0.6642     0.1968     1.4109     0.7417   314.8800     1.0961     0.4209
  986   19.700   2763.89     1.0769     0.0087     0.6997     0.1970     1.3658     0.8077   315.2000     1.0506     0.4672
  987   19.720   2764.94     1.0749     0.0085     0.7143     0.1972     1.3730     0.7879   315.5200     1.0575     0.4847
  988   19.740   2766.03     1.0691     0.0080     0.7302     0.1974     1.3758     0.7499   315.8400     1.0599     0.5025
  989   19.760   2767.06     1.0755     0.0086     0.7391     0.1976     1.3830     0.7944   316.1600     1.0669     0.5012
  990   19.780   2768.12     1.0457     0.0071     0.7298     0.1978     1.3529     0.6751   316.4800     1.0364     0.5150
  991   19.800   2769.18     1.0479     0.0075     0.7432     0.1980     1.3578     0.7104   316.8000     1.0410     0.5188
  992   19.820   2770.24     1.0105     0.0077     0.7592     0.1982     1.3275     0.7549   317.1200     1.0104     0.5507
  993   19.840   2771.35     0.9947     0.0079     0.7896     0.1984     1.3219     0.7876   317.4400     1.0044     0.5781
  994   19.860   2772.41     0.9737     0.0092     0.8080     0.1986     1.3100     0.9484   317.7600     0.9922     0.6068
  995   19.880   2773.47     1.0014     0.0083     0.8279     0.1988     1.3487     0.8377   318.0800     1.0307     0.6096
  996   19.900   2774.56     1.0716     0.0084     0.8136     0.1990     1.4162     0.7946   318.4000     1.0978     0.5661
  997   19.920   2775.67     1.1100     0.0084     0.7376     0.1992     1.4339     0.7597   318.7200     1.1152     0.5128
  998   19.940   2776.71     1.0598     0.0093     0.7376     0.1994     1.3680     0.8688   319.0400     1.0490     0.5097
  999   19.960   2777.74     1.0094     0.0101     0.7760     0.1996     1.3313     0.9721   319.3600     1.0119     0.5600
 1000   19.980   2778.82     1.0378     0.0099     0.7877     0.1998     1.3686     0.9451   319.6800     1.0489     0.5603
 1001   20.000   2779.90     1.0901     0.0090     0.7639     0.2000     1.4141     0.8455   320.0000     1.0941     0.5223
 1002   20.020   2780.97     1.1365     0.0090     0.7451     0.2002     1.4520     0.7990   320.3200     1.1317     0.4870
 1003   20.040   2782.03     1.1146     0.0101     0.7555     0.2004     1.4287     0.8980   320.6400     1.1081     0.4942
 1004   20.060   2784.04     1.0572     0.0093     0.7774     0.2006     1.3813     0.8664   320.9600     1.0603     0.5385
 1005   20.080   2797.56     1.0501     0.0098     0.7943     0.2008     1.3813     0.9309   321.2800     1.0600     0.5544
 1006   20.100   2810.60     1.0433     0.0094     0.8079     0.2010     1.3815     0.8954   321.6000     1.0599     0.5700
 1007   20.120   2811.63     1.0475     0.0099     0.8103     0.2012     1.3882     0.9438   321.9200     1.0663     0.5722
 1008   20.140   2812.75     1.0309     0.0090     0.8223     0.2014     1.3703     0.8616   322.2400     1.0481     0.5789
 1009   20.160   2813.78     1.0270     0.0096     0.8359     0.2016     1.3776     0.9414   322.5600     1.0550     0.6001
 1010   20.180   2814.86     1.0300     0.0105     0.8455     0.2018     1.3829     1.0164   322.8800     1.0600     0.6023
 1011   20.200   2815.93     1.0348     0.0106     0.8406     0.2020     1.3869     1.0223   323.2000     1.0637     0.5982
 1012   20.220   2817.04     1.0620     0.0101     0.8397     0.2022     1.4166     0.9625   323.5200     1.0931     0.5876
 1013   20.240   2818.10     1.0823     0.0106     0.8302     0.2024     1.4335     0.9835   323.8400     1.1097     0.5712
 1014   20.260   2819.18     1.1123     0.0104     0.8169     0.2026     1.4567     0.9379   324.1600     1.1325     0.5451
 1015   20.280   2820.22     1.0930     0.0106     0.8194     0.2028     1.4362     0.9648   324.4800     1.1117     0.5525
 1016   20.300   2821.28     1.0607     0.0110     0.8446     0.2030     1.4123     1.0335   324.8000     1.0875     0.5831
 1017   20.320   2822.31     1.0637     0.0112     0.8438     0.2032     1.4172     1.0465   325.1200     1.0920     0.5846
 1018   20.340   2823.45     1.0363     0.0116     0.8670     0.2034     1.3964     1.1131   325.4400     1.0709     0.6107
 1019   20.360   2824.48     1.0423     0.0124     0.8745     0.2036     1.4083     1.1872   325.7600     1.0825     0.6169
 1020   20.380   2825.54     1.0373     0.0121     0.8867     0.2038     1.4089     1.1642   326.0800     1.0829     0.6290
 1021   20.400   2826.62     1.0493     0.0120     0.8909     0.2040     1.4221     1.1479   326.4000     1.0957     0.6239
 1022   20.420   2827.68     1.0527     0.0123     0.8924     0.2042     1.4287     1.1689   326.7200     1.1019     0.6270
 1023   20.440   2828.82     1.0604     0.0115     0.9012     0.2044     1.4377     1.0820   327.0400     1.1107     0.6249
 1024   20.460   2829.92     1.0653     0.0115     0.9039     0.2046     1.4443     1.0785   327.3600     1.1169     0.6247
 1025   20.480   2830.94     1.0590     0.0115     0.9142     0.2048     1.4416     1.0909   327.6800     1.1139     0.6339
 1026   20.500   2832.00     1.0830     0.0113     0.9196     0.2050     1.4673     1.0549   328.0000     1.1393     0.6231
 1027   20.520   2833.06     1.0811     0.0116     0.9243     0.2052     1.4697     1.0726   328.3200     1.1414     0.6309
 1028   20.540   2834.16     1.0866     0.0123     0.9251     0.2054     1.4740     1.1298   328.6400     1.1453     0.6259
 1029   20.560   2835.22     1.0935     0.0122     0.9293     0.2056     1.4837     1.1168   328.9600     1.1547     0.6265
 1030   20.580   2836.32     1.1027     0.0122     0.9215     0.2058     1.4909     1.1084   329.2800     1.1616     0.6185
 1031   20.600   2837.35     1.0867     0.0123     0.9184     0.2060     1.4732     1.1255   329.6000     1.1436     0.6246
 1032   20.620   2838.43     1.1014     0.0123     0.9059     0.2062     1.4793     1.1104   329.9200     1.1494     0.6034
 1033   20.640   2839.47     1.0778     0.0118     0.9346     0.2064     1.4684     1.0913   330.2400     1.1382     0.6358
 1034   20.660   2840.58     1.0702     0.0116     0.9444     0.2066     1.4660     1.0820   330.5600     1.1355     0.6481
 1035   20.680   2841.62     1.0617     0.0117     0.9507     0.2068     1.4604     1.1016   330.8800     1.1296     0.6573
 1036   20.700   2842.70     1.0656     0.0116     0.9463     0.2070     1.4642     1.0890   331.2000     1.1330     0.6548
 1037   20.720   2843.83     1.0687     0.0123     0.9412     0.2072     1.4634     1.1480   331.5200     1.1318     0.6472
 1038   20.740   2844.82     1.0625     0.0124     0.9472     0.2074     1.4606     1.1736   331.8400     1.1287     0.6559
 1039   20.760   2845.90     1.0691     0.0122     0.9452     0.2076     1.4659     1.1417   332.1600     1.1338     0.6502
 1040   20.780   2847.01     1.0746     0.0126     0.9475     0.2078     1.4720     1.1698   332.4800     1.1395     0.6480
 1041   20.800   2848.09     1.0782     0.0125     0.9544     0.2080     1.4793     1.1577   332.8000     1.1465     0.6515
 1042   20.820   2849.16     1.0795     0.0125     0.9591     0.2082     1.4828     1.1605   333.1200     1.1496     0.6541
 1043   20.840   2850.20     1.0807     0.0126     0.9581     0.2084     1.4837     1.1621   333.4400     1.1502     0.6531
 1044   20.860   2851.23     1.0902     0.0133     0.9554     0.2086     1.4920     1.2238   333.7600     1.1583     0.6459
 1045   20.880   2852.34     1.0860     0.0137     0.9575     0.2088     1.4880     1.2608   334.0800     1.1540     0.6487
 1046   20.900   2853.48     1.0976     0.0132     0.9501     0.2090     1.4979     1.2147   334.4000     1.1635     0.6396
 1047   20.920   2854.54     1.0899     0.0133     0.9528     0.2092     1.4880     1.2159   334.7200     1.1532     0.6405
 1048   20.940   2855.63     1.1000     0.0139     0.9525     0.2094     1.5000     1.2643   335.0400     1.1650     0.6378
 1049   20.960   2856.68     1.1070     0.0134     0.9516     0.2096     1.5074     1.2074   335.3600     1.1721     0.6345
 1050   20.980   2857.74     1.1148     0.0131     0.9610     0.2098     1.5167     1.1712   335.6800     1.1811     0.6327
 1051   21.000   2858.80     1.1214     0.0138     0.9574     0.2100     1.5248     1.2310   336.0000     1.1888     0.6312
 1052   21.020   2859.81     1.1216     0.0135     0.9406     0.2102     1.5174     1.2010   336.3200     1.1810     0.6199
 1053   21.040   2860.90     1.1215     0.0139     0.9385     0.2104     1.5170     1.2421   336.6400     1.1803     0.6196
 1054   21.060   2862.00     1.1238     0.0149     0.9316     0.2106     1.5166     1.3231   336.9600     1.1797     0.6142
 1055   21.080   2863.10     1.1159     0.0150     0.9084     0.2108     1.4977     1.3427   337.2800     1.1604     0.6016
 1056   21.100   2864.19     1.0810     0.0152     0.9201     0.2110     1.4662     1.3964   337.6000     1.1286     0.6256
 1057   21.120   2865.26     1.0789     0.0153     0.9327     0.2112     1.4689     1.4162   337.9200     1.1310     0.6343
 1058   21.140   2866.32     1.0682     0.0165     0.9273     0.2114     1.4585     1.5422   338.2400     1.1203     0.6408
 1059   21.160   2867.38     1.0757     0.0162     0.9260     0.2116     1.4659     1.5056   338.5600     1.1274     0.6365
 1060   21.180   2868.44     1.0764     0.0151     0.9192     0.2118     1.4620     1.4055   338.8800     1.1231     0.6289
 1061   21.200   2869.56     1.0690     0.0149     0.9108     0.2120     1.4522     1.3991   339.2000     1.1130     0.6293
 1062   21.220   2870.61     1.0551     0.0111     0.9016     0.2122     1.4352     1.0508   339.5200     1.0956     0.6321
 1063   21.240   2871.67     1.0727     0.0056     0.8890     0.2124     1.4479     0.5269   339.8400     1.1081     0.6145
 1064   21.260   2872.73     1.1848     0.0131     0.8859     0.2126     1.5589     1.1273   340.1600     1.2187     0.5567
 1065   21.280   2873.78     1.3731     0.0299     0.8191     0.2128     1.7279     2.2405   340.4800     1.3875     0.4572
 1066   21.300   2874.82     1.8263     0.0316     0.7291     0.2130     2.1497     1.8463   340.8000     1.8089     0.3101
 1067   21.320   2875.88     2.3031     0.0291     0.5357     0.2132     2.5622     1.2913   341.1200     2.2211     0.1824
 1068   21.340   2877.07     2.3968     0.0320     0.3382     0.2134     2.5408     1.3285   341.4400     2.1993     0.0589
 1069   21.360   2878.13     2.1676     0.0359     0.4257     0.2136     2.3444     1.6214   341.7600     2.0027     0.1037
 1070   21.380   2879.23     1.9756     0.0372     0.4630     0.2138     2.1596     1.8910   342.0800     1.8175     0.1233
 1071   21.400   2880.23     2.2597     0.0439     0.5100     0.2140     2.4752     1.9866   342.4000     2.1328     0.1405
 1072   21.420   2881.31     2.6481     0.0281     0.4115     0.2142     2.8263     1.0834   342.7200     2.4836     0.0848
 1073   21.440   2882.45     2.9828     0.0254     0.4296     0.2144     3.1568     0.8605   343.0400     2.8137     0.0711
 1074   21.460   2883.51     3.4468     0.0276     0.4463     0.2146     3.6377     0.8144   343.3600     3.2944     0.0729
 1075   21.480   2884.62     4.5359     0.0359     0.3686     0.2148     4.7011     0.8174   343.6800     4.3574     0.0412
 1076   21.500   2885.69     5.7732     0.0401     0.2257     0.2150     5.8910     0.7070   344.0000     5.5470     0.0121
 1077   21.520   2886.74     6.6089     0.0419     0.1159     0.2152     6.6732     0.6371   344.3200     6.3289    -0.0097
 1078   21.540   2887.86     7.0104     0.0428     0.0927     0.2154     7.0554     0.6129   344.6400     6.7107    -0.0161
 1079   21.560   2889.02     7.0538     0.0534     0.0637     0.2156     7.0855     0.7561   344.9600     6.7405    -0.0208
 1080   21.580   2890.08     6.8801     0.0636     0.0771     0.2158     6.9103     0.9208   345.2800     6.5650    -0.0219
 1081   21.600   2891.15     6.6950     0.0679     0.1076     0.2160     6.7353     1.0100   345.6000     6.3897    -0.0188
 1082   21.620   2892.25     6.4592     0.0686     0.1399     0.2162     6.5143     1.0575   345.9200     6.1684    -0.0138
 1083   21.640   2893.31     6.2499     0.0677     0.1816     0.2164     6.3204     1.0792   346.2400     5.9742    -0.0081
 1084   21.660   2894.39     6.0478     0.0635     0.2160     0.2166     6.1338     1.0451   346.5600     5.7873    -0.0020
 1085   21.680   2895.47     5.8265     0.0651     0.2369     0.2168     5.9239     1.1065   346.8800     5.5770     0.0027
 1086   21.700   2896.59     5.5974     0.0758     0.2474     0.2170     5.6991     1.3433   347.2000     5.3519     0.0047
 1087   21.720   2897.68     5.2735     0.0911     0.2591     0.2172     5.3824     1.7025   347.5200     5.0348     0.0083
 1088   21.740   2898.75     4.6939     0.0907     0.2433     0.2174     4.7983     1.8915   347.8400     4.4504     0.0070
 1089   21.760   2899.85     3.8206     0.0839     0.2823     0.2176     3.9330     2.1341   348.1600     3.5848     0.0142
 1090   21.780   2900.83     3.0560     0.0729     0.3117     0.2178     3.1814     2.3418   348.4800     2.8329     0.0289
 1091   21.800   2901.93     2.2365     0.0610     0.4028     0.2180     2.3900     2.6704   348.8000     2.0412     0.0731
 1092   21.820   2903.06     1.6407     0.0462     0.4899     0.2182     1.8220     2.6946   349.1200     1.4729     0.1450
 1093   21.840   2904.17     1.2090     0.0319     0.7932     0.2184     1.5071     2.5990   349.4400     1.1577     0.4242
 1094   21.860   2905.27     1.1651     0.0171     0.8548     0.2186     1.5150     1.4630   349.7600     1.1652     0.5274
 1095   21.880   2906.34     1.1498     0.0110     0.8948     0.2188     1.5203     0.9521   350.0800     1.1702     0.5669
 1096   21.900   2907.40     1.1266     0.0098     0.9156     0.2190     1.5091     0.8689   350.4000     1.1587     0.5971
 1097   21.920   2908.49     1.1247     0.0089     0.9267     0.2192     1.5121     0.7864   350.7200     1.1614     0.6054
 1098   21.940   2909.58     1.1203     0.0089     0.9418     0.2194     1.5125     0.7938   351.0400     1.1614     0.6151
 1099   21.960   2910.67     1.1097     0.0094     0.9478     0.2196     1.5077     0.8359   351.3600     1.1563     0.6296
 1100   21.980   2911.64     1.1187     0.0127     0.9475     0.2198     1.5164     1.1345   351.6800     1.1647     0.6244
 1101   22.000   2912.72     1.1128     0.0128     0.9425     0.2200     1.5094     1.1537   352.0000     1.1574     0.6257
 1102   22.020   2913.87     1.1184     0.0136     0.9363     0.2202     1.5119     1.2137   352.3200     1.1595     0.6179
 1103   22.040   2914.96     1.1234     0.0141     0.9383     0.2204     1.5159     1.2538   352.6400     1.1633     0.6140
 1104   22.060   2926.34     0.9827     0.0131     0.9219     0.2206     1.3679     1.3526   352.9600     1.0149     0.6880
 1105   22.080   2951.96     1.0690     0.0142     0.9360     0.2208     1.4601     1.4837   353.2800     1.1068     0.6434
 1106   22.100   2960.79     1.1069     0.0146     0.9460     0.2210     1.5031     1.3195   353.6000     1.1495     0.6284
 1107   22.120   2961.87     1.1111     0.0135     0.9595     0.2212     1.5122     1.2170   353.9200     1.1583     0.6335
 1108   22.140   2962.98     1.1192     0.0142     0.9696     0.2214     1.5255     1.2754   354.2400     1.1713     0.6368
 1109   22.160   2964.04     1.1441     0.0153     0.9711     0.2216     1.5505     1.3433   354.5600     1.1959     0.6237
 1110   22.180   2965.15     1.1819     0.0164     0.9788     0.2218     1.5929     1.4009   354.8800     1.2381     0.6114
 1111   22.200   2966.24     1.2889     0.0164     1.0039     0.2220     1.7095     1.3176   355.2000     1.3543     0.5762
 1112   22.220   2967.30     1.3852     0.0167     0.9375     0.2222     1.8040     1.1992   355.5200     1.4485     0.5351
 1113   22.240   2968.39     1.2771     0.0160     0.6798     0.2224     1.5748     1.2250   355.8400     1.2190     0.3982
 1114   22.260   2969.45     1.1794     0.0156     0.8100     0.2226     1.4990     1.3124   356.1600     1.1428     0.4708
 1115   22.280   2970.51     1.1572     0.0167     0.8860     0.2228     1.5203     1.4438   356.4800     1.1639     0.5515
 1116   22.300   2971.57     1.1489     0.0147     0.9167     0.2230     1.5315     1.2818   356.8000     1.1747     0.5855
 1117   22.320   2972.69     1.1510     0.0147     0.9393     0.2232     1.5432     1.2823   357.1200     1.1861     0.5991
 1118   22.340   2973.74     1.2124     0.0116     0.9606     0.2234     1.6140     0.9676   357.4400     1.2566     0.5832
 1119   22.360   2974.80     1.2422     0.0125     0.9713     0.2236     1.6504     1.0123   357.7600     1.2926     0.5790
 1120   22.380   2975.87     1.2022     0.0174     0.8917     0.2238     1.5974     1.4141   358.0800     1.2393     0.5788
 1121   22.400   2977.00     1.1324     0.0178     0.8691     0.2240     1.4937     1.5602   358.4000     1.1353     0.5605
 1122   22.420   2978.08     1.1404     0.0186     0.8970     0.2242     1.5125     1.6563   358.7200     1.1538     0.5741
 1123   22.440   2979.15     1.3321     0.0196     0.8371     0.2244     1.6997     1.5092   359.0400     1.3407     0.4858
 1124   22.460   2980.22     1.4524     0.0191     0.6779     0.2246     1.7657     1.2959   359.3600     1.4063     0.3700
 1125   22.480   2981.28     1.2342     0.0202     0.4424     0.2248     1.4242     1.6145   359.6800     1.0646     0.2139
 1126   22.500   2982.32     1.1261     0.0261     0.5479     0.2250     1.3231     2.2997   360.0000     0.9631     0.2530
 1127   22.520   2983.40     1.0708     0.0248     0.6819     0.2252     1.3439     2.3068   360.3200     0.9835     0.4319
 1128   22.540   2984.44     1.0602     0.0167     0.7467     0.2254     1.3648     1.5778   360.6400     1.0042     0.4978
 1129   22.560   2985.50     1.0714     0.0078     0.8043     0.2256     1.4004     0.7262   360.9600     1.0394     0.5365
 1130   22.580   2986.62     1.0822     0.0113     0.8432     0.2258     1.4309     1.0433   361.2800     1.0697     0.5651
 1131   22.600   2987.75     1.3512     0.0352     0.8723     0.2260     1.7138     3.0046   361.6000     1.3522     0.4809
 1132   22.620   2988.82     2.5186     0.0564     0.8282     0.2262     2.8818     2.5390   361.9200     2.5199     0.2572
 1133   22.640   2989.86     2.9505     0.0560     0.4644     0.2264     3.2267     1.8700   362.2400     2.8645     0.1497
 1134   22.660   2990.94     2.6695     0.0536     0.2712     0.2266     2.7855     1.9613   362.5600     2.4229     0.0204
 1135   22.680   2991.96     2.2093     0.0538     0.3105     0.2268     2.3230     2.3986   362.8800     1.9601     0.0224
 1136   22.700   2993.05     1.7881     0.0535     0.3535     0.2270     1.9458     2.8979   363.2000     1.5826     0.0939
 1137   22.720   2994.12     1.3447     0.0466     0.3753     0.2272     1.4937     3.3111   363.5200     1.1302     0.1132
 1138   22.740   2995.22     1.1543     0.0294     0.6004     0.2274     1.3687     2.4937   363.8400     1.0049     0.2819
 1139   22.760   2996.33     1.0729     0.0179     0.7380     0.2276     1.3633     1.6592   364.1600     0.9992     0.4640
 1140   22.780   2997.39     1.0615     0.0124     0.8129     0.2278     1.3945     1.1663   364.4800     1.0300     0.5486
 1141   22.800   2998.47     1.0625     0.0115     0.8550     0.2280     1.4170     1.0864   364.8000     1.0522     0.5855
 1142   22.820   2999.51     1.0886     0.0107     0.8582     0.2282     1.4472     0.9945   365.1200     1.0820     0.5781
 1143   22.840   3000.59     1.0936     0.0104     0.8618     0.2284     1.4563     0.9514   365.4400     1.0909     0.5823
 1144   22.860   3001.71     1.0792     0.0108     0.8716     0.2286     1.4438     0.9975   365.7600     1.0781     0.5932
 1145   22.880   3002.77     1.0716     0.0100     0.8728     0.2288     1.4373     0.9323   366.0800     1.0713     0.5993
 1146   22.900   3003.80     1.0373     0.0102     0.8883     0.2290     1.4106     0.9729   366.4000     1.0442     0.6319
 1147   22.920   3004.85     1.0109     0.0101     0.8728     0.2292     1.3798     1.0041   366.7200     1.0130     0.6407
 1148   22.940   3006.01     0.9996     0.0103     0.8678     0.2294     1.3647     1.0283   367.0400     0.9977     0.6415
 1149   22.960   3007.11     0.9840     0.0100     0.8686     0.2296     1.3476     1.0076   367.3600     0.9802     0.6489
 1150   22.980   3008.15     0.9610     0.0094     0.8763     0.2298     1.3295     0.9761   367.6800     0.9618     0.6732
 1151   23.000   3009.21     0.9830     0.0094     0.8977     0.2300     1.3575     0.9596   368.0000     0.9895     0.6687
 1152   23.020   3010.32     1.0299     0.0096     0.9102     0.2302     1.4117     0.9355   368.3200     1.0434     0.6506
 1153   23.040   3011.38     1.0573     0.0100     0.8919     0.2304     1.4365     0.9468   368.6400     1.0678     0.6297
 1154   23.060   3012.43     1.0524     0.0102     0.8437     0.2306     1.4141     0.9634   368.9600     1.0451     0.6033
 1155   23.080   3013.52     1.0395     0.0101     0.8515     0.2308     1.3942     0.9655   369.2800     1.0249     0.5987
 1156   23.100   3014.61     1.0215     0.0104     0.8553     0.2310     1.3790     1.0122   369.6000     1.0094     0.6144
 1157   23.120   3015.62     0.9967     0.0086     0.8647     0.2312     1.3582     0.8604   369.9200     0.9883     0.6370
 1158   23.140   3016.66     0.9899     0.0071     0.8782     0.2314     1.3559     0.7165   370.2400     0.9856     0.6494
 1159   23.160   3017.75     0.9861     0.0071     0.8830     0.2316     1.3575     0.7237   370.5600     0.9869     0.6614
 1160   23.180   3018.81     0.9927     0.0105     0.8893     0.2318     1.3652     1.0553   370.8800     0.9943     0.6588
 1161   23.200   3019.94     1.0375     0.0148     0.8978     0.2320     1.4122     1.4501   371.2000     1.0410     0.6344
 1162   23.220   3020.99     1.3045     0.0169     0.8418     0.2322     1.6779     1.3639   371.5200     1.3064     0.5037
 1163   23.240   3022.08     1.5815     0.0184     0.6809     0.2324     1.8902     1.1855   371.8400     1.5184     0.3312
 1164   23.260   3023.18     1.7733     0.0216     0.6555     0.2326     2.0479     1.2334   372.1600     1.6757     0.2515
 1165   23.280   3024.22     1.9365     0.0216     0.6015     0.2328     2.1975     1.1411   372.4800     1.8250     0.2133
 1166   23.300   3025.27     2.2882     0.0288     0.5555     0.2330     2.5302     1.2665   372.8000     2.1574     0.1600
 1167   23.320   3026.38     3.0883     0.0349     0.4625     0.2332     3.2948     1.1682   373.1200     2.9217     0.0893
 1168   23.340   3027.51     3.6200     0.0322     0.3824     0.2334     3.7876     0.8972   373.4400     3.4141     0.0485
 1169   23.360   3028.57     3.4034     0.0349     0.3623     0.2336     3.5584     1.0158   373.7600     3.1847     0.0426
 1170   23.380   3029.65     3.7125     0.0364     0.2842     0.2338     3.8417     0.9982   374.0800     3.4677     0.0214
 1171   23.400   3030.75     4.2849     0.0499     0.3489     0.2340     4.4079     1.2142   374.4000     4.0335     0.0142
 1172   23.420   3031.87     4.8775     0.0705     0.2273     0.2342     5.0078     1.4455   374.7200     4.6331     0.0163
 1173   23.440   3032.94     4.7100     0.0737     0.1675     0.2344     4.7827     1.5378   375.0400     4.4077    -0.0139
 1174   23.460   3033.99     4.1977     0.0670     0.1866     0.2346     4.2687     1.5371   375.3600     3.8933    -0.0168
 1175   23.480   3035.08     3.3624     0.0699     0.2193     0.2348     3.4435     1.9514   375.6800     3.0678    -0.0135
 1176   23.500   3036.14     2.6036     0.0711     0.2766     0.2350     2.7143     2.6211   376.0000     2.3383     0.0124
 1177   23.520   3037.20     2.0013     0.0600     0.4639     0.2352     2.1811     2.8483   376.3200     1.8047     0.1086
 1178   23.540   3038.25     1.4824     0.0438     0.5479     0.2354     1.6856     2.8731   376.6400     1.3090     0.1911
 1179   23.560   3039.33     1.3145     0.0236     0.6946     0.2356     1.5856     1.7756   376.9600     1.2087     0.3395
 1180   23.580   3040.39     1.2356     0.0255     0.7920     0.2358     1.5565     2.0554   377.2800     1.1792     0.4479
 1181   23.600   3041.58     1.2908     0.0271     0.8721     0.2360     1.6441     2.1415   377.6000     1.2665     0.4779
 1182   23.620   3042.64     1.5628     0.0259     0.8952     0.2362     1.9394     1.7191   377.9200     1.5615     0.4231
 1183   23.640   3043.65     1.8363     0.0243     0.7351     0.2364     2.1750     1.3515   378.2400     1.7968     0.3173
 1184   23.660   3044.78     1.7595     0.0216     0.5754     0.2366     2.0039     1.2113   378.5600     1.6254     0.2126
 1185   23.680   3045.87     1.6025     0.0318     0.6311     0.2368     1.8444     1.9462   378.8800     1.4656     0.2318
 1186   23.700   3046.93     1.6185     0.0390     0.7622     0.2370     1.9323     2.4707   379.2000     1.5531     0.3290
 1187   23.720   3047.99     2.0681     0.0469     0.7645     0.2372     2.4115     2.2941   379.5200     2.0320     0.2858
 1188   23.740   3049.08     2.8007     0.0557     0.4895     0.2374     3.0593     2.0010   379.8400     2.6794     0.1413
 1189   23.760   3050.19     3.2882     0.0505     0.3315     0.2376     3.4387     1.5422   380.1600     3.0586     0.0396
 1190   23.780   3051.25     3.4308     0.0480     0.2864     0.2378     3.5548     1.3957   380.4800     3.1743     0.0181
 1191   23.800   3052.36     3.2673     0.0550     0.2272     0.2380     3.3747     1.6774   380.8000     2.9939     0.0060
 1192   23.820   3053.46     3.8842     0.0641     0.1763     0.2382     3.9514     1.6820   381.1200     3.5702    -0.0219
 1193   23.840   3054.59     5.4051     0.0715     0.1998     0.2384     5.5114     1.3878   381.4400     5.1299     0.0029
 1194   23.860   3055.66     6.9681     0.0727     0.0063     0.2386     7.0080     1.0568   381.7600     6.6262    -0.0216
 1195   23.880   3056.77     6.8588     0.0670    -0.0140     0.2388     6.8558     0.9695   382.0800     6.4737    -0.0380
 1196   23.900   3057.84     6.4267     0.0673    -0.0129     0.2390     6.4210     1.0396   382.4000     6.0386    -0.0418
 1197   23.920   3058.98     6.0597     0.0675    -0.0134     0.2392     6.0493     1.1096   382.7200     5.6666    -0.0466
 1198   23.940   3060.01     5.8151     0.0742     0.0286     0.2394     5.8101     1.2571   383.0400     5.4271    -0.0463
 1199   23.960   3061.05     5.7876     0.0733     0.2055     0.2396     5.8491     1.2655   383.3600     5.4657    -0.0171
 1200   23.980   3062.17     5.7725     0.0779     0.3024     0.2398     5.8927     1.3540   383.6800     5.5090     0.0084
 1201   24.000   3072.25     6.2165     0.0988     0.2506     0.2400     6.3293     1.6991   384.0000     5.9453     0.0056
 1202   24.020   3086.67     6.8110     0.1076     0.1988     0.2402     6.9020     1.8505   384.3200     6.5177    -0.0030
 1203   24.040   3094.58     7.3184     0.1059     0.3028     0.2404     7.4338     1.4583   384.6400     7.0491     0.0048
 1204   24.060   3095.65     7.9503     0.1038     0.2409     0.2406     8.0618     1.3635   384.9600     7.6768     0.0032
 1205   24.080   3096.72     9.0282     0.1204     0.1780     0.2408     9.1136     1.3884   385.2800     8.7283    -0.0043
 1206   24.100   3097.90     9.5302     0.1316     0.1611     0.2410     9.5962     1.3901   385.6000     9.2106    -0.0091
 1207   24.120   3099.00     9.8366     0.0862     0.2996     0.2412     9.9413     0.9011   385.9200     9.5554     0.0008
 1208   24.140   3100.06    11.9098     0.0877     0.3084     0.2414    12.0373     0.8078   386.2400    11.6510     0.0053
 1209   24.160   3101.21    15.4648     0.1174     0.3051     0.2416    15.5923     0.7724   386.5600    15.2057     0.0041
 1210   24.180   3102.38    19.4450     0.1646     0.0348     0.2418    19.5209     0.8742   386.8800    19.1340    -0.0030
 1211   24.200   3103.59    22.5603     0.2165    -0.1433     0.2420    22.4838     0.9864   387.2000    22.0966    -0.0192
 1212   24.220   3104.66    23.8184     0.2635    -0.1460     0.2422    23.7696     1.1165   387.5200    23.3821    -0.0153
 1213   24.240   3105.68    24.3346     0.2913    -0.1852     0.2424    24.2601     1.2042   387.8400    23.8722    -0.0176
 1214   24.260   3106.69    24.8714     0.3120    -0.1905     0.2426    24.7902     1.2623   388.1600    24.4020    -0.0179
 1215   24.280   3107.73    25.3106     0.3362    -0.0933     0.2428    25.2534     1.3313   388.4800    24.8649    -0.0152
 1216   24.300   3108.83    25.2782     0.3523     0.0163     0.2430    25.2707     1.3892   388.8000    24.8819    -0.0105
 1217   24.320   3109.89    24.7798     0.3532     0.1104     0.2432    24.8107     1.4173   389.1200    24.4216    -0.0069
 1218   24.340   3110.97    24.2812     0.3427     0.1622     0.2434    24.3430     1.4055   389.4400    23.9535    -0.0040
 1219   24.360   3111.99    23.9577     0.3315     0.1847     0.2436    24.0270     1.3792   389.7600    23.6372    -0.0033
 1220   24.380   3113.02    23.5157     0.3269     0.2086     0.2438    23.6004     1.3862   390.0800    23.2103    -0.0018
 1221   24.400   3114.13    23.0580     0.3318     0.2113     0.2440    23.1491     1.4352   390.4000    22.7587    -0.0012
 1222   24.420   3115.25    23.2522     0.3357     0.2276     0.2442    23.3494     1.4531   390.7200    22.9586    -0.0006
 1223   24.440   3116.28    24.3068     0.3374     0.2240     0.2444    24.3990     1.4127   391.0400    24.0080    -0.0010
 1224   24.460   3117.37    25.7122     0.3508     0.2435     0.2446    25.8146     1.3870   391.3600    25.4232     0.0000
 1225   24.480   3118.46    26.7906     0.3699     0.2160     0.2448    26.8856     1.3948   391.6800    26.4940    -0.0007
 1226   24.500   3119.51    27.2625     0.3836     0.2343     0.2450    27.3614     1.4117   392.0000    26.9694    -0.0004
 1227   24.520   3120.57    27.4268     0.3862     0.2434     0.2452    27.5198     1.4069   392.3200    27.1275    -0.0009
 1228   24.540   3121.57    27.2443     0.3837     0.2445     0.2454    27.3479     1.4055   392.6400    26.9552     0.0000
 1229   24.560   3122.58    27.0490     0.3784     0.2447     0.2456    27.1521     1.3945   392.9600    26.7591     0.0000
 1230   24.580   3123.65    26.6422     0.3727     0.2647     0.2458    26.7384     1.3898   393.2800    26.3452    -0.0006
 1231   24.600   3124.75    25.9413     0.3626     0.2448     0.2460    26.0480     1.3817   393.6000    25.6544     0.0003
 1232   24.620   3125.77    25.2073     0.3514     0.2376     0.2462    25.3101     1.3772   393.9200    24.9162    -0.0001
 1233   24.640   3126.79    24.3085     0.3366     0.2198     0.2464    24.3997     1.3634   394.2400    24.0055    -0.0012
 1234   24.660   3127.77    23.2295     0.3190     0.2271     0.2466    23.3286     1.3557   394.5600    22.9340    -0.0005
 1235   24.680   3128.85    21.9325     0.2998     0.2296     0.2468    22.0278     1.3630   394.8800    21.6329    -0.0009
 1236   24.700   3129.94    20.4869     0.2846     0.2251     0.2470    20.5816     1.3816   395.2000    20.1864    -0.0011
 1237   24.720   3130.95    18.9193     0.2727     0.2264     0.2472    19.0123     1.4365   395.5200    18.6168    -0.0014
 1238   24.740   3131.99    17.0195     0.2584     0.2179     0.2474    17.1179     1.4420   395.8400    16.7220    -0.0008
 1239   24.760   3132.92    15.2941     0.2383     0.2015     0.2476    15.3802     1.4887   396.1600    14.9840    -0.0028
 1240   24.780   3133.88    13.8091     0.2011     0.2119     0.2478    13.8947     1.4268   396.4800    13.4983    -0.0033
 1241   24.800   3134.95    13.0854     0.1829     0.2235     0.2480    13.1780     1.3876   396.8000    12.7812    -0.0021
 1242   24.820   3135.97    13.0433     0.1710     0.2318     0.2482    13.1387     1.3109   397.1200    12.7416    -0.0016
 1243   24.840   3137.10    12.6826     0.1675     0.2117     0.2484    12.7740     1.3133   397.4400    12.3765    -0.0025
 1244   24.860   3138.15    12.2209     0.1520     0.1522     0.2486    12.2911     1.2370   397.7600    11.8933    -0.0069
 1245   24.880   3139.21    11.9004     0.1433     0.1434     0.2488    11.9789     1.2020   398.0800    11.5808    -0.0054
 1246   24.900   3140.28    11.9273     0.1288     0.0608     0.2490    11.9519     1.0851   398.4000    11.5535    -0.0165
 1247   24.920   3141.38    12.3138     0.1073     0.0576     0.2492    12.3406     0.8807   398.7200    11.9419    -0.0155
 1248   24.940   3142.50    14.0472     0.1065     0.0544     0.2494    14.0831     0.7963   399.0400    13.6841    -0.0120
 1249   24.960   3143.59    16.8618     0.1170     0.0041     0.2496    16.8632     0.7303   399.3600    16.4638    -0.0150
 1250   24.980   3144.65    19.1530     0.1408    -0.2190     0.2498    19.0977     0.7640   399.6800    18.6980    -0.0204
 1251   25.000   3145.67    20.6935     0.1748    -0.0821     0.2500    20.6110     0.8649   400.0000    20.2110    -0.0221
 1252   25.020   3146.69    21.2523     0.2046    -0.0844     0.2502    21.2232     0.9669   400.3200    20.8229    -0.0153
 1253   25.040   3147.79    21.1470     0.2349    -0.2204     0.2504    21.0782     1.1082   400.6400    20.6775    -0.0200
 1254   25.060   3148.88    21.5985     0.2612    -0.2346     0.2506    21.4968     1.2133   400.9600    21.0958    -0.0234
 1255   25.080   3149.87    22.4188     0.2681    -0.1644     0.2508    22.3349     1.1974   401.2800    21.9336    -0.0206
 1256   25.100   3150.89    22.0073     0.2674    -0.0754     0.2510    21.9656     1.1942   401.6000    21.5640    -0.0162
 1257   25.120   3151.90    20.0283     0.2646    -0.0098     0.2512    20.0173     1.2586   401.9200    19.6154    -0.0141
 1258   25.140   3152.91    17.8155     0.2499     0.0138     0.2514    17.8107     1.3612   402.2400    17.4084    -0.0151
 1259   25.160   3153.95    15.5503     0.2364     0.0522     0.2516    15.5816     1.4837   402.5600    15.1790    -0.0117
 1260   25.180   3154.98    13.2961     0.2199     0.0678     0.2518    13.3219     1.6213   402.8800    12.9190    -0.0147
 1261   25.200   3155.99    10.9204     0.1937     0.0421     0.2520    10.9437     1.7646   403.2000    10.5405    -0.0187
 1262   25.220   3157.05     8.3269     0.1599     0.0730     0.2522     8.3500     1.6855   403.5200     7.9465    -0.0248
 1263   25.240   3158.18     6.9276     0.1438     0.1288     0.2524     6.9673     2.0738   403.8400     6.5635    -0.0240
 1264   25.260   3159.32     7.1533     0.1342     0.2441     0.2526     7.2394     1.8806   404.1600     6.8353    -0.0070
 1265   25.280   3160.41     7.5637     0.1219     0.2647     0.2528     7.6777     1.6138   404.4800     7.2733     0.0026
 1266   25.300   3161.53     7.4508     0.1066     0.1928     0.2530     7.5614     1.4292   404.8000     7.1566     0.0014
 1267   25.320   3162.62     7.3817     0.1051     0.1636     0.2532     7.4477     1.4208   405.1200     7.0426    -0.0136
 1268   25.340   3163.72     7.0802     0.1085     0.1631     0.2534     7.1528     1.5083   405.4400     6.7474    -0.0119
 1269   25.360   3164.85     6.8250     0.0998     0.2132     0.2536     6.9085     1.4653   405.7600     6.5027    -0.0085
 1270   25.380   3165.96     7.5280     0.1302     0.2219     0.2538     7.6159     1.8356   406.0800     7.2099    -0.0062
 1271   25.400   3167.01     9.2684     0.3012     0.2443     0.2540     9.3730     3.2654   406.4000     8.9666    -0.0006
 1272   25.420   3168.16    12.2440                0.1696     0.2542    12.3191              406.7200    11.9124    -0.0063
 1273   25.440   3169.37    17.9649                0.0438     0.2544    18.0176              407.0400    17.6106    -0.0072
 1274   25.460   3170.59    25.4133               -0.0404     0.2546    25.3971              407.3600    24.9897    -0.0117
 1275   25.480   3171.85    32.9670               -0.0122     0.2548    32.9378              407.6800    32.5302    -0.0101
 1276   25.500   3173.51    50.4558               -0.1391     0.2550    50.4187              408.0000    50.0107    -0.0069
 1277   25.509   3174.06    55.8002                           0.2551    55.7352              408.1465    55.3271    -0.0074
 
 
