

 Program UNIPLOT                         version 05.36.02
 _______________
 (c) Fugro Netherlands Marine, Nootdorp, The Netherlands


 ASCII representation of data plotted on a graph.

 This ASCII file presents data interpolated to values per fixed depth interval.
 The data are corrected for the depth-offset differences between the various 
 transducers in the penetrometer.

 The records at the start of penetration may include no values or anomalous
 values where a depth offset implies incomplete penetration of a particular
 sensor into the ground.

 The records at the end of penetration may include no values for data channels
 where the transducer did not reach this depth.

 The reference level for test values is (1) the ground surface for onshore tests and (2) the seafloor for nearshore and offshore tests.

 UNICAS data file          : CPT-1039.000                            
 Output using command file : PlotASCII.cmd

 ASCII file created at : date          :21-Apr-2022
                         time          :15:40:02
 Project number                        :20024805                                                                                            
 Date of testing                       :14-Apr-2022                                                                                         
 Location                              :Hong Kong Offshore Wind Farm Project                                                                
 Test name                             :CPT-1039
 Penetrometer                          :F7.5CKE2HAW2/B/3342
 Serial no                             :1701-3342

 Table description:
 Column ID                             :Parameter name
 ___________________________________________________________________________________
 Rec                                   :Record ID, Record ID [-]
 Depth                                 :Depth, Depth [m]
 Time                                  :Time, Time [s]
 Cone                                  :Cone Resistance, Cone Resistance [MPa]
 Friction                              :Sleeve Friction, Sleeve Friction [MPa]
 Pore 2                                :Porewater Pressure, Porewater Pressure at Shoulder [MPa]
 HydroPress                            :Hydrostatic Pressure, Hydrostatic Pressure [MPa]
 qt                                    :Total Cone Resistance, Total Cone Resistance [MPa]
 Fric_ratio                            :Friction Ratio, Friction Ratio [%]
 SigmaVert                             :Vertical stress, Vertical stress [kPa] as specified in ground model
 Qnet                                  :Net Cone Resistance, Net Cone Resistance [MPa], unit weight as specified in ground model
 Bq                                    :Porewater Pressure Ratio, Porewater Pressure Ratio [-], unit weight as specified in ground model


 Data table:
  Rec    Depth      Time       Cone   Friction     Pore 2 HydroPress         qt Fric_ratio  SigmaVert       Qnet         Bq
   No        m         s        MPa        MPa        MPa        MPa        MPa          %        kPa        MPa          -
    1    0.000   1346.16     0.0000                           0.0000     0.0000                0.0000     0.0000           
    2    0.020   1347.11     0.0015                0.0004     0.0002     0.0016                0.3200     0.0013     0.0521
    3    0.040   1348.04     0.0013                0.0008     0.0004     0.0016                0.6400     0.0010     0.3401
    4    0.060   1348.98     0.0023                0.0011     0.0006     0.0028                0.9600     0.0018     0.2996
    5    0.080   1349.91     0.0016     0.0003     0.0014     0.0008     0.0021    16.7364     1.2800     0.0008     0.5600
    6    0.100   1350.90     0.0023     0.0003     0.0016     0.0010     0.0030    15.9800     1.6000     0.0014     0.4576
    7    0.120   1351.83     0.0035     0.0002     0.0016     0.0012     0.0041     7.3968     1.9200     0.0022     0.2174
    8    0.140   1352.76     0.0025     0.0004     0.0018     0.0014     0.0033    15.4980     2.2400     0.0010     0.6064
    9    0.160   1353.70     0.0068     0.0005     0.0017     0.0016     0.0075    12.6267     2.5600     0.0049     0.0514
   10    0.180   1354.63     0.0062     0.0005     0.0019     0.0018     0.0071     6.5207     2.8800     0.0042     0.0737
   11    0.200   1355.59     0.0117     0.0006     0.0018     0.0020     0.0126     7.1069     3.2000     0.0094     0.0067
   12    0.220   1356.54     0.0151     0.0009     0.0013     0.0022     0.0156     6.9793     3.5200     0.0121    -0.0772
   13    0.240   1357.51     0.0136     0.0009     0.0007     0.0024     0.0140     7.8451     3.8400     0.0102    -0.1377
   14    0.260   1358.45     0.0140     0.0009    -0.0003     0.0026     0.0141     6.5556     4.1600     0.0099    -0.2515
   15    0.280   1359.36     0.0115     0.0012    -0.0007     0.0028     0.0112    10.5992     4.4800     0.0067    -0.5408
   16    0.300   1360.32     0.0162     0.0013     0.0000     0.0030     0.0163     8.3418     4.8000     0.0115    -0.2497
   17    0.320   1361.29     0.0162     0.0011     0.0008     0.0032     0.0165     6.7177     5.1200     0.0114    -0.2206
   18    0.340   1362.27     0.0163     0.0013     0.0015     0.0034     0.0169     8.7983     5.4400     0.0114    -0.1770
   19    0.360   1363.22     0.0165     0.0014     0.0028     0.0036     0.0173     9.5887     5.7600     0.0116    -0.1341
   20    0.380   1364.13     0.0148     0.0012     0.0028     0.0038     0.0162     6.4896     6.0800     0.0102    -0.0324
   21    0.400   1365.10     0.0191     0.0015     0.0028     0.0040     0.0202     7.7784     6.4000     0.0138    -0.0899
   22    0.420   1366.04     0.0199     0.0018     0.0030     0.0042     0.0212    11.1814     6.7200     0.0145    -0.0740
   23    0.440   1366.96     0.0184     0.0016     0.0014     0.0044     0.0192     9.6721     7.0400     0.0121    -0.2007
   24    0.460   1367.90     0.0163     0.0019     0.0014     0.0046     0.0169    11.2938     7.3600     0.0095    -0.3491
   25    0.480   1368.86     0.0185     0.0023     0.0018     0.0048     0.0192    12.8878     7.6800     0.0115    -0.2745
   26    0.500   1369.85     0.0141     0.0025     0.0020     0.0050     0.0148    18.3006     8.0000     0.0068    -0.5012
   27    0.520   1370.76     0.0164     0.0024     0.0030     0.0052     0.0176    15.0696     8.3200     0.0093    -0.2546
   28    0.540   1371.71     0.0174     0.0022     0.0041     0.0054     0.0189    13.1444     8.6400     0.0103    -0.1880
   29    0.560   1375.71     0.0147     0.0023     0.0040     0.0056     0.0164    12.8869     8.9600     0.0075     0.0053
   30    0.580   1381.88     0.0082     0.0024     0.0037     0.0058     0.0098    12.7933     9.2800     0.0005     0.1948
   31    0.600   1388.05     0.0017     0.0023     0.0040     0.0060     0.0032    47.3544     9.6000    -0.0064     0.3844
   32    0.620   1389.10     0.0022     0.0025     0.0049     0.0062     0.0042   178.8580     9.9200    -0.0057     0.2505
   33    0.640   1390.05     0.0028     0.0027     0.0051     0.0064     0.0049   115.4861    10.2400    -0.0053     0.2566
   34    0.660   1391.00     0.0034     0.0023     0.0056     0.0066     0.0056    53.7508    10.5600    -0.0049     0.2902
   35    0.680   1391.95     0.0015     0.0021     0.0062     0.0068     0.0041   331.1089    10.8800    -0.0068     0.1197
   36    0.700   1392.91     0.0043     0.0021     0.0068     0.0070     0.0071   271.1378    11.2000    -0.0041     0.1200
   37    0.720   1393.87     0.0012     0.0020     0.0084     0.0072     0.0045   199.0287    11.5200    -0.0071    -0.0821
   38    0.740   1394.80     0.0020     0.0017     0.0093     0.0074     0.0057   102.8862    11.8400    -0.0061    -0.2672
   39    0.760   1395.75     0.0030     0.0019     0.0101     0.0076     0.0071    75.5972    12.1600    -0.0050    -0.5058
   40    0.780   1396.97     0.0065     0.0019     0.0106     0.0078     0.0110    33.9535    12.4800    -0.0015    -2.0117
   41    0.800   1420.09     0.0086     0.0018     0.0097     0.0080     0.0128    88.9345    12.8000     0.0000    -1.1971
   42    0.820   1445.80     0.0109     0.0023     0.0088     0.0082     0.0147   109.2868    13.1200     0.0016    -0.0906
   43    0.840   1454.31     0.0138     0.0019     0.0103     0.0084     0.0178    14.8473    13.4400     0.0044     0.2473
   44    0.860   1455.32     0.0138     0.0016     0.0119     0.0086     0.0184    10.8506    13.7600     0.0047     0.5342
   45    0.880   1456.26     0.0115     0.0019     0.0128     0.0088     0.0168    14.8002    14.0800     0.0027     1.4056
   46    0.900   1457.22     0.0142     0.0016     0.0127     0.0090     0.0196    13.5292    14.4000     0.0052     0.7814
   47    0.920   1458.17     0.0168     0.0020     0.0133     0.0092     0.0224    11.8912    14.7200     0.0077     0.5513
   48    0.940   1459.11     0.0184     0.0020     0.0142     0.0094     0.0242    14.9026    15.0400     0.0092     0.5182
   49    0.960   1460.06     0.0184     0.0019     0.0150     0.0096     0.0247    10.9250    15.3600     0.0093     0.5667
   50    0.980   1460.98     0.0209     0.0017     0.0154     0.0098     0.0273     7.7985    15.6800     0.0116     0.4809
   51    1.000   1461.94     0.0205     0.0016     0.0161     0.0100     0.0271     7.9675    16.0000     0.0111     0.5200
   52    1.020   1462.88     0.0187     0.0019     0.0163     0.0102     0.0255     9.7014    16.3200     0.0091     0.6500
   53    1.040   1463.84     0.0232     0.0020     0.0164     0.0104     0.0302     9.0570    16.6400     0.0135     0.4837
   54    1.060   1464.77     0.0211     0.0017     0.0163     0.0106     0.0279     8.8196    16.9600     0.0110     0.5216
   55    1.080   1465.71     0.0204     0.0019     0.0162     0.0108     0.0272     9.3422    17.2800     0.0099     0.5463
   56    1.100   1466.65     0.0220     0.0020     0.0161     0.0110     0.0289     8.6879    17.6000     0.0113     0.4712
   57    1.120   1467.57     0.0200     0.0021     0.0166     0.0112     0.0269     9.2182    17.9200     0.0090     0.5834
   58    1.140   1468.54     0.0219     0.0017     0.0174     0.0114     0.0291     7.9619    18.2400     0.0108     0.5315
   59    1.160   1469.52     0.0238     0.0021     0.0187     0.0116     0.0314     9.5180    18.5600     0.0129     0.5062
   60    1.180   1470.41     0.0239     0.0022     0.0201     0.0118     0.0322     8.5832    18.8800     0.0133     0.6007
   61    1.200   1471.36     0.0241     0.0021     0.0203     0.0120     0.0326     8.9594    19.2000     0.0134     0.6273
   62    1.220   1472.34     0.0246     0.0022     0.0200     0.0122     0.0329     9.1222    19.5200     0.0134     0.5741
   63    1.240   1473.30     0.0273     0.0021     0.0205     0.0124     0.0358     8.1142    19.8400     0.0160     0.4897
   64    1.260   1474.20     0.0252     0.0021     0.0207     0.0126     0.0339     7.8379    20.1600     0.0137     0.5876
   65    1.280   1475.13     0.0227     0.0021     0.0209     0.0128     0.0315     8.9579    20.4800     0.0110     0.7470
   66    1.300   1476.10     0.0243     0.0019     0.0217     0.0130     0.0333     8.2555    20.8000     0.0125     0.6740
   67    1.320   1477.07     0.0229     0.0015     0.0225     0.0132     0.0322     6.7234    21.1200     0.0110     0.8111
   68    1.340   1478.00     0.0205     0.0015     0.0236     0.0134     0.0303     7.4228    21.4400     0.0088     1.1183
   69    1.360   1478.94     0.0211     0.0019     0.0245     0.0136     0.0313     8.7468    21.7600     0.0095     1.1388
   70    1.380   1479.91     0.0231     0.0018     0.0248     0.0138     0.0335     8.0921    22.0800     0.0114     0.9528
   71    1.400   1480.85     0.0271     0.0019     0.0246     0.0140     0.0375     7.3574    22.4000     0.0151     0.7261
   72    1.420   1481.78     0.0254     0.0018     0.0238     0.0142     0.0354     7.1704    22.7200     0.0127     0.7786
   73    1.440   1482.73     0.0258     0.0021     0.0241     0.0144     0.0359     7.7888    23.0400     0.0128     0.7448
   74    1.460   1483.64     0.0289     0.0022     0.0240     0.0146     0.0388     7.5613    23.3600     0.0155     0.5915
   75    1.480   1484.61     0.0267     0.0020     0.0249     0.0148     0.0370     8.3551    23.6800     0.0133     0.7216
   76    1.500   1485.56     0.0289     0.0023     0.0261     0.0150     0.0397     7.7710    24.0000     0.0157     0.6923
   77    1.520   1486.50     0.0290     0.0020     0.0270     0.0152     0.0402     7.0305    24.3200     0.0159     0.7277
   78    1.540   1487.45     0.0266     0.0019     0.0268     0.0154     0.0379     6.7814    24.6400     0.0133     0.8749
   79    1.560   1488.38     0.0291     0.0020     0.0271     0.0156     0.0404     7.6639    24.9600     0.0154     0.7655
   80    1.580   1489.33     0.0302     0.0021     0.0268     0.0158     0.0415     6.9353    25.2800     0.0162     0.6963
   81    1.600   1490.29     0.0314     0.0022     0.0246     0.0160     0.0423     6.9192    25.6000     0.0167     0.5933
   82    1.620   1491.24     0.0325     0.0023     0.0244     0.0162     0.0430     7.3714    25.9200     0.0170     0.5065
   83    1.640   1492.21     0.0302     0.0025     0.0243     0.0164     0.0403     7.8825    26.2400     0.0141     0.5556
   84    1.660   1493.12     0.0361     0.0023     0.0272     0.0166     0.0471     6.7037    26.5600     0.0206     0.4769
   85    1.680   1494.08     0.0384     0.0021     0.0292     0.0168     0.0504     5.7315    26.8800     0.0236     0.5025
   86    1.700   1495.00     0.0367     0.0024     0.0313     0.0170     0.0496     6.6536    27.2000     0.0224     0.6093
   87    1.720   1495.94     0.0361     0.0025     0.0324     0.0172     0.0495     6.8017    27.5200     0.0220     0.6700
   88    1.740   1496.88     0.0350     0.0024     0.0342     0.0174     0.0491     6.6918    27.8400     0.0213     0.7555
   89    1.760   1497.82     0.0369     0.0022     0.0343     0.0176     0.0513     6.0927    28.1600     0.0231     0.7187
   90    1.780   1498.76     0.0399     0.0022     0.0361     0.0178     0.0546     5.5242    28.4800     0.0261     0.6562
   91    1.800   1499.72     0.0368     0.0021     0.0373     0.0180     0.0523     5.5268    28.8000     0.0235     0.8113
   92    1.820   1500.66     0.0394     0.0018     0.0392     0.0182     0.0555     4.5404    29.1200     0.0264     0.7619
   93    1.840   1501.63     0.0417     0.0023     0.0408     0.0184     0.0588     6.0055    29.4400     0.0294     0.7630
   94    1.860   1502.61     0.0441     0.0022     0.0401     0.0186     0.0607     4.8378    29.7600     0.0310     0.6815
   95    1.880   1503.54     0.0470     0.0021     0.0380     0.0188     0.0630     4.8062    30.0800     0.0329     0.5864
   96    1.900   1504.47     0.0458     0.0025     0.0362     0.0190     0.0615     5.3147    30.4000     0.0311     0.5902
   97    1.920   1505.43     0.0495     0.0022     0.0360     0.0192     0.0644     4.7625    30.7200     0.0337     0.4866
   98    1.940   1506.34     0.0508     0.0026     0.0398     0.0194     0.0672     5.0215    31.0400     0.0361     0.5420
   99    1.960   1507.27     0.0548     0.0023     0.0407     0.0196     0.0720     4.4829    31.3600     0.0407     0.5272
  100    1.980   1508.22     0.0539     0.0024     0.0401     0.0198     0.0706     4.2932    31.6800     0.0389     0.5091
  101    2.000   1509.13     0.0562     0.0022     0.0422     0.0200     0.0738     3.8070    32.0000     0.0418     0.5239
  102    2.020   1510.08     0.0615     0.0024     0.0417     0.0202     0.0794     4.2792    32.3200     0.0470     0.4749
  103    2.040   1511.04     0.0578     0.0022     0.0426     0.0204     0.0755     3.7554    32.6400     0.0428     0.5074
  104    2.060   1511.96     0.0632     0.0024     0.0427     0.0206     0.0812     3.9891    32.9600     0.0482     0.4620
  105    2.080   1512.93     0.0676     0.0028     0.0463     0.0208     0.0863     4.2396    33.2800     0.0530     0.4484
  106    2.100   1513.85     0.0736     0.0024     0.0481     0.0210     0.0936     3.4115    33.6000     0.0600     0.4433
  107    2.120   1514.79     0.0737     0.0029     0.0428     0.0212     0.0923     3.9302    33.9200     0.0584     0.3966
  108    2.140   1515.74     0.0707     0.0032     0.0337     0.0214     0.0860     4.3160    34.2400     0.0517     0.2878
  109    2.160   1516.71     0.0691     0.0033     0.0327     0.0216     0.0820     4.6163    34.5600     0.0474     0.1912
  110    2.180   1517.60     0.0655     0.0032     0.0410     0.0218     0.0818     4.9725    34.8800     0.0469     0.3598
  111    2.200   1518.58     0.0664     0.0030     0.0468     0.0220     0.0852     4.5537    35.2000     0.0500     0.4569
  112    2.220   1519.54     0.0679     0.0028     0.0500     0.0222     0.0885     4.0618    35.5200     0.0530     0.5077
  113    2.240   1520.47     0.0685     0.0026     0.0505     0.0224     0.0898     3.7349    35.8400     0.0540     0.5238
  114    2.260   1521.42     0.0667     0.0026     0.0516     0.0226     0.0881     3.7774    36.1600     0.0519     0.5448
  115    2.280   1522.40     0.0663     0.0029     0.0548     0.0228     0.0887     4.3697    36.4800     0.0522     0.5859
  116    2.300   1523.33     0.0671     0.0025     0.0583     0.0230     0.0913     3.6584    36.8000     0.0545     0.6342
  117    2.320   1524.31     0.0696     0.0025     0.0582     0.0232     0.0937     3.8033    37.1200     0.0566     0.6059
  118    2.340   1525.25     0.0762     0.0027     0.0587     0.0234     0.1008     3.6072    37.4400     0.0633     0.5569
  119    2.360   1526.19     0.0779     0.0029     0.0572     0.0236     0.1024     3.7168    37.7600     0.0646     0.5360
  120    2.380   1527.14     0.0793     0.0033     0.0530     0.0238     0.1021     4.1917    38.0800     0.0640     0.4778
  121    2.400   1528.11     0.0831     0.0032     0.0516     0.0240     0.1045     4.1217    38.4000     0.0661     0.4093
  122    2.420   1529.05     0.0811     0.0031     0.0517     0.0242     0.1027     3.8146    38.7200     0.0640     0.4271
  123    2.440   1530.01     0.0848     0.0034     0.0524     0.0244     0.1066     4.1330    39.0400     0.0676     0.4077
  124    2.460   1530.94     0.0904     0.0037     0.0552     0.0246     0.1132     4.1280    39.3600     0.0739     0.4026
  125    2.480   1531.87     0.0939     0.0037     0.0587     0.0248     0.1178     3.9143    39.6800     0.0782     0.4120
  126    2.500   1532.82     0.0950     0.0032     0.0539     0.0250     0.1191     3.3706    40.0000     0.0791     0.4087
  127    2.520   1533.80     0.0948     0.0027     0.0495     0.0252     0.1159     2.8855    40.3200     0.0756     0.3315
  128    2.540   1534.70     0.0895     0.0029     0.0549     0.0254     0.1118     3.1726    40.6400     0.0712     0.3905
  129    2.560   1535.67     0.0880     0.0029     0.0585     0.0256     0.1124     3.2885    40.9600     0.0714     0.4550
  130    2.580   1536.62     0.0860     0.0030     0.0610     0.0258     0.1116     3.4560    41.2800     0.0703     0.5007
  131    2.600   1537.61     0.0794     0.0027     0.0600     0.0260     0.1047     3.3327    41.6000     0.0631     0.5441
  132    2.620   1538.51     0.0743     0.0027     0.0545     0.0262     0.0986     3.4919    41.9200     0.0567     0.5573
  133    2.640   1539.45     0.0739     0.0027     0.0473     0.0264     0.0944     3.5958    42.2400     0.0522     0.4270
  134    2.660   1540.38     0.0776     0.0030     0.0493     0.0266     0.0976     4.1140    42.5600     0.0550     0.3841
  135    2.680   1541.33     0.0805     0.0029     0.0545     0.0268     0.1028     3.4805    42.8800     0.0599     0.4399
  136    2.700   1542.26     0.0955     0.0034     0.0583     0.0270     0.1195     3.6299    43.2000     0.0763     0.3969
  137    2.720   1543.22     0.1077     0.0040     0.0615     0.0272     0.1334     3.7794    43.5200     0.0899     0.3790
  138    2.740   1544.17     0.1112     0.0039     0.0644     0.0274     0.1382     3.5070    43.8400     0.0944     0.3919
  139    2.760   1545.09     0.1142     0.0039     0.0619     0.0276     0.1406     3.3867    44.1600     0.0964     0.3650
  140    2.780   1546.05     0.1100     0.0042     0.0584     0.0278     0.1352     3.7845    44.4800     0.0907     0.3540
  141    2.800   1562.74     0.1081     0.0042     0.0531     0.0280     0.1312     3.8358    44.8000     0.0864     0.3083
  142    2.820   1581.95     0.1065     0.0041     0.0479     0.0282     0.1274     3.7373    45.1200     0.0823     0.2582
  143    2.840   1594.52     0.1035     0.0038     0.0513     0.0284     0.1242     3.5598    45.4400     0.0788     0.2651
  144    2.860   1595.46     0.1085     0.0037     0.0571     0.0286     0.1316     3.4001    45.7600     0.0858     0.3054
  145    2.880   1596.42     0.1104     0.0036     0.0647     0.0288     0.1364     3.3222    46.0800     0.0903     0.3680
  146    2.900   1597.36     0.1129     0.0033     0.0671     0.0290     0.1410     3.0001    46.4000     0.0946     0.4031
  147    2.920   1598.32     0.1130     0.0033     0.0692     0.0292     0.1416     2.9201    46.7200     0.0949     0.4105
  148    2.940   1599.27     0.1190     0.0031     0.0667     0.0294     0.1477     2.6835    47.0400     0.1006     0.3877
  149    2.960   1600.18     0.1243     0.0030     0.0619     0.0296     0.1508     2.4670    47.3600     0.1035     0.3253
  150    2.980   1601.15     0.1209     0.0035     0.0606     0.0298     0.1467     2.9238    47.6800     0.0990     0.3184
  151    3.000   1602.06     0.1241     0.0031     0.0606     0.0300     0.1497     2.4878    48.0000     0.1017     0.3033
  152    3.020   1603.03     0.1214     0.0031     0.0575     0.0302     0.1459     2.5303    48.3200     0.0976     0.2895
  153    3.040   1603.97     0.1271     0.0031     0.0549     0.0304     0.1503     2.5094    48.6400     0.1017     0.2462
  154    3.060   1604.91     0.1262     0.0038     0.0563     0.0306     0.1501     2.9744    48.9600     0.1011     0.2582
  155    3.080   1605.79     0.1212     0.0038     0.0517     0.0308     0.1435     3.0621    49.2800     0.0942     0.2360
  156    3.100   1606.73     0.1193     0.0039     0.0554     0.0310     0.1410     3.3105    49.6000     0.0914     0.2257
  157    3.120   1607.69     0.1103     0.0037     0.0595     0.0312     0.1350     3.2302    49.9200     0.0851     0.3265
  158    3.140   1608.63     0.1084     0.0035     0.0612     0.0314     0.1343     3.2291    50.2400     0.0841     0.3607
  159    3.160   1609.57     0.1099     0.0036     0.0619     0.0316     0.1363     3.1648    50.5600     0.0857     0.3643
  160    3.180   1610.53     0.1136     0.0036     0.0657     0.0318     0.1400     3.2941    50.8800     0.0891     0.3472
  161    3.200   1611.47     0.1219     0.0036     0.0664     0.0320     0.1502     3.0426    51.2000     0.0990     0.3577
  162    3.220   1612.42     0.1280     0.0033     0.0715     0.0322     0.1568     2.6019    51.5200     0.1053     0.3453
  163    3.240   1613.34     0.1318     0.0037     0.0760     0.0324     0.1636     2.8683    51.8400     0.1118     0.3889
  164    3.260   1614.27     0.1276     0.0033     0.0700     0.0326     0.1586     2.5455    52.1600     0.1064     0.3879
  165    3.280   1615.21     0.1289     0.0031     0.0655     0.0328     0.1563     2.4052    52.4800     0.1038     0.3129
  166    3.300   1616.15     0.1278     0.0035     0.0690     0.0330     0.1565     2.7653    52.8000     0.1037     0.3406
  167    3.320   1617.08     0.1274     0.0039     0.0714     0.0332     0.1565     3.1777    53.1200     0.1034     0.3485
  168    3.340   1618.06     0.1212     0.0034     0.0775     0.0334     0.1531     2.8247    53.4400     0.0997     0.4269
  169    3.360   1619.01     0.1243     0.0038     0.0811     0.0336     0.1579     3.1226    53.7600     0.1041     0.4462
  170    3.380   1619.96     0.1283     0.0038     0.0812     0.0338     0.1624     2.9948    54.0800     0.1084     0.4384
  171    3.400   1620.91     0.1317     0.0041     0.0808     0.0340     0.1659     3.1677    54.4000     0.1115     0.4245
  172    3.420   1621.86     0.1330     0.0040     0.0794     0.0342     0.1659     3.0085    54.7200     0.1112     0.3983
  173    3.440   1622.81     0.1393     0.0038     0.0769     0.0344     0.1716     2.7456    55.0400     0.1166     0.3644
  174    3.460   1623.74     0.1406     0.0038     0.0757     0.0346     0.1718     2.6992    55.3600     0.1164     0.3412
  175    3.480   1624.71     0.1410     0.0039     0.0807     0.0348     0.1726     2.8142    55.6800     0.1169     0.3440
  176    3.500   1625.62     0.1408     0.0041     0.0828     0.0350     0.1757     2.8767    56.0000     0.1197     0.4017
  177    3.520   1626.54     0.1446     0.0037     0.0799     0.0352     0.1786     2.6122    56.3200     0.1223     0.3733
  178    3.540   1627.52     0.1507     0.0039     0.0770     0.0354     0.1834     2.6524    56.6400     0.1268     0.3346
  179    3.560   1628.45     0.1540     0.0038     0.0756     0.0356     0.1861     2.5097    56.9600     0.1292     0.3163
  180    3.580   1629.37     0.1505     0.0040     0.0726     0.0358     0.1812     2.6058    57.2800     0.1240     0.3015
  181    3.600   1630.32     0.1437     0.0040     0.0798     0.0360     0.1765     2.7273    57.6000     0.1189     0.3552
  182    3.620   1631.25     0.1422     0.0040     0.0795     0.0362     0.1760     2.8239    57.9200     0.1181     0.3747
  183    3.640   1632.19     0.1423     0.0035     0.0789     0.0364     0.1750     2.4472    58.2400     0.1168     0.3566
  184    3.660   1633.17     0.1479     0.0037     0.0809     0.0366     0.1816     2.6145    58.5600     0.1230     0.3555
  185    3.680   1634.08     0.1493     0.0037     0.0782     0.0368     0.1832     2.5153    58.8800     0.1243     0.3528
  186    3.700   1635.06     0.1521     0.0039     0.0781     0.0370     0.1842     2.5816    59.2000     0.1250     0.3162
  187    3.720   1635.97     0.1548     0.0039     0.0848     0.0372     0.1898     2.5457    59.5200     0.1303     0.3536
  188    3.740   1636.93     0.1635     0.0040     0.0774     0.0374     0.1975     2.5414    59.8400     0.1377     0.3169
  189    3.760   1637.86     0.1648     0.0037     0.0816     0.0376     0.1973     2.2557    60.1600     0.1371     0.2895
  190    3.780   1638.80     0.1669     0.0039     0.0812     0.0378     0.2018     2.3535    60.4800     0.1413     0.3206
  191    3.800   1639.71     0.1674     0.0037     0.0780     0.0380     0.2013     2.1995    60.8000     0.1405     0.3051
  192    3.820   1640.67     0.1652     0.0041     0.0764     0.0382     0.1981     2.4824    61.1200     0.1370     0.2929
  193    3.840   1641.61     0.1666     0.0039     0.0758     0.0384     0.1988     2.3802    61.4400     0.1373     0.2780
  194    3.860   1642.56     0.1694     0.0042     0.0777     0.0386     0.2024     2.5227    61.7600     0.1406     0.2848
  195    3.880   1643.55     0.1657     0.0039     0.0721     0.0388     0.1969     2.3439    62.0800     0.1349     0.2629
  196    3.900   1644.51     0.1639     0.0038     0.0733     0.0390     0.1937     2.3199    62.4000     0.1313     0.2427
  197    3.920   1645.48     0.1651     0.0041     0.0826     0.0392     0.1988     2.4611    62.7200     0.1361     0.3014
  198    3.940   1646.38     0.1628     0.0043     0.0819     0.0394     0.1976     2.6268    63.0400     0.1346     0.3241
  199    3.960   1647.35     0.1670     0.0040     0.0803     0.0396     0.2012     2.4290    63.3600     0.1379     0.3042
  200    3.980   1648.27     0.1615     0.0043     0.0758     0.0398     0.1928     2.6220    63.6800     0.1291     0.2692
  201    4.000   1649.27     0.1543     0.0043     0.0757     0.0400     0.1863     2.7613    64.0000     0.1223     0.2957
  202    4.020   1650.16     0.1472     0.0039     0.0755     0.0402     0.1787     2.6280    64.3200     0.1143     0.3047
  203    4.040   1651.08     0.1481     0.0042     0.0785     0.0404     0.1804     2.8144    64.6400     0.1158     0.3143
  204    4.060   1652.07     0.1472     0.0040     0.0821     0.0406     0.1815     2.7645    64.9600     0.1165     0.3519
  205    4.080   1653.01     0.1426     0.0038     0.0821     0.0408     0.1774     2.7089    65.2800     0.1121     0.3748
  206    4.100   1653.97     0.1420     0.0038     0.0763     0.0410     0.1747     2.6501    65.6000     0.1091     0.3387
  207    4.120   1654.91     0.1365     0.0034     0.0787     0.0412     0.1689     2.4827    65.9200     0.1030     0.3496
  208    4.140   1655.84     0.1384     0.0036     0.0801     0.0414     0.1723     2.5773    66.2400     0.1061     0.3702
  209    4.160   1656.80     0.1344     0.0035     0.0816     0.0416     0.1680     2.6037    66.5600     0.1014     0.3776
  210    4.180   1657.76     0.1395     0.0034     0.0834     0.0418     0.1747     2.4919    66.8800     0.1078     0.3899
  211    4.200   1658.71     0.1435     0.0035     0.0859     0.0420     0.1795     2.4780    67.2000     0.1123     0.3899
  212    4.220   1659.65     0.1489     0.0035     0.0869     0.0422     0.1848     2.3700    67.5200     0.1173     0.3690
  213    4.240   1660.57     0.1533     0.0039     0.0883     0.0424     0.1907     2.5863    67.8400     0.1228     0.3781
  214    4.260   1661.54     0.1598     0.0038     0.0855     0.0426     0.1964     2.3710    68.1600     0.1282     0.3460
  215    4.280   1662.48     0.1603     0.0041     0.0843     0.0428     0.1955     2.5708    68.4800     0.1270     0.3216
  216    4.300   1663.46     0.1634     0.0040     0.0839     0.0430     0.1990     2.4798    68.8000     0.1302     0.3218
  217    4.320   1664.43     0.1649     0.0043     0.0761     0.0432     0.1982     2.5809    69.1200     0.1291     0.2805
  218    4.340   1665.34     0.1609     0.0042     0.0742     0.0434     0.1919     2.5885    69.4400     0.1224     0.2482
  219    4.360   1666.31     0.1609     0.0041     0.0821     0.0436     0.1944     2.5199    69.7600     0.1246     0.2898
  220    4.380   1667.25     0.1649     0.0044     0.0852     0.0438     0.2002     2.7317    70.0800     0.1302     0.3098
  221    4.400   1668.20     0.1790     0.0042     0.0912     0.0440     0.2159     2.3987    70.4000     0.1455     0.3006
  222    4.420   1669.14     0.1858     0.0044     0.0953     0.0442     0.2257     2.4052    70.7200     0.1550     0.3284
  223    4.440   1670.09     0.1906     0.0047     0.0855     0.0444     0.2275     2.4943    71.0400     0.1565     0.2787
  224    4.460   1671.06     0.1928     0.0047     0.0801     0.0446     0.2271     2.4435    71.3600     0.1558     0.2383
  225    4.480   1672.01     0.1889     0.0047     0.0799     0.0448     0.2218     2.4512    71.6800     0.1501     0.2240
  226    4.500   1672.96     0.1851     0.0050     0.0859     0.0450     0.2204     2.7083    72.0000     0.1484     0.2631
  227    4.520   1673.90     0.1814     0.0046     0.0922     0.0452     0.2192     2.5287    72.3200     0.1468     0.3047
  228    4.540   1674.84     0.1774     0.0043     0.0974     0.0454     0.2178     2.3824    72.6400     0.1451     0.3490
  229    4.560   1675.80     0.1795     0.0039     0.1007     0.0456     0.2212     2.1953    72.9600     0.1483     0.3626
  230    4.580   1676.76     0.1793     0.0041     0.1057     0.0458     0.2230     2.2898    73.2800     0.1497     0.3892
  231    4.600   1677.65     0.1787     0.0039     0.1048     0.0460     0.2226     2.2050    73.6000     0.1490     0.3921
  232    4.620   1678.62     0.1840     0.0041     0.1085     0.0462     0.2289     2.2170    73.9200     0.1550     0.3916
  233    4.640   1679.57     0.1896     0.0039     0.1120     0.0464     0.2361     2.0658    74.2400     0.1618     0.3975
  234    4.660   1680.56     0.1905     0.0044     0.1146     0.0466     0.2385     2.2931    74.5600     0.1639     0.4125
  235    4.680   1681.53     0.2011     0.0045     0.1080     0.0468     0.2481     2.3071    74.8800     0.1732     0.3761
  236    4.700   1682.46     0.2071     0.0050     0.0994     0.0470     0.2496     2.4558    75.2000     0.1744     0.3115
  237    4.720   1683.41     0.2100     0.0057     0.0929     0.0472     0.2500     2.7267    75.5200     0.1745     0.2757
  238    4.740   1684.36     0.2081     0.0062     0.0891     0.0474     0.2459     2.9579    75.8400     0.1701     0.2499
  239    4.760   1685.32     0.2046     0.0061     0.0900     0.0476     0.2422     2.9265    76.1600     0.1661     0.2525
  240    4.780   1686.27     0.1946     0.0058     0.0893     0.0478     0.2324     2.9387    76.4800     0.1559     0.2699
  241    4.800   1689.13     0.1913     0.0055     0.0908     0.0480     0.2296     2.8298    76.8000     0.1528     0.2832
  242    4.820   1710.49     0.1810     0.0054     0.0896     0.0482     0.2188     2.7913    77.1200     0.1416     0.2965
  243    4.840   1731.85     0.1706     0.0051     0.0899     0.0484     0.2079     2.6275    77.4400     0.1305     0.3099
  244    4.860   1735.97     0.1645     0.0048     0.0925     0.0486     0.2034     2.9021    77.7600     0.1256     0.3492
  245    4.880   1736.94     0.1623     0.0045     0.0932     0.0488     0.2012     2.7852    78.0800     0.1231     0.3556
  246    4.900   1737.87     0.1596     0.0044     0.0946     0.0490     0.1997     2.7381    78.4000     0.1213     0.3830
  247    4.920   1738.82     0.1582     0.0040     0.0983     0.0492     0.1988     2.5327    78.7200     0.1201     0.3957
  248    4.940   1739.75     0.1606     0.0040     0.1038     0.0494     0.2031     2.4964    79.0400     0.1240     0.4163
  249    4.960   1740.69     0.1584     0.0040     0.1060     0.0496     0.2031     2.5569    79.3600     0.1237     0.4579
  250    4.980   1741.63     0.1572     0.0037     0.1057     0.0498     0.2019     2.3565    79.6800     0.1223     0.4630
  251    5.000   1742.57     0.1567     0.0044     0.1056     0.0500     0.2008     2.7150    80.0000     0.1208     0.4568
  252    5.020   1743.52     0.1590     0.0043     0.1051     0.0502     0.2032     2.7174    80.3200     0.1229     0.4472
  253    5.040   1744.44     0.1622     0.0044     0.1070     0.0504     0.2067     2.8041    80.6400     0.1261     0.4412
  254    5.060   1745.38     0.1661     0.0046     0.1059     0.0506     0.2113     2.7872    80.9600     0.1303     0.4377
  255    5.080   1746.32     0.1720     0.0045     0.1023     0.0508     0.2158     2.6515    81.2800     0.1346     0.3982
  256    5.100   1747.23     0.1670     0.0044     0.1025     0.0510     0.2104     2.6222    81.6000     0.1288     0.4074
  257    5.120   1748.17     0.1686     0.0046     0.1056     0.0512     0.2125     2.7744    81.9200     0.1306     0.4094
  258    5.140   1749.15     0.1667     0.0047     0.1083     0.0514     0.2115     2.8033    82.2400     0.1293     0.4272
  259    5.160   1750.07     0.1623     0.0046     0.1122     0.0516     0.2090     2.7863    82.5600     0.1264     0.4706
  260    5.180   1750.99     0.1625     0.0044     0.1097     0.0518     0.2095     2.7384    82.8800     0.1266     0.4751
  261    5.200   1751.92     0.1608     0.0044     0.1049     0.0520     0.2052     2.7453    83.2000     0.1220     0.4397
  262    5.220   1752.86     0.1574     0.0043     0.1089     0.0522     0.2020     2.7475    83.5200     0.1185     0.4557
  263    5.240   1753.83     0.1636     0.0041     0.1122     0.0524     0.2112     2.5515    83.8400     0.1273     0.4771
  264    5.260   1754.75     0.1613     0.0039     0.1152     0.0526     0.2100     2.4108    84.1600     0.1258     0.5030
  265    5.280   1755.65     0.1664     0.0041     0.1035     0.0528     0.2120     2.4601    84.4800     0.1275     0.4369
  266    5.300   1756.62     0.1642     0.0037     0.1131     0.0530     0.2098     2.2379    84.8000     0.1250     0.4445
  267    5.320   1757.59     0.1657     0.0037     0.1179     0.0532     0.2147     2.2576    85.1200     0.1295     0.4891
  268    5.340   1758.53     0.1701     0.0038     0.1196     0.0534     0.2201     2.2520    85.4400     0.1346     0.4871
  269    5.360   1759.46     0.1711     0.0039     0.1217     0.0536     0.2223     2.2579    85.7600     0.1365     0.5004
  270    5.380   1760.40     0.1685     0.0038     0.1150     0.0538     0.2175     2.2029    86.0800     0.1314     0.4794
  271    5.400   1761.36     0.1740     0.0042     0.1146     0.0540     0.2218     2.4689    86.4000     0.1354     0.4422
  272    5.420   1762.25     0.1796     0.0038     0.1175     0.0542     0.2294     2.1198    86.7200     0.1427     0.4511
  273    5.440   1763.19     0.1835     0.0043     0.1202     0.0544     0.2334     2.3556    87.0400     0.1463     0.4404
  274    5.460   1764.17     0.1873     0.0045     0.1165     0.0546     0.2365     2.4129    87.3600     0.1492     0.4191
  275    5.480   1765.09     0.1978     0.0045     0.1086     0.0548     0.2446     2.2967    87.6800     0.1569     0.3609
  276    5.500   1766.03     0.1958     0.0047     0.1047     0.0550     0.2403     2.4198    88.0000     0.1523     0.3349
  277    5.520   1767.00     0.1962     0.0049     0.0997     0.0552     0.2389     2.4805    88.3200     0.1506     0.3084
  278    5.540   1767.90     0.1943     0.0049     0.1036     0.0554     0.2365     2.5382    88.6400     0.1478     0.3038
  279    5.560   1768.85     0.1928     0.0053     0.1091     0.0556     0.2380     2.7314    88.9600     0.1491     0.3490
  280    5.580   1769.81     0.1905     0.0050     0.1099     0.0558     0.2372     2.5934    89.2800     0.1480     0.3748
  281    5.600   1770.65     0.1848     0.0049     0.1125     0.0560     0.2316     2.5815    89.6000     0.1420     0.3900
  282    5.620   1771.59     0.1847     0.0046     0.1141     0.0562     0.2325     2.4688    89.9200     0.1426     0.4037
  283    5.640   1772.51     0.1854     0.0049     0.1150     0.0564     0.2334     2.6296    90.2400     0.1431     0.4050
  284    5.660   1773.47     0.1813     0.0049     0.1184     0.0566     0.2307     2.6718    90.5600     0.1401     0.4348
  285    5.680   1774.38     0.1822     0.0049     0.1203     0.0568     0.2324     2.7093    90.8800     0.1416     0.4435
  286    5.700   1775.32     0.1850     0.0049     0.1150     0.0570     0.2341     2.6905    91.2000     0.1429     0.4185
  287    5.720   1776.30     0.1868     0.0051     0.1086     0.0572     0.2340     2.7589    91.5200     0.1424     0.3871
  288    5.740   1777.25     0.1786     0.0051     0.1018     0.0574     0.2212     2.7497    91.8400     0.1294     0.3415
  289    5.760   1778.19     0.1768     0.0050     0.1092     0.0576     0.2208     2.8380    92.1600     0.1287     0.3677
  290    5.780   1779.13     0.1719     0.0052     0.1189     0.0578     0.2206     3.0075    92.4800     0.1281     0.4537
  291    5.800   1780.09     0.1710     0.0049     0.1234     0.0580     0.2213     2.9641    92.8000     0.1285     0.4801
  292    5.820   1781.07     0.1695     0.0041     0.1310     0.0582     0.2238     2.4563    93.1200     0.1307     0.5434
  293    5.840   1781.99     0.1786     0.0045     0.1341     0.0584     0.2347     2.5383    93.4400     0.1412     0.5317
  294    5.860   1782.81     0.1863     0.0047     0.1322     0.0586     0.2423     2.5254    93.7600     0.1486     0.5037
  295    5.880   1783.59     0.1908     0.0043     0.1245     0.0588     0.2445     2.2512    94.0800     0.1504     0.4591
  296    5.900   1784.37     0.1937     0.0047     0.1160     0.0590     0.2434     2.4228    94.4000     0.1490     0.3981
  297    5.920   1785.30     0.1911     0.0045     0.1217     0.0592     0.2418     2.3655    94.7200     0.1470     0.4183
  298    5.940   1786.31     0.1886     0.0046     0.1196     0.0594     0.2391     2.3994    95.0400     0.1441     0.4218
  299    5.960   1787.20     0.1883     0.0044     0.1210     0.0596     0.2396     2.3453    95.3600     0.1443     0.4334
  300    5.980   1788.13     0.1887     0.0043     0.1251     0.0598     0.2405     2.2800    95.6800     0.1448     0.4384
  301    6.000   1789.05     0.1907     0.0046     0.1249     0.0600     0.2436     2.3858    96.0000     0.1476     0.4461
  302    6.020   1789.98     0.1912     0.0048     0.1230     0.0602     0.2429     2.5573    96.3200     0.1465     0.4280
  303    6.040   1790.98     0.1956     0.0047     0.1161     0.0604     0.2458     2.3800    96.6400     0.1492     0.3965
  304    6.060   1791.96     0.1929     0.0046     0.1145     0.0606     0.2407     2.3745    96.9600     0.1438     0.3701
  305    6.080   1792.97     0.1910     0.0048     0.1170     0.0608     0.2398     2.4714    97.2800     0.1426     0.3897
  306    6.100   1793.95     0.1883     0.0051     0.1215     0.0610     0.2384     2.7019    97.6000     0.1408     0.4137
  307    6.120   1794.83     0.1916     0.0051     0.1258     0.0612     0.2442     2.6865    97.9200     0.1463     0.4385
  308    6.140   1795.76     0.1912     0.0047     0.1268     0.0614     0.2449     2.4486    98.2400     0.1467     0.4536
  309    6.160   1796.70     0.1928     0.0050     0.1249     0.0616     0.2450     2.5821    98.5600     0.1465     0.4288
  310    6.180   1797.64     0.1924     0.0049     0.1218     0.0618     0.2450     2.5670    98.8800     0.1461     0.4343
  311    6.200   1798.55     0.1937     0.0053     0.1213     0.0620     0.2440     2.7384    99.2000     0.1448     0.3993
  312    6.220   1799.49     0.1935     0.0050     0.1235     0.0622     0.2453     2.6241    99.5200     0.1457     0.4185
  313    6.240   1800.42     0.1887     0.0055     0.1241     0.0624     0.2409     2.9164    99.8400     0.1411     0.4383
  314    6.260   1801.41     0.1826     0.0050     0.1225     0.0626     0.2347     2.6995   100.1600     0.1345     0.4564
  315    6.280   1802.35     0.1833     0.0052     0.1200     0.0628     0.2325     2.8256   100.4800     0.1320     0.4111
  316    6.300   1803.26     0.1808     0.0052     0.1224     0.0630     0.2328     2.8390   100.8000     0.1320     0.4613
  317    6.320   1804.24     0.1810     0.0051     0.1318     0.0632     0.2351     2.8488   101.1200     0.1340     0.4898
  318    6.340   1805.15     0.1817     0.0049     0.1363     0.0634     0.2386     2.6540   101.4400     0.1371     0.5242
  319    6.360   1806.13     0.1862     0.0050     0.1384     0.0636     0.2442     2.6810   101.7600     0.1425     0.5231
  320    6.380   1807.06     0.1905     0.0047     0.1352     0.0638     0.2476     2.4640   102.0800     0.1455     0.4957
  321    6.400   1808.01     0.1933     0.0049     0.1371     0.0640     0.2506     2.5261   102.4000     0.1482     0.4895
  322    6.420   1808.87     0.1905     0.0051     0.1363     0.0642     0.2478     2.6500   102.7200     0.1451     0.4982
  323    6.440   1809.78     0.1933     0.0049     0.1366     0.0644     0.2505     2.5533   103.0400     0.1475     0.4871
  324    6.460   1810.71     0.1894     0.0051     0.1349     0.0646     0.2461     2.6467   103.3600     0.1427     0.4928
  325    6.480   1811.66     0.1912     0.0052     0.1370     0.0648     0.2475     2.7292   103.6800     0.1438     0.4804
  326    6.500   1812.60     0.1930     0.0050     0.1414     0.0650     0.2519     2.5754   104.0000     0.1479     0.5089
  327    6.520   1813.52     0.1957     0.0054     0.1421     0.0652     0.2555     2.7799   104.3200     0.1512     0.5105
  328    6.540   1814.44     0.1967     0.0051     0.1431     0.0654     0.2565     2.6088   104.6400     0.1519     0.5074
  329    6.560   1815.38     0.2000     0.0053     0.1414     0.0656     0.2597     2.6440   104.9600     0.1547     0.4948
  330    6.580   1816.29     0.1995     0.0049     0.1422     0.0658     0.2590     2.4807   105.2800     0.1538     0.4943
  331    6.600   1817.26     0.2027     0.0053     0.1437     0.0660     0.2636     2.6190   105.6000     0.1580     0.4995
  332    6.620   1818.20     0.2000     0.0052     0.1381     0.0662     0.2587     2.5776   105.9200     0.1528     0.4814
  333    6.640   1819.12     0.1994     0.0054     0.1358     0.0664     0.2571     2.6899   106.2400     0.1508     0.4698
  334    6.660   1820.06     0.1989     0.0060     0.1329     0.0666     0.2551     2.9878   106.5600     0.1485     0.4523
  335    6.680   1821.00     0.1985     0.0066     0.1324     0.0668     0.2541     3.2856   106.8800     0.1472     0.4446
  336    6.700   1821.95     0.1963     0.0070     0.1344     0.0670     0.2524     3.5106   107.2000     0.1452     0.4595
  337    6.720   1822.87     0.1897     0.0066     0.1355     0.0672     0.2459     3.4655   107.5200     0.1384     0.4822
  338    6.740   1823.79     0.1874     0.0063     0.1427     0.0674     0.2463     3.3400   107.8400     0.1385     0.5263
  339    6.760   1846.78     0.1846     0.0063     0.1376     0.0676     0.2432     3.4034   108.1600     0.1350     0.5310
  340    6.780   1883.32     0.1817     0.0059     0.1320     0.0678     0.2379     3.1843   108.4800     0.1295     0.5089
  341    6.800   1919.86     0.1788     0.0055     0.1285     0.0680     0.2327     3.0342   108.8000     0.1239     0.4868
  342    6.820   1928.64     0.1778     0.0057     0.1390     0.0682     0.2349     3.2103   109.1200     0.1258     0.5394
  343    6.840   1929.30     0.1770     0.0057     0.1451     0.0684     0.2373     3.2417   109.4400     0.1278     0.5878
  344    6.860   1929.92     0.1764     0.0055     0.1516     0.0686     0.2391     3.0992   109.7600     0.1293     0.6228
  345    6.880   1930.58     0.1779     0.0053     0.1583     0.0688     0.2439     3.0539   110.0800     0.1338     0.6604
  346    6.900   1931.23     0.1840     0.0052     0.1609     0.0690     0.2508     2.8608   110.4000     0.1404     0.6421
  347    6.920   1931.83     0.1884     0.0052     0.1655     0.0692     0.2573     2.8219   110.7200     0.1466     0.6468
  348    6.940   1932.48     0.1917     0.0053     0.1509     0.0694     0.2578     2.7606   111.0400     0.1468     0.6002
  349    6.960   1933.15     0.1953     0.0053     0.1431     0.0696     0.2550     2.7934   111.3600     0.1436     0.5054
  350    6.980   1933.80     0.1887     0.0056     0.1483     0.0698     0.2500     2.9530   111.6800     0.1383     0.5501
  351    7.000   1934.47     0.1870     0.0058     0.1502     0.0700     0.2499     3.1127   112.0000     0.1379     0.5790
  352    7.020   1935.09     0.1877     0.0059     0.1515     0.0702     0.2514     3.1493   112.3200     0.1391     0.5855
  353    7.040   1935.74     0.1860     0.0057     0.1507     0.0704     0.2492     3.0885   112.6400     0.1365     0.5860
  354    7.060   1941.00     0.1904     0.0059     0.1475     0.0706     0.2532     3.1104   112.9600     0.1402     0.5616
  355    7.080   1957.74     0.1898     0.0058     0.1418     0.0708     0.2502     3.0224   113.2800     0.1369     0.5310
  356    7.100   1974.48     0.1893     0.0057     0.1361     0.0710     0.2472     3.0028   113.6000     0.1336     0.5004
  357    7.120   1987.40     0.1892     0.0055     0.1355     0.0712     0.2455     2.8839   113.9200     0.1316     0.4785
  358    7.140   1988.37     0.1877     0.0054     0.1473     0.0714     0.2477     2.8655   114.2400     0.1334     0.5352
  359    7.160   1989.33     0.1826     0.0054     0.1542     0.0716     0.2469     2.9453   114.5600     0.1324     0.6160
  360    7.180   1990.30     0.1783     0.0053     0.1510     0.0718     0.2420     2.9416   114.8800     0.1271     0.6290
  361    7.200   1991.28     0.1822     0.0045     0.1554     0.0720     0.2469     2.4929   115.2000     0.1317     0.6231
  362    7.220   1992.19     0.1823     0.0043     0.1593     0.0722     0.2488     2.3136   115.5200     0.1333     0.6458
  363    7.240   1993.16     0.1870     0.0049     0.1591     0.0724     0.2536     2.6236   115.8400     0.1378     0.6267
  364    7.260   1994.04     0.1932     0.0047     0.1593     0.0726     0.2595     2.4457   116.1600     0.1434     0.5958
  365    7.280   1995.01     0.1970     0.0051     0.1656     0.0728     0.2660     2.5929   116.4800     0.1495     0.6110
  366    7.300   1995.97     0.2129     0.0054     0.1595     0.0730     0.2808     2.6013   116.8000     0.1640     0.5420
  367    7.320   1996.93     0.2241     0.0054     0.1553     0.0732     0.2901     2.4776   117.1200     0.1730     0.4856
  368    7.340   1997.89     0.2351     0.0063     0.1546     0.0734     0.3005     2.7286   117.4400     0.1830     0.4499
  369    7.360   1998.89     0.2469     0.0066     0.1469     0.0736     0.3098     2.7475   117.7600     0.1921     0.3970
  370    7.380   1999.82     0.2476     0.0069     0.1454     0.0738     0.3088     2.7654   118.0800     0.1907     0.3771
  371    7.400   2000.75     0.2383     0.0068     0.1495     0.0740     0.3008     2.8098   118.4000     0.1824     0.4093
  372    7.420   2001.67     0.2342     0.0067     0.1510     0.0742     0.2969     2.8498   118.7200     0.1781     0.4209
  373    7.440   2002.62     0.2326     0.0069     0.1621     0.0744     0.2990     2.9746   119.0400     0.1800     0.4650
  374    7.460   2003.59     0.2293     0.0068     0.1731     0.0746     0.3008     2.9756   119.3600     0.1814     0.5269
  375    7.480   2004.53     0.2308     0.0067     0.1810     0.0748     0.3058     2.9001   119.6800     0.1861     0.5578
  376    7.500   2005.45     0.2327     0.0064     0.1865     0.0750     0.3105     2.7970   120.0000     0.1905     0.5783
  377    7.520   2006.44     0.2384     0.0072     0.1829     0.0752     0.3162     3.0204   120.3200     0.1959     0.5611
  378    7.540   2007.37     0.2299     0.0064     0.1775     0.0754     0.3049     2.7586   120.6400     0.1843     0.5608
  379    7.560   2008.36     0.2298     0.0070     0.1724     0.0756     0.3026     3.0307   120.9600     0.1816     0.5384
  380    7.580   2009.28     0.2277     0.0070     0.1786     0.0758     0.3010     3.0488   121.2800     0.1798     0.5497
  381    7.600   2010.27     0.2223     0.0069     0.1858     0.0760     0.2993     3.0988   121.6000     0.1777     0.6039
  382    7.620   2011.18     0.2166     0.0066     0.1924     0.0762     0.2967     2.9887   121.9200     0.1748     0.6554
  383    7.640   2012.12     0.2218     0.0060     0.1972     0.0764     0.3039     2.7636   122.2400     0.1816     0.6550
  384    7.660   2013.03     0.2197     0.0065     0.2015     0.0766     0.3037     3.0161   122.5600     0.1812     0.6820
  385    7.680   2014.01     0.2276     0.0062     0.2021     0.0768     0.3127     2.7563   122.8800     0.1898     0.6629
  386    7.700   2014.99     0.2365     0.0069     0.2018     0.0770     0.3217     2.9478   123.2000     0.1985     0.6339
  387    7.720   2015.91     0.2566     0.0075     0.1856     0.0772     0.3372     3.0259   123.5200     0.2137     0.5371
  388    7.740   2016.87     0.2691     0.0080     0.1778     0.0774     0.3448     3.0446   123.8400     0.2210     0.4651
  389    7.760   2017.81     0.2764     0.0087     0.1709     0.0776     0.3498     3.1787   124.1600     0.2256     0.4302
  390    7.780   2018.78     0.2862     0.0097     0.1549     0.0778     0.3538     3.4206   124.4800     0.2293     0.3625
  391    7.800   2019.72     0.2872     0.0097     0.1494     0.0780     0.3498     3.3748   124.8000     0.2250     0.3151
  392    7.820   2020.66     0.2825     0.0100     0.1526     0.0782     0.3458     3.5158   125.1200     0.2207     0.3292
  393    7.840   2021.65     0.2925     0.0101     0.1547     0.0784     0.3571     3.5388   125.4400     0.2316     0.3255
  394    7.860   2022.59     0.2794     0.0092     0.1564     0.0786     0.3441     3.2095   125.7600     0.2183     0.3448
  395    7.880   2023.55     0.2676     0.0087     0.1729     0.0788     0.3378     3.1486   126.0800     0.2118     0.4181
  396    7.900   2024.51     0.2631     0.0088     0.1849     0.0790     0.3393     3.3311   126.4000     0.2129     0.4808
  397    7.920   2025.48     0.2663     0.0085     0.1905     0.0792     0.3459     3.2027   126.7200     0.2192     0.5027
  398    7.940   2026.42     0.2715     0.0084     0.1837     0.0794     0.3502     3.1298   127.0400     0.2231     0.4835
  399    7.960   2027.35     0.2721     0.0083     0.1762     0.0796     0.3470     3.0435   127.3600     0.2196     0.4497
  400    7.980   2028.31     0.2729     0.0081     0.1780     0.0798     0.3474     2.9791   127.6800     0.2198     0.4440
  401    8.000   2029.25     0.2682     0.0083     0.1785     0.0800     0.3432     3.0511   128.0000     0.2152     0.4578
  402    8.020   2030.19     0.2669     0.0087     0.1857     0.0802     0.3428     3.2673   128.3200     0.2144     0.4683
  403    8.040   2031.16     0.2632     0.0083     0.1920     0.0804     0.3443     3.1433   128.6400     0.2156     0.5225
  404    8.060   2032.10     0.2629     0.0080     0.1928     0.0806     0.3443     3.0430   128.9600     0.2154     0.5265
  405    8.080   2033.06     0.2616     0.0076     0.1886     0.0808     0.3418     2.8949   129.2800     0.2125     0.5185
  406    8.100   2034.02     0.2597     0.0077     0.1873     0.0810     0.3380     2.9722   129.6000     0.2084     0.5059
  407    8.120   2034.96     0.2577     0.0081     0.1945     0.0812     0.3381     3.1115   129.9200     0.2082     0.5298
  408    8.140   2035.92     0.2512     0.0080     0.2000     0.0814     0.3347     3.1515   130.2400     0.2045     0.5745
  409    8.160   2036.86     0.2480     0.0075     0.1929     0.0816     0.3309     3.0164   130.5600     0.2004     0.5779
  410    8.180   2037.81     0.2541     0.0073     0.1930     0.0818     0.3348     2.8926   130.8800     0.2039     0.5403
  411    8.200   2038.72     0.2518     0.0075     0.2044     0.0820     0.3358     2.9483   131.2000     0.2046     0.5768
  412    8.220   2039.69     0.2554     0.0078     0.2161     0.0822     0.3447     3.0635   131.5200     0.2131     0.6116
  413    8.240   2040.63     0.2701     0.0073     0.2224     0.0824     0.3620     2.7567   131.8400     0.2302     0.5926
  414    8.260   2041.60     0.2790     0.0073     0.2294     0.0826     0.3745     2.6818   132.1600     0.2424     0.5980
  415    8.280   2042.56     0.2845     0.0072     0.2246     0.0828     0.3800     2.5220   132.4800     0.2475     0.5843
  416    8.300   2043.48     0.2931     0.0071     0.2218     0.0830     0.3865     2.4176   132.8000     0.2537     0.5491
  417    8.320   2044.44     0.2937     0.0071     0.2222     0.0832     0.3861     2.3858   133.1200     0.2530     0.5404
  418    8.340   2045.44     0.2982     0.0070     0.2362     0.0834     0.3962     2.3789   133.4400     0.2627     0.5700
  419    8.360   2046.37     0.2999     0.0070     0.2296     0.0836     0.3988     2.3563   133.7600     0.2651     0.5731
  420    8.380   2047.36     0.3021     0.0070     0.2249     0.0838     0.3974     2.2914   134.0800     0.2633     0.5433
  421    8.400   2048.32     0.3017     0.0073     0.2247     0.0840     0.3959     2.4163   134.4000     0.2615     0.5362
  422    8.420   2049.22     0.2887     0.0075     0.2259     0.0842     0.3833     2.5756   134.7200     0.2486     0.5670
  423    8.440   2050.21     0.2913     0.0073     0.2321     0.0844     0.3886     2.5312   135.0400     0.2536     0.5815
  424    8.460   2051.14     0.3402     0.0072     0.2199     0.0846     0.4344     2.2541   135.3600     0.2990     0.4668
  425    8.480   2052.09     0.3197     0.0048     0.2331     0.0848     0.4175     1.4777   135.6800     0.2818     0.5256
  426    8.500   2053.03     0.3493     0.0015     0.2228     0.0850     0.4444     0.4354   136.0000     0.3084     0.4595
  427    8.520   2053.99     0.3696     0.0022     0.2042     0.0852     0.4575     0.6141   136.3200     0.3212     0.3864
  428    8.540   2055.00     0.3938     0.0033     0.1949     0.0854     0.4776     0.8824   136.6400     0.3410     0.3353
  429    8.560   2055.89     0.5878     0.0048     0.1984     0.0856     0.6690     1.0485   136.9600     0.5321     0.2107
  430    8.580   2056.88     1.4930     0.0084     0.1621     0.0858     1.5700     0.8251   137.2800     1.4328     0.0749
  431    8.600   2057.82     3.1141     0.0131     0.0808     0.0860     3.1564     0.5308   137.6000     3.0188     0.0055
  432    8.620   2058.75     4.1784     0.0196     0.0643     0.0862     4.2064     0.5052   137.9200     4.0684    -0.0048
  433    8.640   2059.73     4.5105     0.0230     0.0712     0.0864     4.5394     0.5197   138.2400     4.4012    -0.0040
  434    8.660   2060.68     4.3983     0.0256     0.0797     0.0866     4.4300     0.5730   138.5600     4.2915    -0.0026
  435    8.680   2061.65     4.0574     0.0267     0.0839     0.0868     4.0926     0.6689   138.8800     3.9537    -0.0008
  436    8.700   2062.59     3.6542     0.0276     0.0858     0.0870     3.6898     0.7843   139.2000     3.5506    -0.0006
  437    8.720   2063.55     3.1191     0.0286     0.0903     0.0872     3.1565     0.8997   139.5200     3.0169     0.0006
  438    8.740   2064.46     2.5799     0.0296     0.0910     0.0874     2.6182     1.0988   139.8400     2.4783     0.0015
  439    8.760   2065.40     2.0740     0.0330     0.0930     0.0876     2.1127     1.5004   140.1600     1.9725     0.0023
  440    8.780   2069.87     1.6066     0.0348     0.0955     0.0878     1.6465     2.0719   140.4800     1.5061     0.0053
  441    8.800   2084.64     1.3237     0.0352     0.0968     0.0880     1.3642     2.0960   140.8000     1.2234     0.0085
  442    8.820   2099.42     1.0408     0.0330     0.0981     0.0882     1.0818     1.9655   141.1200     0.9407     0.0118
  443    8.840   2111.36     0.7892     0.0311     0.1027     0.0884     0.8312     3.0922   141.4400     0.6898     0.0172
  444    8.860   2112.31     0.6672     0.0274     0.1068     0.0886     0.7118     3.8788   141.7600     0.5700     0.0308
  445    8.880   2113.34     0.5966     0.0226     0.1112     0.0888     0.6432     3.6571   142.0800     0.5011     0.0441
  446    8.900   2114.28     0.5629     0.0183     0.1101     0.0890     0.6087     3.2004   142.4000     0.4663     0.0428
  447    8.920   2115.17     0.5318     0.0151     0.1760     0.0892     0.5904     2.7359   142.7200     0.4476     0.1124
  448    8.940   2116.15     0.4716     0.0114     0.2353     0.0894     0.5656     2.3146   143.0400     0.4225     0.3183
  449    8.960   2117.08     0.4166     0.0093     0.2569     0.0896     0.5216     2.1301   143.3600     0.3782     0.4242
  450    8.980   2118.05     0.3590     0.0107     0.2744     0.0898     0.4720     2.8018   143.6800     0.3284     0.5465
  451    9.000   2119.00     0.3382     0.0125     0.2805     0.0900     0.4550     3.6541   144.0000     0.3110     0.6048
  452    9.020   2119.96     0.3315     0.0118     0.2973     0.0902     0.4542     3.5778   144.3200     0.3098     0.6516
  453    9.040   2120.92     0.3414     0.0078     0.3046     0.0904     0.4683     2.3153   144.6400     0.3237     0.6546
  454    9.060   2121.86     0.4020     0.0067     0.3001     0.0906     0.5293     1.8034   144.9600     0.3844     0.5567
  455    9.080   2122.77     0.5980     0.0082     0.3039     0.0908     0.7265     1.5460   145.2800     0.5812     0.3771
  456    9.100   2123.71     1.2475     0.0100     0.2398     0.0910     1.3680     0.9818   145.6000     1.2224     0.1647
  457    9.120   2124.71     4.1996     0.0136     0.1199     0.0912     4.2653     0.3938   145.9200     4.1193     0.0162
  458    9.140   2125.90     9.6399     0.0172     0.0476     0.0914     9.6520     0.2045   146.2400     9.5058    -0.0063
  459    9.160   2128.19    11.7181     0.0240     0.0326     0.0916    11.7269     0.2204   146.5600    11.5803    -0.0061
  460    9.180   2129.21    12.8097     0.0292     0.0618     0.0918    12.8308     0.2322   146.8800    12.6839    -0.0033
  461    9.200   2130.17    13.1319     0.0308     0.0711     0.0920    13.1581     0.2354   147.2000    13.0109    -0.0023
  462    9.220   2131.14    13.2651     0.0302     0.0848     0.0922    13.2995     0.2283   147.5200    13.1520    -0.0008
  463    9.240   2132.12    13.3589     0.0302     0.0922     0.0924    13.3967     0.2270   147.8400    13.2489    -0.0002
  464    9.260   2133.09    13.6474     0.0296     0.0964     0.0926    13.6871     0.2190   148.1600    13.5390     0.0002
  465    9.280   2134.03    14.4771     0.0325     0.0966     0.0928    14.5181     0.2312   148.4800    14.3696     0.0003
  466    9.300   2135.00    15.6583     0.0383     0.0948     0.0930    15.6982     0.2523   148.8000    15.5494     0.0001
  467    9.320   2135.96    17.1605     0.0450     0.0883     0.0932    17.2000     0.2751   149.1200    17.0509     0.0001
  468    9.340   2136.92    19.0374     0.0479     0.0594     0.0934    19.0649     0.2535   149.4400    18.9155    -0.0015
  469    9.360   2137.84    20.3324     0.0511     0.0647     0.0936    20.3595     0.2572   149.7600    20.2098    -0.0014
  470    9.380   2138.77    21.1913     0.0567     0.0699     0.0938    21.2201     0.2678   150.0800    21.0701    -0.0012
  471    9.400   2139.70    21.6484     0.0646     0.0792     0.0940    21.6785     0.2988   150.4000    21.5281    -0.0010
  472    9.420   2140.61    22.0607     0.0716     0.0866     0.0942    22.0968     0.3254   150.7200    21.9460    -0.0004
  473    9.440   2141.51    22.7890     0.0749     0.0882     0.0944    22.8255     0.3297   151.0400    22.6744    -0.0003
  474    9.460   2142.47    23.8913     0.0746     0.0868     0.0946    23.9292     0.3146   151.3600    23.7778    -0.0002
  475    9.480   2143.36    24.6369     0.0767     0.0765     0.0948    24.6695     0.3128   151.6800    24.5178    -0.0007
  476    9.500   2144.28    25.0778     0.0765     0.0629     0.0950    25.1082     0.3056   152.0000    24.9562    -0.0009
  477    9.520   2145.16    25.0732     0.0742     0.0198     0.0952    25.0875     0.2956   152.3200    24.9352    -0.0025
  478    9.540   2146.07    24.7052     0.0710    -0.0023     0.0954    24.7108     0.2867   152.6400    24.5582    -0.0033
  479    9.560   2146.97    24.0893     0.0664     0.0157     0.0956    24.0901     0.2743   152.9600    23.9371    -0.0039
  480    9.580   2147.84    23.4182     0.0598     0.0424     0.0958    23.4259     0.2544   153.2800    23.2726    -0.0033
  481    9.600   2148.74    23.1140     0.0569     0.0622     0.0960    23.1382     0.2461   153.6000    22.9846    -0.0017
  482    9.620   2149.62    23.1381     0.0583     0.0782     0.0962    23.1693     0.2521   153.9200    23.0154    -0.0009
  483    9.640   2150.51    23.5379     0.0631     0.0775     0.0964    23.5704     0.2685   154.2400    23.4162    -0.0008
  484    9.660   2151.46    24.1843     0.0657     0.0893     0.0966    24.2206     0.2719   154.5600    24.0661    -0.0004
  485    9.680   2152.37    24.7048     0.0690     0.0835     0.0968    24.7396     0.2796   154.8800    24.5847    -0.0006
  486    9.700   2153.25    24.8427     0.0687     0.0782     0.0970    24.8750     0.2768   155.2000    24.7198    -0.0008
  487    9.720   2154.17    24.7857     0.0706     0.0824     0.0972    24.8158     0.2835   155.5200    24.6602    -0.0010
  488    9.740   2155.11    25.0122     0.0699     0.0762     0.0974    25.0470     0.2815   155.8400    24.8912    -0.0006
  489    9.760   2156.03    25.8464     0.0681     0.0810     0.0976    25.8793     0.2653   156.1600    25.7232    -0.0007
  490    9.780   2156.94    27.1932     0.0651     0.0794     0.0978    27.2267     0.2405   156.4800    27.0702    -0.0007
  491    9.800   2157.86    28.7707     0.0623     0.0906     0.0980    28.8062     0.2192   156.8000    28.6494    -0.0005
  492    9.820   2158.82    30.1376     0.0646     0.0592     0.0982    30.1687     0.2150   157.1200    30.0116    -0.0008
  493    9.840   2159.76    31.1206     0.0674    -0.0062     0.0984    31.1245     0.2169   157.4400    30.9670    -0.0029
  494    9.860   2160.67    31.0996     0.0780    -0.0156     0.0986    31.0908     0.2491   157.7600    30.9330    -0.0039
  495    9.880   2161.54    30.5653     0.0690     0.0017     0.0988    30.5635     0.2242   158.0800    30.4054    -0.0034
  496    9.900   2162.47    30.2328     0.0740     0.0320     0.0990    30.2386     0.2447   158.4000    30.0802    -0.0028
  497    9.920   2163.41    30.5974     0.0808     0.0591     0.0992    30.6246     0.2658   158.7200    30.4659    -0.0011
  498    9.940   2164.33    31.9049     0.1092     0.0851     0.0994    31.9373     0.3458   159.0400    31.7782    -0.0007
  499    9.960   2166.74    29.9040     0.0943     0.1008     0.0996    29.9460     0.3145   159.3600    29.7866     0.0000
  500    9.980   2167.82    35.5905     0.0966     0.0699     0.0998    35.6191     0.2728   159.6800    35.4594    -0.0009
  501   10.000   2168.78    37.1099     0.1044     0.0843     0.1000    37.1470     0.2824   160.0000    36.9870    -0.0003
  502   10.020   2169.75    38.1926     0.1085     0.0879     0.1002    38.2279     0.2851   160.3200    38.0676    -0.0004
  503   10.040   2170.66    38.5081     0.1139     0.1011     0.1004    38.5423     0.2961   160.6400    38.3816    -0.0005
  504   10.060   2173.30    35.4199     0.1184     0.0685     0.1006    35.4598     0.3443   160.9600    35.2989    -0.0001
  505   10.080   2174.33    38.3982     0.1139     0.1023     0.1008    38.4366     0.2979   161.2800    38.2754    -0.0002
  506   10.100   2175.29    38.6373     0.1098     0.0970     0.1010    38.6745     0.2849   161.6000    38.5129    -0.0003
  507   10.120   2176.23    39.2211     0.1125     0.0852     0.1012    39.2585     0.2889   161.9200    39.0965    -0.0003
  508   10.140   2177.21    39.8300     0.1172     0.0853     0.1014    39.8654     0.2957   162.2400    39.7031    -0.0004
  509   10.160   2178.15    40.6552     0.1212     0.0854     0.1016    40.6892     0.2997   162.5600    40.5267    -0.0005
  510   10.180   2179.07    41.4536     0.1241     0.0856     0.1018    41.4909     0.3034   162.8800    41.3280    -0.0003
  511   10.200   2180.05    41.9790     0.1269     0.0862     0.1020    42.0140     0.3070   163.2000    41.8508    -0.0004
  512   10.220   2180.99    42.1598     0.1298     0.0961     0.1022    42.1996     0.3106   163.5200    42.0361    -0.0002
  513   10.240   2181.94    42.2738     0.1326     0.0919     0.1024    42.3133     0.3142   163.8400    42.1494    -0.0002
  514   10.260   2182.92    42.6067     0.1343     0.1025     0.1026    42.6455     0.3169   164.1600    42.4813    -0.0002
  515   10.280   2186.65    42.8212     0.1409     0.0932     0.1028    42.8617     0.3316   164.4800    42.6973    -0.0001
  516   10.300   2191.43    42.9133     0.1475     0.0839     0.1030    42.9499     0.3464   164.8000    42.7851    -0.0004
  517   10.320   2196.21    43.0054     0.1541     0.0746     0.1032    43.0381     0.3612   165.1200    42.8730    -0.0006
  518   10.340   2201.00    43.0975     0.1607     0.0653     0.1034    43.1263     0.3759   165.4400    42.9609    -0.0008
  519   10.360   2205.27    42.6111     0.1702     0.0807     0.1036    42.6443     0.4448   165.7600    42.4786    -0.0006
  520   10.380   2212.13    41.2617     0.1680     0.0854     0.1038    41.2969     0.4402   166.0800    41.1308    -0.0005
  521   10.400   2218.99    39.9124     0.1694     0.0900     0.1040    39.9496     0.4439   166.4000    39.7832    -0.0004
  522   10.420   2225.86    38.5631     0.1713     0.0947     0.1042    38.6021     0.4488   166.7200    38.4354    -0.0003
  523   10.440   2232.72    37.2138     0.1729     0.0993     0.1044    37.2548     0.4530   167.0400    37.0878    -0.0002
  524   10.460   2237.30    33.7936     0.1740     0.0675     0.1046    33.8369     0.5241   167.3600    33.6695     0.0000
  525   10.480   2238.29    36.1389     0.1721     0.1212     0.1048    36.1846     0.4770   167.6800    36.0169     0.0001
  526   10.500   2239.24    35.9547     0.1689     0.1227     0.1050    36.0037     0.4685   168.0000    35.8357     0.0003
  527   10.520   2240.20    35.6986     0.1665     0.1020     0.1052    35.7414     0.4663   168.3200    35.5731    -0.0001
  528   10.540   2241.08    35.5270     0.1644     0.0969     0.1054    35.5683     0.4631   168.6400    35.3997    -0.0002
  529   10.560   2242.05    35.3109     0.1623     0.0909     0.1056    35.3499     0.4598   168.9600    35.1809    -0.0004
  530   10.580   2242.96    34.9578     0.1625     0.0921     0.1058    34.9964     0.4636   169.2800    34.8271    -0.0004
  531   10.600   2243.87    34.8385     0.1910     0.0957     0.1060    34.8766     0.5493   169.6000    34.7070    -0.0004
  532   10.620   2244.79    35.2942     0.1658     0.1040     0.1062    35.3363     0.4737   169.9200    35.1664    -0.0002
  533   10.640   2260.37    36.2527     0.1651     0.1095     0.1064    36.2980     0.4628   170.2400    36.1277     0.0000
  534   10.660   2287.23    37.2744     0.1710     0.1145     0.1066    37.3217     0.4794   170.5600    37.1512     0.0002
  535   10.680   2304.55    38.2244     0.1708     0.1156     0.1068    38.2759     0.4544   170.8800    38.1050     0.0004
  536   10.700   2305.52    38.6343     0.1592     0.0964     0.1070    38.6767     0.4139   171.2000    38.5055    -0.0002
  537   10.720   2308.36    35.8014     0.1380     0.0723     0.1072    35.8411     0.4025   171.5200    35.6696    -0.0003
  538   10.740   2309.33    37.2861     0.1209     0.0955     0.1074    37.3231     0.3224   171.8400    37.1513    -0.0005
  539   10.760   2310.29    36.3583     0.1176     0.0792     0.1076    36.3947     0.3199   172.1600    36.2226    -0.0006
  540   10.780   2311.26    35.8335     0.1190     0.0817     0.1078    35.8662     0.3323   172.4800    35.6938    -0.0008
  541   10.800   2312.17    36.2687     0.1123     0.0742     0.1080    36.3016     0.3102   172.8000    36.1288    -0.0008
  542   10.820   2313.12    36.1412     0.1079     0.0851     0.1082    36.1739     0.2984   173.1200    36.0007    -0.0008
  543   10.840   2314.00    35.1125     0.1051     0.0847     0.1084    35.1476     0.2946   173.4400    34.9741    -0.0007
  544   10.860   2314.90    33.3651     0.0998     0.0983     0.1086    33.4072     0.2934   173.7600    33.2334    -0.0003
  545   10.880   2315.82    31.8819     0.0944     0.0885     0.1088    31.9198     0.2954   174.0800    31.7457    -0.0006
  546   10.900   2316.79    30.5517     0.0901     0.1006     0.1090    30.5940     0.2942   174.4000    30.4196    -0.0003
  547   10.920   2317.70    29.9583     0.0905     0.0944     0.1092    30.0008     0.3020   174.7200    29.8261    -0.0003
  548   10.940   2318.60    30.2738     0.0935     0.1079     0.1094    30.3163     0.3091   175.0400    30.1412    -0.0003
  549   10.960   2319.53    31.0519     0.0974     0.0980     0.1096    31.0960     0.3152   175.3600    30.9206    -0.0001
  550   10.980   2320.43    31.3037     0.1043     0.1081     0.1098    31.3451     0.3329   175.6800    31.1695    -0.0004
  551   11.000   2321.34    31.2634     0.1076     0.0939     0.1100    31.3086     0.3440   176.0000    31.1326    -0.0001
  552   11.020   2322.25    31.1321     0.1071     0.1037     0.1102    31.1786     0.3439   176.3200    31.0023     0.0000
  553   11.040   2323.13    31.1368     0.1087     0.1057     0.1104    31.1809     0.3492   176.6400    31.0043    -0.0002
  554   11.060   2324.04    31.1393     0.1045     0.1104     0.1106    31.1851     0.3360   176.9600    31.0082     0.0000
  555   11.080   2324.94    30.9229     0.0988     0.1120     0.1108    30.9691     0.3180   177.2800    30.7919     0.0000
  556   11.100   2325.86    30.8114     0.0944     0.1018     0.1110    30.8594     0.3060   177.6000    30.6818     0.0001
  557   11.120   2326.80    30.7046     0.0926     0.1061     0.1112    30.7524     0.3012   177.9200    30.5745     0.0001
  558   11.140   2327.74    30.7156     0.0935     0.1115     0.1114    30.7618     0.3043   178.2400    30.5836     0.0000
  559   11.160   2328.67    30.6530     0.0956     0.1076     0.1116    30.6965     0.3118   178.5600    30.5180    -0.0003
  560   11.180   2329.58    30.5141     0.0979     0.1132     0.1118    30.5614     0.3209   178.8800    30.3825     0.0000
  561   11.200   2330.51    30.4775     0.1015     0.1124     0.1120    30.5250     0.3330   179.2000    30.3458     0.0000
  562   11.220   2331.44    30.4132     0.1031     0.1148     0.1122    30.4613     0.3389   179.5200    30.2817     0.0001
  563   11.240   2332.36    30.2611     0.1024     0.1150     0.1124    30.3077     0.3378   179.8400    30.1278    -0.0001
  564   11.260   2333.24    30.0082     0.0992     0.1154     0.1126    30.0571     0.3304   180.1600    29.8770     0.0001
  565   11.280   2334.14    29.8124     0.0947     0.1121     0.1128    29.8591     0.3170   180.4800    29.6786    -0.0001
  566   11.300   2335.05    29.5661     0.0932     0.1112     0.1130    29.6129     0.3146   180.8000    29.4321     0.0000
  567   11.320   2335.97    29.4143     0.0907     0.1144     0.1132    29.4616     0.3075   181.1200    29.2805     0.0000
  568   11.340   2336.85    29.3245     0.0887     0.1123     0.1134    29.3732     0.3020   181.4400    29.1917     0.0001
  569   11.360   2337.80    29.1573     0.0891     0.1164     0.1136    29.2044     0.3057   181.7600    29.0226    -0.0001
  570   11.380   2338.74    29.1354     0.0890     0.1163     0.1138    29.1832     0.3052   182.0800    29.0011     0.0000
  571   11.400   2339.64    29.4121     0.0866     0.1118     0.1140    29.4593     0.2944   182.4000    29.2769    -0.0001
  572   11.420   2340.57    29.6209     0.0870     0.1147     0.1142    29.6693     0.2950   182.7200    29.4866     0.0000
  573   11.440   2341.48    29.7949     0.0875     0.1176     0.1144    29.8433     0.2938   183.0400    29.6603     0.0000
  574   11.460   2342.42    29.5906     0.0878     0.1134     0.1146    29.6392     0.2966   183.3600    29.4558     0.0000
  575   11.480   2343.33    29.1595     0.0875     0.1179     0.1148    29.2089     0.2998   183.6800    29.0252     0.0001
  576   11.500   2344.27    29.0673     0.0880     0.1167     0.1150    29.1170     0.3027   184.0000    28.9330     0.0001
  577   11.520   2345.17    29.1505     0.0851     0.1188     0.1152    29.1996     0.2921   184.3200    29.0153     0.0001
  578   11.540   2346.08    29.4893     0.0853     0.1195     0.1154    29.5391     0.2899   184.6400    29.3544     0.0001
  579   11.560   2347.00    29.9075     0.0860     0.1174     0.1156    29.9570     0.2883   184.9600    29.7720     0.0001
  580   11.580   2347.91    30.2494     0.0893     0.1113     0.1158    30.2981     0.2954   185.2800    30.1128     0.0000
  581   11.600   2348.78    30.3750     0.0889     0.1130     0.1160    30.4230     0.2926   185.6000    30.2374    -0.0001
  582   11.620   2349.68    30.3831     0.0872     0.1175     0.1162    30.4325     0.2872   185.9200    30.2465     0.0000
  583   11.640   2350.56    30.2381     0.0856     0.1188     0.1164    30.2872     0.2830   186.2400    30.1009     0.0000
  584   11.660   2351.48    29.9183     0.0848     0.1149     0.1166    29.9673     0.2820   186.5600    29.7808     0.0000
  585   11.680   2352.43    29.8804     0.0820     0.1177     0.1168    29.9303     0.2742   186.8800    29.7434     0.0001
  586   11.700   2353.38    29.9776     0.0825     0.1229     0.1170    30.0290     0.2754   187.2000    29.8418     0.0002
  587   11.720   2354.30    30.0865     0.0891     0.1178     0.1172    30.1361     0.2964   187.5200    29.9486     0.0000
  588   11.740   2355.21    30.0852     0.0988     0.1219     0.1174    30.1371     0.3282   187.8400    29.9492     0.0002
  589   11.760   2356.09    29.9301     0.1030     0.1191     0.1176    29.9794     0.3438   188.1600    29.7912     0.0000
  590   11.780   2357.00    29.8349     0.1071     0.1203     0.1178    29.8850     0.3592   188.4800    29.6965     0.0000
  591   11.800   2357.93    29.7214     0.1150     0.1180     0.1180    29.7727     0.3868   188.8000    29.5839     0.0001
  592   11.820   2358.80    29.4324     0.1209     0.1261     0.1182    29.4866     0.4105   189.1200    29.2975     0.0004
  593   11.840   2359.72    29.0892     0.1228     0.1195     0.1184    29.1396     0.4214   189.4400    28.9501     0.0001
  594   11.860   2360.62    28.7240     0.1195     0.1103     0.1186    28.7701     0.4152   189.7600    28.5803    -0.0003
  595   11.880   2361.52    28.1412     0.1117     0.1188     0.1188    28.1902     0.3954   190.0800    28.0001    -0.0001
  596   11.900   2362.45    27.3666     0.1048     0.1232     0.1190    27.4182     0.3810   190.4000    27.2278     0.0001
  597   11.920   2363.33    26.4431     0.0982     0.1144     0.1192    26.4895     0.3696   190.7200    26.2988    -0.0003
  598   11.940   2364.23    25.5967     0.0881     0.1085     0.1194    25.6434     0.3430   191.0400    25.4523    -0.0003
  599   11.960   2365.17    24.9733     0.0787     0.1112     0.1196    25.0196     0.3139   191.3600    24.8283    -0.0004
  600   11.980   2366.05    24.6309     0.0692     0.1212     0.1198    24.6827     0.2804   191.6800    24.4910     0.0001
  601   12.000   2366.95    24.4665     0.0644     0.1131     0.1200    24.5133     0.2633   192.0000    24.3213    -0.0004
  602   12.020   2367.86    24.5486     0.0615     0.1222     0.1202    24.5981     0.2508   192.3200    24.4057    -0.0001
  603   12.040   2368.78    24.7673     0.0586     0.1190     0.1204    24.8162     0.2366   192.6400    24.6236    -0.0002
  604   12.060   2369.70    24.9520     0.0575     0.1235     0.1206    25.0027     0.2308   192.9600    24.8098     0.0000
  605   12.080   2370.56    25.2993     0.0575     0.1237     0.1208    25.3516     0.2274   193.2800    25.1583     0.0001
  606   12.100   2371.48    26.0454     0.0603     0.1216     0.1210    26.0968     0.2323   193.6000    25.9032     0.0001
  607   12.120   2372.39    26.6016     0.0650     0.1226     0.1212    26.6525     0.2449   193.9200    26.4586     0.0000
  608   12.140   2373.27    26.9731     0.0689     0.1287     0.1214    27.0260     0.2556   194.2400    26.8317     0.0002
  609   12.160   2374.17    27.2006     0.0718     0.1209     0.1216    27.2530     0.2646   194.5600    27.0585     0.0001
  610   12.180   2375.09    27.1751     0.0754     0.1259     0.1218    27.2274     0.2772   194.8800    27.0326     0.0001
  611   12.200   2376.02    26.8574     0.0765     0.1267     0.1220    26.9110     0.2844   195.2000    26.7158     0.0002
  612   12.220   2376.97    26.5452     0.0734     0.1283     0.1222    26.5984     0.2764   195.5200    26.4028     0.0002
  613   12.240   2377.85    26.2286     0.0715     0.1211     0.1224    26.2808     0.2725   195.8400    26.0850     0.0001
  614   12.260   2378.78    26.1349     0.0681     0.1246     0.1226    26.1874     0.2607   196.1600    25.9912     0.0001
  615   12.280   2379.68    26.2132     0.0672     0.1231     0.1228    26.2649     0.2566   196.4800    26.0685     0.0000
  616   12.300   2380.55    26.3137     0.0708     0.1273     0.1230    26.3668     0.2692   196.8000    26.1700     0.0001
  617   12.320   2381.53    26.5867     0.0712     0.1236     0.1232    26.6390     0.2681   197.1200    26.4419     0.0000
  618   12.340   2382.45    27.3991     0.0708     0.1254     0.1234    27.4514     0.2587   197.4400    27.2539     0.0000
  619   12.360   2383.34    28.1764     0.0705     0.1255     0.1236    28.2293     0.2532   197.7600    28.0315     0.0001
  620   12.380   2384.27    28.5558     0.0711     0.1288     0.1238    28.6104     0.2501   198.0800    28.4123     0.0002
  621   12.400   2385.17    28.3349     0.0700     0.1277     0.1240    28.3883     0.2456   198.4000    28.1899     0.0001
  622   12.420   2386.12    28.1113     0.0701     0.1299     0.1242    28.1671     0.2490   198.7200    27.9684     0.0003
  623   12.440   2387.03    28.1310     0.0718     0.1261     0.1244    28.1838     0.2553   199.0400    27.9847     0.0000
  624   12.460   2387.99    28.3464     0.0732     0.1282     0.1246    28.4001     0.2587   199.3600    28.2007     0.0001
  625   12.480   2388.89    28.4525     0.0734     0.1333     0.1248    28.5070     0.2581   199.6800    28.3073     0.0002
  626   12.500   2389.85    28.5667     0.0768     0.1228     0.1250    28.6208     0.2693   200.0000    28.4208     0.0001
  627   12.520   2390.74    28.7007     0.0800     0.1246     0.1252    28.7524     0.2802   200.3200    28.5520    -0.0001
  628   12.540   2391.61    28.6133     0.0832     0.1281     0.1254    28.6675     0.2909   200.6400    28.4668     0.0001
  629   12.560   2392.51    28.3231     0.0863     0.1316     0.1256    28.3776     0.3025   200.9600    28.1766     0.0001
  630   12.580   2393.38    27.7537     0.0885     0.1315     0.1258    27.8093     0.3171   201.2800    27.6080     0.0002
  631   12.600   2394.28    27.2261     0.0927     0.1309     0.1260    27.2785     0.3373   201.6000    27.0769     0.0000
  632   12.620   2396.32    26.5690     0.0975     0.1305     0.1262    26.6242     0.3590   201.9200    26.4223     0.0002
  633   12.640   2399.26    25.7398     0.1017     0.1282     0.1264    25.7940     0.3762   202.2400    25.5918     0.0001
  634   12.660   2402.17    24.9112     0.1056     0.1268     0.1266    24.9644     0.4161   202.5600    24.7618     0.0000
  635   12.680   2403.04    24.0820     0.1078     0.1309     0.1268    24.1369     0.4467   202.8800    23.9340     0.0002
  636   12.700   2404.07    22.8644     0.1053     0.1222     0.1270    22.9160     0.4750   203.2000    22.7128    -0.0002
  637   12.720   2423.45    21.6987     0.0969     0.1241     0.1272    21.7506     0.4845   203.5200    21.5471    -0.0002
  638   12.740   2441.78    20.5827     0.0863     0.1200     0.1274    20.6346     0.4170   203.8400    20.4308    -0.0002
  639   12.760   2442.72    19.6411     0.0738     0.1191     0.1276    19.6910     0.3740   204.1600    19.4868    -0.0005
  640   12.780   2443.64    18.6994     0.0628     0.1194     0.1278    18.7497     0.3326   204.4800    18.5452    -0.0004
  641   12.800   2444.51    18.1334     0.0499     0.1238     0.1280    18.1844     0.2745   204.8000    17.9796    -0.0004
  642   12.820   2445.43    17.7526     0.0380     0.1180     0.1282    17.8041     0.2135   205.1200    17.5990    -0.0003
  643   12.840   2446.33    17.5848     0.0364     0.1208     0.1284    17.6353     0.2071   205.4400    17.4299    -0.0005
  644   12.860   2447.21    17.5983     0.0423     0.1264     0.1286    17.6508     0.2410   205.7600    17.4450    -0.0002
  645   12.880   2448.15    18.0246     0.0370     0.1258     0.1288    18.0772     0.2061   206.0800    17.8711    -0.0002
  646   12.900   2449.07    18.9947     0.0342     0.1269     0.1290    19.0477     0.1817   206.4000    18.8413    -0.0002
  647   12.920   2449.95    20.2156     0.0336     0.1322     0.1292    20.2703     0.1677   206.7200    20.0635     0.0000
  648   12.940   2450.86    21.0961     0.0351     0.1347     0.1294    21.1528     0.1669   207.0400    20.9457     0.0003
  649   12.960   2451.75    21.0702     0.0380     0.1336     0.1296    21.1264     0.1803   207.3600    20.9190     0.0002
  650   12.980   2452.64    20.7874     0.0393     0.1346     0.1298    20.8443     0.1889   207.6800    20.6366     0.0003
  651   13.000   2453.58    20.7220     0.0389     0.1344     0.1300    20.7786     0.1875   208.0000    20.5706     0.0002
  652   13.020   2454.46    20.8202     0.0407     0.1356     0.1302    20.8769     0.1960   208.3200    20.6686     0.0002
  653   13.040   2455.35    21.4447     0.0462     0.1359     0.1304    21.5014     0.2171   208.6400    21.2928     0.0002
  654   13.060   2456.27    22.3295     0.0563     0.1330     0.1306    22.3851     0.2533   208.9600    22.1761     0.0001
  655   13.080   2457.20    22.7518     0.0604     0.1328     0.1308    22.8073     0.2659   209.2800    22.5980     0.0001
  656   13.100   2458.11    22.5989     0.0584     0.1323     0.1310    22.6552     0.2578   209.6000    22.4456     0.0001
  657   13.120   2458.99    22.2053     0.0582     0.1339     0.1312    22.2611     0.2616   209.9200    22.0512     0.0001
  658   13.140   2459.87    21.6295     0.0559     0.1353     0.1314    21.6854     0.2577   210.2400    21.4752     0.0001
  659   13.160   2460.78    21.0086     0.0568     0.1363     0.1316    21.0663     0.2694   210.5600    20.8558     0.0003
  660   13.180   2461.66    20.4529     0.0580     0.1337     0.1318    20.5096     0.2824   210.8800    20.2987     0.0002
  661   13.200   2462.56    20.4390     0.0601     0.1345     0.1320    20.4956     0.2943   211.2000    20.2844     0.0001
  662   13.220   2463.49    21.3844     0.0614     0.1351     0.1322    21.4405     0.2895   211.5200    21.2290     0.0001
  663   13.240   2464.38    22.2813     0.0603     0.1333     0.1324    22.3385     0.2712   211.8400    22.1266     0.0002
  664   13.260   2465.27    22.4520     0.0598     0.1333     0.1326    22.5101     0.2661   212.1600    22.2979     0.0003
  665   13.280   2466.19    22.3979     0.0628     0.1330     0.1328    22.4532     0.2802   212.4800    22.2407    -0.0001
  666   13.300   2467.08    22.3124     0.0607     0.1320     0.1330    22.3673     0.2720   212.8000    22.1545    -0.0001
  667   13.320   2468.03    22.6250     0.0578     0.1338     0.1332    22.6820     0.2563   213.1200    22.4688     0.0001
  668   13.340   2468.95    23.0522     0.0609     0.1364     0.1334    23.1084     0.2651   213.4400    22.8950     0.0000
  669   13.360   2469.86    23.2559     0.0631     0.1350     0.1336    23.3127     0.2712   213.7600    23.0989     0.0001
  670   13.380   2470.76    22.9563     0.0626     0.1350     0.1338    23.0119     0.2721   214.0800    22.7978    -0.0001
  671   13.400   2471.63    22.3514     0.0639     0.1363     0.1340    22.4086     0.2850   214.4000    22.1942     0.0001
  672   13.420   2472.55    22.1431     0.0638     0.1354     0.1342    22.2015     0.2881   214.7200    21.9868     0.0002
  673   13.440   2473.47    22.4786     0.0620     0.1348     0.1344    22.5344     0.2764   215.0400    22.3193    -0.0001
  674   13.460   2474.38    23.2208     0.0635     0.1399     0.1346    23.2788     0.2743   215.3600    23.0635     0.0001
  675   13.480   2475.32    23.8083     0.0672     0.1368     0.1348    23.8667     0.2829   215.6800    23.6510     0.0002
  676   13.500   2476.19    24.0698     0.0734     0.1383     0.1350    24.1279     0.3053   216.0000    23.9119     0.0001
  677   13.520   2477.11    24.1749     0.0800     0.1384     0.1352    24.2336     0.3312   216.3200    24.0173     0.0002
  678   13.540   2478.04    24.5939     0.0867     0.1409     0.1354    24.6526     0.3534   216.6400    24.4360     0.0002
  679   13.560   2478.98    25.1998     0.0891     0.1420     0.1356    25.2595     0.3551   216.9600    25.0425     0.0003
  680   13.580   2479.87    25.9441     0.0863     0.1406     0.1358    26.0029     0.3342   217.2800    25.7856     0.0002
  681   13.600   2480.73    26.3604     0.0855     0.1389     0.1360    26.4185     0.3243   217.6000    26.2009     0.0001
  682   13.620   2481.63    26.0712     0.0864     0.1333     0.1362    26.1297     0.3309   217.9200    25.9118     0.0001
  683   13.640   2482.56    25.4660     0.0819     0.1362     0.1364    25.5234     0.3211   218.2400    25.3051     0.0000
  684   13.660   2483.50    24.7740     0.0778     0.1354     0.1366    24.8301     0.3134   218.5600    24.6116    -0.0001
  685   13.680   2484.39    24.5890     0.0717     0.1388     0.1368    24.6464     0.2920   218.8800    24.4276     0.0000
  686   13.700   2485.30    25.0732     0.0639     0.1309     0.1370    25.1304     0.2555   219.2000    24.9112     0.0000
  687   13.720   2486.26    25.4809     0.0657     0.1328     0.1372    25.5360     0.2580   219.5200    25.3165    -0.0002
  688   13.740   2487.14    25.2161     0.0729     0.1338     0.1374    25.2736     0.2882   219.8400    25.0537     0.0000
  689   13.760   2488.06    24.5412     0.0747     0.1386     0.1376    24.5990     0.3028   220.1600    24.3788     0.0000
  690   13.780   2488.95    23.8164     0.0767     0.1388     0.1378    23.8742     0.3204   220.4800    23.6538     0.0000
  691   13.800   2489.85    23.3249     0.0793     0.1419     0.1380    23.3832     0.3389   220.8000    23.1624     0.0000
  692   13.820   2490.72    22.9681     0.0815     0.1463     0.1382    23.0285     0.3539   221.1200    22.8074     0.0002
  693   13.840   2491.61    22.3917     0.0873     0.1408     0.1384    22.4505     0.3886   221.4400    22.2291     0.0001
  694   13.860   2492.50    21.6267     0.0912     0.1397     0.1386    21.6863     0.4201   221.7600    21.4645     0.0002
  695   13.880   2493.42    20.9101     0.0875     0.1401     0.1388    20.9681     0.4170   222.0800    20.7461     0.0000
  696   13.900   2494.32    20.3432     0.0812     0.1408     0.1390    20.4032     0.3978   222.4000    20.1808     0.0002
  697   13.920   2495.27    19.9004     0.0750     0.1314     0.1392    19.9572     0.3754   222.7200    19.7345    -0.0002
  698   13.940   2496.14    19.4776     0.0638     0.1293     0.1394    19.5317     0.3263   223.0400    19.3086    -0.0006
  699   13.960   2497.03    19.0051     0.0552     0.1338     0.1396    19.0605     0.2892   223.3600    18.8372    -0.0004
  700   13.980   2497.94    18.8355     0.0488     0.1213     0.1398    18.8887     0.2590   223.6800    18.6650    -0.0007
  701   14.000   2498.86    18.9071     0.0407     0.1207     0.1400    18.9606     0.2154   224.0000    18.7366    -0.0007
  702   14.020   2499.76    18.8440     0.0342     0.1170     0.1402    18.8937     0.1812   224.3200    18.6694    -0.0012
  703   14.040   2500.62    18.7020     0.0283     0.1234     0.1404    18.7545     0.1511   224.6400    18.5299    -0.0008
  704   14.060   2501.54    18.5170     0.0253     0.1284     0.1406    18.5707     0.1366   224.9600    18.3457    -0.0007
  705   14.080   2502.41    18.6619     0.0260     0.1317     0.1408    18.7154     0.1397   225.2800    18.4901    -0.0007
  706   14.100   2503.32    19.2780     0.0286     0.1319     0.1410    19.3339     0.1510   225.6000    19.1083    -0.0004
  707   14.120   2504.25    20.3374     0.0350     0.1320     0.1412    20.3924     0.1729   225.9200    20.1664    -0.0005
  708   14.140   2505.15    21.3998     0.0470     0.1378     0.1414    21.4581     0.2246   226.2400    21.2318    -0.0001
  709   14.160   2506.12    22.8748     0.0553     0.1373     0.1416    22.9335     0.2423   226.5600    22.7069    -0.0001
  710   14.180   2507.10    24.1414     0.0650     0.1417     0.1418    24.2022     0.2709   226.8800    23.9753     0.0001
  711   14.200   2508.02    25.2859     0.0800     0.1407     0.1420    25.3451     0.3178   227.2000    25.1179     0.0000
  712   14.220   2508.92    26.2813     0.0955     0.1346     0.1422    26.3376     0.3640   227.5200    26.1101    -0.0003
  713   14.240   2509.84    26.7916     0.1076     0.1081     0.1424    26.8376     0.4021   227.8400    26.6098    -0.0012
  714   14.260   2510.72    27.1041     0.1175     0.1212     0.1426    27.1596     0.4339   228.1600    26.9315    -0.0004
  715   14.280   2511.67    27.2771     0.1259     0.1401     0.1428    27.3326     0.4618   228.4800    27.1041    -0.0004
  716   14.300   2512.53    27.3996     0.1335     0.1532     0.1430    27.4625     0.4871   228.8000    27.2337     0.0002
  717   14.320   2513.44    27.4458     0.1402     0.1415     0.1432    27.5089     0.5105   229.1200    27.2797     0.0003
  718   14.340   2514.40    27.5682     0.1455     0.1287     0.1434    27.6235     0.5277   229.4400    27.3940    -0.0004
  719   14.360   2515.30    27.6620     0.1481     0.1340     0.1436    27.7180     0.5356   229.7600    27.4883    -0.0004
  720   14.380   2516.25    27.7453     0.1511     0.1368     0.1438    27.8033     0.5444   230.0800    27.5732    -0.0002
  721   14.400   2517.17    27.6899     0.1525     0.1420     0.1440    27.7498     0.5505   230.4000    27.5194     0.0000
  722   14.420   2518.10    27.3895     0.1535     0.1568     0.1442    27.4542     0.5595   230.7200    27.2235     0.0004
  723   14.440   2519.04    27.1242     0.1585     0.1408     0.1444    27.1849     0.5834   231.0400    26.9538     0.0000
  724   14.460   2519.92    26.6585     0.1624     0.1441     0.1446    26.7191     0.6072   231.3600    26.4877     0.0000
  725   14.480   2520.85    26.1438     0.1621     0.1439     0.1448    26.2072     0.6185   231.6800    25.9755     0.0002
  726   14.500   2521.71    25.6920     0.1617     0.1370     0.1450    25.7513     0.6276   232.0000    25.5193    -0.0001
  727   14.520   2522.66    25.4255     0.1617     0.1468     0.1452    25.4865     0.6350   232.3200    25.2542     0.0000
  728   14.540   2523.49    25.3684     0.1654     0.1495     0.1454    25.4308     0.6520   232.6400    25.1982     0.0001
  729   14.560   2524.44    25.1675     0.1723     0.1567     0.1456    25.2323     0.6839   232.9600    24.9994     0.0004
  730   14.580   2525.34    24.9185     0.1731     0.1479     0.1458    24.9795     0.6934   233.2800    24.7463     0.0000
  731   14.600   2526.18    24.4865     0.1684     0.1396     0.1460    24.5437     0.6864   233.6000    24.3101    -0.0004
  732   14.620   2527.11    23.9378     0.1648     0.1383     0.1462    23.9960     0.6846   233.9200    23.7621    -0.0003
  733   14.640   2528.06    23.4620     0.1656     0.1466     0.1464    23.5225     0.6967   234.2400    23.2883    -0.0001
  734   14.660   2528.95    23.3371     0.1664     0.1453     0.1466    23.3986     0.7088   234.5600    23.1640     0.0000
  735   14.680   2529.88    23.7633     0.1689     0.1501     0.1468    23.8251     0.7120   234.8800    23.5902     0.0000
  736   14.700   2530.76    24.6104     0.1726     0.1542     0.1470    24.6738     0.7132   235.2000    24.4386     0.0002
  737   14.720   2532.01    25.7558     0.1796     0.1556     0.1472    25.8228     0.6979   235.5200    25.5873     0.0005
  738   14.740   2545.09    26.2926     0.1900     0.1446     0.1474    26.3549     0.7381   235.8400    26.1190     0.0001
  739   14.760   2558.18    26.8292     0.1947     0.1336     0.1476    26.8869     0.7563   236.1600    26.6508    -0.0004
  740   14.780   2568.91    27.3587     0.1929     0.1394     0.1478    27.4147     0.7252   236.4800    27.1783    -0.0005
  741   14.800   2569.88    27.6887     0.1921     0.1382     0.1480    27.7465     0.6962   236.8000    27.5097    -0.0004
  742   14.820   2570.80    27.7964     0.1991     0.1401     0.1482    27.8562     0.7173   237.1200    27.6191    -0.0002
  743   14.840   2571.77    27.9888     0.2020     0.1438     0.1484    28.0491     0.7222   237.4400    27.8116    -0.0002
  744   14.860   2572.68    28.3625     0.2017     0.1387     0.1486    28.4232     0.7123   237.7600    28.1854    -0.0001
  745   14.880   2573.62    28.6311     0.2055     0.1457     0.1488    28.6920     0.7181   238.0800    28.4539    -0.0001
  746   14.900   2574.53    28.7961     0.2082     0.1505     0.1490    28.8585     0.7230   238.4000    28.6201     0.0000
  747   14.920   2575.45    28.8793     0.2147     0.1514     0.1492    28.9432     0.7428   238.7200    28.7045     0.0001
  748   14.940   2576.38    28.9035     0.2184     0.1439     0.1494    28.9644     0.7559   239.0400    28.7254    -0.0002
  749   14.960   2577.28    29.1128     0.2165     0.1488     0.1496    29.1770     0.7470   239.3600    28.9377     0.0001
  750   14.980   2578.23    29.3713     0.2172     0.1638     0.1498    29.4416     0.7434   239.6800    29.2020     0.0006
  751   15.000   2579.13    29.7684     0.2182     0.1502     0.1500    29.8299     0.7333   240.0000    29.5899    -0.0001
  752   15.020   2580.07    30.2241     0.2149     0.1430     0.1502    30.2852     0.7168   240.3200    30.0449    -0.0002
  753   15.040   2581.02    30.6665     0.2051     0.1545     0.1504    30.7321     0.6724   240.6400    30.4914     0.0002
  754   15.060   2581.96    31.1797     0.1956     0.1441     0.1506    31.2395     0.6297   240.9600    30.9986    -0.0003
  755   15.080   2582.88    31.7220     0.1940     0.1580     0.1508    31.7840     0.6168   241.2800    31.5427    -0.0001
  756   15.100   2583.78    32.4471     0.1954     0.1456     0.1510    32.5100     0.6092   241.6000    32.2684     0.0000
  757   15.120   2584.74    33.0147     0.1975     0.1419     0.1512    33.0762     0.6014   241.9200    32.8343    -0.0001
  758   15.140   2585.66    33.2272     0.1984     0.1490     0.1514    33.2888     0.5988   242.2400    33.0465    -0.0001
  759   15.160   2586.59    33.3229     0.2024     0.1564     0.1516    33.3870     0.6077   242.5600    33.1445     0.0000
  760   15.180   2587.54    33.4522     0.2086     0.1539     0.1518    33.5182     0.6242   242.8800    33.2753     0.0002
  761   15.200   2588.48    33.5431     0.2140     0.1563     0.1520    33.6071     0.6382   243.2000    33.3639     0.0000
  762   15.220   2589.40    33.5303     0.2195     0.1437     0.1522    33.5958     0.6544   243.5200    33.3523     0.0001
  763   15.240   2590.34    33.3408     0.2239     0.1555     0.1524    33.4047     0.6690   243.8400    33.1608     0.0000
  764   15.260   2591.25    32.9765     0.2296     0.1594     0.1526    33.0387     0.6951   244.1600    32.7945    -0.0001
  765   15.280   2592.17    32.3552     0.2314     0.1562     0.1528    32.4183     0.7087   244.4800    32.1738    -0.0001
  766   15.300   2593.09    32.0950     0.2298     0.1499     0.1530    32.1585     0.7141   244.8000    31.9137    -0.0001
  767   15.320   2594.04    32.1634     0.2289     0.1576     0.1532    32.2274     0.7120   245.1200    31.9823     0.0000
  768   15.340   2595.01    32.2331     0.2299     0.1624     0.1534    32.3027     0.7132   245.4400    32.0573     0.0004
  769   15.360   2595.90    32.2714     0.2306     0.1469     0.1536    32.3336     0.7151   245.7600    32.0878    -0.0002
  770   15.380   2596.87    32.1958     0.2279     0.1484     0.1538    32.2544     0.7075   246.0800    32.0083    -0.0005
  771   15.400   2597.78    32.0477     0.2306     0.1484     0.1540    32.1108     0.7186   246.4000    31.8644    -0.0001
  772   15.420   2598.71    31.9797     0.2398     0.1463     0.1542    32.0413     0.7496   246.7200    31.7945    -0.0002
  773   15.440   2599.63    31.7966     0.2458     0.1500     0.1544    31.8603     0.7706   247.0400    31.6132    -0.0001
  774   15.460   2600.57    31.5765     0.2538     0.1598     0.1546    31.6421     0.8027   247.3600    31.3947     0.0001
  775   15.480   2601.48    31.3676     0.2586     0.1640     0.1548    31.4365     0.8242   247.6800    31.1889     0.0003
  776   15.500   2602.41    30.9632     0.2642     0.1793     0.1550    31.0333     0.8519   248.0000    30.7853     0.0004
  777   15.520   2603.36    30.5441     0.2602     0.1459     0.1552    30.6151     0.8506   248.3200    30.3667     0.0004
  778   15.540   2604.26    30.3772     0.2505     0.1503     0.1554    30.4378     0.8246   248.6400    30.1892    -0.0004
  779   15.560   2605.16    30.2842     0.2334     0.1651     0.1556    30.3533     0.7705   248.9600    30.1043     0.0003
  780   15.580   2606.04    30.2061     0.2260     0.1494     0.1558    30.2721     0.7468   249.2800    30.0228     0.0000
  781   15.600   2607.01    30.0006     0.2210     0.1432     0.1560    30.0613     0.7346   249.6000    29.8117    -0.0004
  782   15.620   2607.95    30.0249     0.2199     0.1317     0.1562    30.0806     0.7325   249.9200    29.8307    -0.0008
  783   15.640   2608.89    30.0749     0.2192     0.1393     0.1564    30.1323     0.7285   250.2400    29.8821    -0.0007
  784   15.660   2609.81    29.8231     0.2194     0.1347     0.1566    29.8784     0.7343   250.5600    29.6279    -0.0008
  785   15.680   2610.74    29.0583     0.2229     0.1455     0.1568    29.1161     0.7651   250.8800    28.8652    -0.0007
  786   15.700   2611.67    28.2815     0.2253     0.1569     0.1570    28.3450     0.7926   251.2000    28.0938    -0.0002
  787   15.720   2612.57    27.2357     0.2264     0.1596     0.1572    27.3026     0.8253   251.5200    27.0510     0.0001
  788   15.740   2613.45    25.9148     0.2206     0.1568     0.1574    25.9805     0.8421   251.8400    25.7286     0.0000
  789   15.760   2614.37    24.6634     0.2084     0.1621     0.1576    24.7337     0.8352   252.1600    24.4816     0.0004
  790   15.780   2615.28    23.2596     0.1939     0.1626     0.1578    23.3258     0.8194   252.4800    23.0733     0.0000
  791   15.800   2616.14    21.8725     0.1827     0.1520     0.1580    21.9358     0.8197   252.8000    21.6830    -0.0003
  792   15.820   2617.06    19.9727     0.1734     0.1451     0.1582    20.0342     0.8433   253.1200    19.7811    -0.0006
  793   15.840   2617.93    17.6829     0.1639     0.1279     0.1584    17.7403     0.8842   253.4400    17.4868    -0.0013
  794   15.860   2618.83    15.1177     0.1683     0.1351     0.1586    15.1740     1.0681   253.7600    14.9203    -0.0016
  795   15.880   2619.68    12.5477     0.1601     0.1279     0.1588    12.6013     1.2433   254.0800    12.3472    -0.0025
  796   15.900   2620.56    10.4002     0.1451     0.1282     0.1590    10.4536     1.3866   254.4000    10.1992    -0.0031
  797   15.920   2621.43     8.8218     0.1279     0.1425     0.1592     8.8784     1.3424   254.7200     8.6237    -0.0028
  798   15.940   2622.30     7.7268     0.1114     0.1751     0.1594     7.7958     1.3843   255.0400     7.5408     0.0007
  799   15.960   2623.21     6.6009     0.0970     0.1797     0.1596     6.6797     1.4078   255.3600     6.4244     0.0044
  800   15.980   2624.17     5.6700     0.0816     0.2063     0.1598     5.7398     1.3645   255.6800     5.4841     0.0012
  801   16.000   2625.16     4.9633     0.0686     0.2854     0.1600     5.0670     1.3301   256.0000     4.8110     0.0181
  802   16.020   2626.15     4.2959     0.0551     0.3184     0.1602     4.4203     1.2344   256.3200     4.1639     0.0326
  803   16.040   2627.12     3.7906     0.0531     0.3902     0.1604     3.9471     1.3335   256.6400     3.6904     0.0575
  804   16.060   2628.05     3.3505     0.0378     0.4387     0.1606     3.5264     1.0794   256.9600     3.2694     0.0792
  805   16.080   2629.04     2.9031     0.0316     0.5101     0.1608     3.1064     1.0292   257.2800     2.8492     0.1139
  806   16.100   2629.99     2.5913     0.0266     0.5964     0.1610     2.8298     1.0037   257.6000     2.5722     0.1583
  807   16.120   2630.94     2.6285     0.0356     0.6342     0.1612     2.8917     1.3780   257.9200     2.6337     0.1767
  808   16.140   2631.90     2.9476     0.0355     0.6125     0.1614     3.2119     1.2791   258.2400     2.9537     0.1590
  809   16.160   2632.81     3.1212     0.0403     0.6450     0.1616     3.3839     1.2931   258.5600     3.1253     0.1484
  810   16.180   2633.79     3.0742     0.0417     0.6634     0.1618     3.3481     1.3471   258.8800     3.0892     0.1587
  811   16.200   2634.76     2.8294     0.0436     0.7456     0.1620     3.1257     1.4893   259.2000     2.8665     0.1899
  812   16.220   2635.74     2.6237     0.0436     0.8321     0.1622     2.9752     1.6526   259.5200     2.7157     0.2485
  813   16.240   2636.67     2.6814     0.0421     0.7658     0.1624     3.0074     1.5733   259.8400     2.7475     0.2234
  814   16.260   2637.64     2.5889     0.0506     0.8249     0.1626     2.9244     1.9224   260.1600     2.6643     0.2390
  815   16.280   2638.67     2.3908     0.0624     0.9181     0.1628     2.7652     2.5628   260.4800     2.5047     0.2910
  816   16.300   2639.59     2.5822     0.0744     0.9949     0.1630     2.9879     2.9684   260.8000     2.7271     0.2945
  817   16.320   2640.59     3.3684     0.0834     0.8921     0.1632     3.7739     2.6352   261.1200     3.5128     0.2296
  818   16.340   2641.53     4.2095     0.0890     0.7348     0.1634     4.5321     2.1965   261.4400     4.2707     0.1424
  819   16.360   2642.52     5.5227     0.0836     0.6197     0.1636     5.8029     1.6814   261.7600     5.5411     0.0917
  820   16.380   2643.54     7.8342     0.0705     0.4954     0.1638     8.0613     1.0560   262.0800     7.7992     0.0490
  821   16.400   2644.51    10.4717     0.0630     0.2278     0.1640    10.6097     0.6832   262.4000    10.3473     0.0164
  822   16.420   2645.50    12.2812     0.0522    -0.0033     0.1642    12.3107     0.4279   262.7200    12.0480    -0.0077
  823   16.440   2646.46    13.0687     0.0499    -0.1438     0.1644    13.0236     0.3874   263.0400    12.7605    -0.0213
  824   16.460   2647.38    13.5124     0.0490    -0.1806     0.1646    13.4423     0.3663   263.3600    13.1790    -0.0251
  825   16.480   2648.29    13.8907     0.0508    -0.1870     0.1648    13.8136     0.3661   263.6800    13.5499    -0.0257
  826   16.500   2649.20    13.9571     0.0841    -0.1940     0.1650    13.8765     0.6048   264.0000    13.6125    -0.0262
  827   16.520   2650.10    14.0894     0.0870    -0.1932     0.1652    14.0079     0.6206   264.3200    13.7436    -0.0261
  828   16.540   2651.63    14.3304     0.0899    -0.1371     0.1654    14.2624     0.6364   264.6400    13.9978    -0.0236
  829   16.560   2653.81    14.7527     0.0879    -0.0652     0.1656    14.7149     0.6215   264.9600    14.4500    -0.0180
  830   16.580   2656.00    15.1750     0.0757     0.0039     0.1658    15.1675     0.5348   265.2800    14.9022    -0.0125
  831   16.600   2658.76    15.1950     0.0694     0.0210     0.1660    15.1988     0.4551   265.6000    14.9332    -0.0105
  832   16.620   2674.06    15.2319     0.0779     0.0071     0.1662    15.2369     0.5158   265.9200    14.9710    -0.0103
  833   16.640   2696.64    15.4389     0.0902    -0.0068     0.1664    15.4381     0.5978   266.2400    15.1718    -0.0111
  834   16.660   2711.08    15.4019     0.1006    -0.0840     0.1666    15.3833     0.6497   266.5600    15.1167    -0.0140
  835   16.680   2712.01    15.4923     0.0962    -0.1090     0.1668    15.4457     0.6213   266.8800    15.1788    -0.0183
  836   16.700   2712.98    16.1607     0.0788    -0.1421     0.1670    16.1103     0.4889   267.2000    15.8431    -0.0181
  837   16.720   2713.92    17.3832     0.0716    -0.2375     0.1672    17.2891     0.4166   267.5200    17.0215    -0.0230
  838   16.740   2714.84    18.7849     0.0646    -0.2356     0.1674    18.6894     0.3466   267.8400    18.4216    -0.0214
  839   16.760   2715.74    19.3466     0.0632    -0.2628     0.1676    19.2402     0.3274   268.1600    18.9720    -0.0222
  840   16.780   2716.68    19.7198     0.0723    -0.2756     0.1678    19.6044     0.3675   268.4800    19.3359    -0.0229
  841   16.800   2717.63    19.8223     0.0754    -0.2449     0.1680    19.7077     0.3810   268.8000    19.4389    -0.0227
  842   16.820   2726.08    19.3295     0.0888    -0.1463     0.1682    19.2537     0.4479   269.1200    18.9846    -0.0182
  843   16.840   2735.05    18.7901     0.1176    -0.0478     0.1684    18.7558     0.5931   269.4400    18.4864    -0.0134
  844   16.860   2738.77    18.1344     0.1433    -0.0365     0.1686    18.1136     0.7749   269.7600    17.8439    -0.0122
  845   16.880   2739.72    17.6496     0.1539    -0.0018     0.1688    17.6469     0.8730   270.0800    17.3768    -0.0101
  846   16.900   2740.65    18.2009     0.1716     0.0562     0.1690    18.2093     0.9638   270.4000    17.9389    -0.0083
  847   16.920   2741.58    19.3201     0.1656     0.1510     0.1692    19.3775     0.8582   270.7200    19.1067    -0.0017
  848   16.940   2742.53    20.3233     0.1553     0.0989     0.1694    20.3785     0.7660   271.0400    20.1074    -0.0019
  849   16.960   2743.48    21.5215     0.1529    -0.0391     0.1696    21.5210     0.7113   271.3600    21.2496    -0.0080
  850   16.980   2744.38    22.4122     0.1370     0.0475     0.1698    22.4071     0.6126   271.6800    22.1354    -0.0082
  851   17.000   2745.33    23.6848     0.1204    -0.1121     0.1700    23.6564     0.5132   272.0000    23.3844    -0.0101
  852   17.020   2746.24    25.2068     0.1061    -0.1624     0.1702    25.1442     0.4238   272.3200    24.8719    -0.0128
  853   17.040   2747.13    26.3453     0.0883    -0.1616     0.1704    26.2794     0.3371   272.6400    26.0067    -0.0126
  854   17.060   2748.08    26.7814     0.0846    -0.1727     0.1706    26.7092     0.3160   272.9600    26.4363    -0.0130
  855   17.080   2748.96    26.4746     0.0928    -0.1738     0.1708    26.4025     0.3505   273.2800    26.1292    -0.0131
  856   17.100   2749.90    26.5741     0.1064    -0.1896     0.1710    26.4957     0.4000   273.6000    26.2221    -0.0136
  857   17.120   2750.76    26.3148     0.1259    -0.2083     0.1712    26.2299     0.4773   273.9200    25.9559    -0.0144
  858   17.140   2751.66    26.0858     0.1415    -0.2153     0.1714    25.9954     0.5428   274.2400    25.7212    -0.0150
  859   17.160   2752.59    26.1388     0.1540    -0.2119     0.1716    26.0487     0.5889   274.5600    25.7741    -0.0150
  860   17.180   2753.52    25.7027     0.1630    -0.2036     0.1718    25.6163     0.6336   274.8800    25.3414    -0.0149
  861   17.200   2754.44    25.3934     0.1695    -0.1960     0.1720    25.3097     0.6674   275.2000    25.0345    -0.0148
  862   17.220   2755.32    25.2106     0.1708    -0.1774     0.1722    25.1332     0.6772   275.5200    24.8577    -0.0143
  863   17.240   2756.23    24.8894     0.1665    -0.1607     0.1724    24.8184     0.6622   275.8400    24.5426    -0.0139
  864   17.260   2757.13    24.3749     0.1665    -0.1252     0.1726    24.3164     0.6826   276.1600    24.0402    -0.0130
  865   17.280   2758.12    24.0267     0.1832    -0.0797     0.1728    23.9863     0.7625   276.4800    23.7098    -0.0113
  866   17.300   2759.04    23.6480     0.1917    -0.0268     0.1730    23.6282     0.8099   276.8000    23.3514    -0.0094
  867   17.320   2759.97    23.3352     0.1900     0.0213     0.1732    23.3388     0.8138   277.1200    23.0617    -0.0071
  868   17.340   2760.90    23.4835     0.1825     0.0246     0.1734    23.4958     0.7781   277.4400    23.2183    -0.0062
  869   17.360   2761.82    24.0127     0.1707     0.0411     0.1736    24.0264     0.7130   277.7600    23.7486    -0.0059
  870   17.380   2762.71    24.8662     0.1638     0.0812     0.1738    24.8977     0.6612   278.0800    24.6196    -0.0040
  871   17.400   2763.64    25.3840     0.1634     0.1055     0.1740    25.4250     0.6454   278.4000    25.1466    -0.0030
  872   17.420   2764.54    25.5697     0.1669     0.1179     0.1742    25.6201     0.6533   278.7200    25.3414    -0.0021
  873   17.440   2765.44    25.3897     0.1692     0.1114     0.1744    25.4351     0.6639   279.0400    25.1561    -0.0026
  874   17.460   2766.35    24.7444     0.1674     0.1133     0.1746    24.7940     0.6712   279.3600    24.5146    -0.0023
  875   17.480   2767.27    23.6543     0.1650     0.1429     0.1748    23.7169     0.6900   279.6800    23.4372    -0.0011
  876   17.500   2768.17    22.3193     0.1578     0.1326     0.1750    22.3761     0.6956   280.0000    22.0961    -0.0018
  877   17.520   2769.04    21.0842     0.1477     0.1240     0.1752    21.1361     0.6896   280.3200    20.8558    -0.0025
  878   17.540   2769.92    19.7882     0.1379     0.1424     0.1754    19.8459     0.6837   280.6400    19.5652    -0.0019
  879   17.560   2770.82    18.3484     0.1295     0.1223     0.1756    18.4014     0.6912   280.9600    18.1204    -0.0027
  880   17.580   2771.69    17.1430     0.1194     0.1208     0.1758    17.1925     0.6878   281.2800    16.9112    -0.0034
  881   17.600   2772.60    16.0496     0.1149     0.1200     0.1760    16.1012     0.7073   281.6000    15.8196    -0.0034
  882   17.620   2773.46    15.1949     0.1013     0.1305     0.1762    15.2466     0.6612   281.9200    14.9647    -0.0035
  883   17.640   2774.36    14.7085     0.0830     0.1425     0.1764    14.7673     0.5642   282.2400    14.4850    -0.0025
  884   17.660   2775.22    14.9487     0.0702     0.1369     0.1766    15.0122     0.4700   282.5600    14.7297    -0.0017
  885   17.680   2776.18    16.2337     0.0540     0.0666     0.1768    16.2751     0.3350   282.8800    15.9923    -0.0049
  886   17.700   2777.07    17.7320     0.0523    -0.0219     0.1770    17.7345     0.2969   283.2000    17.4513    -0.0098
  887   17.720   2777.97    18.9510     0.0530    -0.0725     0.1772    18.9263     0.2806   283.5200    18.6427    -0.0127
  888   17.740   2778.89    20.2639     0.0636    -0.1212     0.1774    20.2194     0.3142   283.8400    19.9355    -0.0142
  889   17.760   2779.81    21.5975     0.0819    -0.1061     0.1776    21.5474     0.3794   284.1600    21.2632    -0.0140
  890   17.780   2780.79    22.4771     0.1032    -0.1040     0.1778    22.4347     0.4593   284.4800    22.1503    -0.0126
  891   17.800   2781.68    22.7998     0.1245    -0.0980     0.1780    22.7578     0.5460   284.8000    22.4730    -0.0124
  892   17.820   2782.57    22.9018     0.1465    -0.1003     0.1782    22.8601     0.6388   285.1200    22.5750    -0.0123
  893   17.840   2783.50    22.8929     0.1622    -0.0750     0.1784    22.8555     0.7098   285.4400    22.5700    -0.0119
  894   17.860   2784.43    23.7798     0.1705    -0.0184     0.1786    23.7625     0.7360   285.7600    23.4767    -0.0094
  895   17.880   2785.37    26.1245     0.1803     0.0555     0.1788    26.1382     0.7237   286.0800    25.8521    -0.0057
  896   17.900   2786.33    28.6970     0.1971     0.1131     0.1790    28.7351     0.7191   286.4000    28.4487    -0.0031
  897   17.920   2787.27    30.9668     0.2184     0.0971     0.1792    31.0195     0.7285   286.7200    30.7328    -0.0017
  898   17.940   2788.19    31.9281     0.2365     0.0423     0.1794    31.9447     0.7418   287.0400    31.6577    -0.0044
  899   17.960   2789.14    31.8974     0.2470     0.0475     0.1796    31.9139     0.7742   287.3600    31.6266    -0.0044
  900   17.980   2790.09    31.4336     0.2624     0.0584     0.1798    31.4536     0.8340   287.6800    31.1659    -0.0042
  901   18.000   2790.98    30.8628     0.2782     0.0887     0.1800    30.8972     0.9011   288.0000    30.6092    -0.0032
  902   18.020   2791.93    30.5701     0.2871     0.1054     0.1802    30.6136     0.9385   288.3200    30.3252    -0.0025
  903   18.040   2792.85    30.3555     0.3078     0.1337     0.1804    30.4084     1.0138   288.6400    30.1197    -0.0018
  904   18.060   2793.72    30.2780     0.3194     0.1779     0.1806    30.3455     1.0550   288.9600    30.0565    -0.0007
  905   18.080   2794.65    30.5054     0.3655     0.2148     0.1808    30.5899     1.1986   289.2800    30.3006     0.0007
  906   18.100   2795.59    30.4765     0.4422     0.1703     0.1810    30.5533     1.4540   289.6000    30.2637     0.0001
  907   18.120   2796.51    30.2245     0.4973     0.2231     0.1812    30.3106     1.6419   289.9200    30.0207     0.0008
  908   18.140   2797.41    29.5447     0.4948     0.1924     0.1814    29.6261     1.6559   290.2400    29.3359     0.0004
  909   18.160   2798.31    29.0860     0.4455     0.1862     0.1816    29.1641     1.5289   290.5600    28.8735     0.0001
  910   18.180   2799.26    27.6359     0.3878     0.2132     0.1818    27.7288     1.3696   290.8800    27.4379     0.0014
  911   18.200   2800.23    26.8462     0.3534     0.2717     0.1820    26.9509     1.3003   291.2000    26.6597     0.0025
  912   18.220   2801.17    26.1285     0.3345     0.1334     0.1822    26.2114     1.2792   291.5200    25.9199     0.0006
  913   18.240   2802.10    26.6099     0.2934     0.0181     0.1824    26.6347     1.1048   291.8400    26.3429    -0.0047
  914   18.260   2803.50    28.1396     0.2833    -0.0196     0.1826    28.1324     1.0267   292.1600    27.8402    -0.0072
  915   18.280   2805.56    29.4660     0.2599    -0.0266     0.1828    29.4559     0.9286   292.4800    29.1634    -0.0071
  916   18.300   2807.61    30.7926     0.2675    -0.0113     0.1830    30.7795     0.9381   292.8000    30.4867    -0.0070
  917   18.320   2809.72    29.2118     0.2750     0.0007     0.1832    29.2401     0.9475   293.1200    28.9470    -0.0040
  918   18.340   2810.72    30.7342     0.2893     0.0040     0.1834    30.7339     0.9379   293.4400    30.4405    -0.0060
  919   18.360   2812.56    28.1258     0.3059    -0.0054     0.1836    28.1308     1.0982   293.7600    27.8371    -0.0062
  920   18.380   2814.76    29.9207     0.3127    -0.0280     0.1838    29.9055     1.0468   294.0800    29.6114    -0.0074
  921   18.400   2817.83    30.0606     0.3202    -0.0040     0.1840    30.0555     1.0719   294.4000    29.7611    -0.0066
  922   18.420   2820.90    30.2006     0.3126     0.0199     0.1842    30.2055     1.0432   294.7200    29.9108    -0.0058
  923   18.440   2822.75    30.2298     0.2982     0.0278     0.1844    30.2386     0.9857   295.0400    29.9435    -0.0055
  924   18.460   2823.68    29.5328     0.3214     0.0449     0.1846    29.5639     1.0837   295.3600    29.2685    -0.0038
  925   18.480   2824.60    27.8260     0.2731     0.0194     0.1848    27.8372     0.9541   295.6800    27.5415    -0.0057
  926   18.500   2825.54    26.3843     0.2569     0.0097     0.1850    26.3897     0.9549   296.0000    26.0937    -0.0066
  927   18.520   2826.47    25.2422     0.2484     0.0044     0.1852    25.2443     0.9897   296.3200    24.9480    -0.0072
  928   18.540   2827.37    24.4033     0.2463    -0.0108     0.1854    24.3998     1.0883   296.6400    24.1031    -0.0080
  929   18.560   2830.32    20.7046     0.2443     0.1140     0.1856    20.7406     1.1869   296.9600    20.4436    -0.0049
  930   18.580   2831.75    22.8779     0.2499     0.0694     0.1858    22.9131     1.1128   297.2800    22.6158    -0.0045
  931   18.600   2832.73    23.2195     0.2509     0.0547     0.1860    23.2380     1.0858   297.6000    22.9404    -0.0062
  932   18.620   2833.69    24.4484     0.2496     0.0812     0.1862    24.4750     1.0337   297.9200    24.1771    -0.0051
  933   18.640   2850.11    25.8984     0.2568     0.1331     0.1864    25.9468     1.0503   298.2400    25.6485    -0.0030
  934   18.660   2866.56    27.3486     0.2767     0.1850     0.1866    27.4187     1.1067   298.5600    27.1202    -0.0008
  935   18.680   2874.28    28.1260     0.3044     0.1609     0.1868    28.2015     1.0833   298.8800    27.9027    -0.0003
  936   18.700   2875.21    28.2405     0.3233     0.1344     0.1870    28.3017     1.1453   299.2000    28.0025    -0.0015
  937   18.720   2876.13    28.1896     0.3209     0.1535     0.1872    28.2508     1.1374   299.5200    27.9512    -0.0015
  938   18.740   2877.02    27.8674     0.3189     0.1755     0.1874    27.9374     1.1407   299.8400    27.6375    -0.0008
  939   18.760   2877.95    27.1346     0.3229     0.1779     0.1876    27.2114     1.1841   300.1600    26.9113    -0.0002
  940   18.780   2878.83    26.1197     0.3213     0.1796     0.1878    26.1976     1.2190   300.4800    25.8972    -0.0001
  941   18.800   2879.70    24.9340     0.3068     0.1496     0.1880    24.9977     1.2259   300.8000    24.6969    -0.0015
  942   18.820   2880.62    23.7443     0.2817     0.1670     0.1882    23.8121     1.1809   301.1200    23.5110    -0.0011
  943   18.840   2881.51    22.7232     0.2560     0.1598     0.1884    22.7914     1.1074   301.4400    22.4900    -0.0012
  944   18.860   2882.39    21.9478     0.2316     0.2014     0.1886    22.0228     1.0396   301.7600    21.7211    -0.0005
  945   18.880   2883.31    21.3473     0.2197     0.1931     0.1888    21.4282     1.0211   302.0800    21.1261     0.0002
  946   18.900   2884.23    21.4157     0.2267     0.1859     0.1890    21.4955     1.0630   302.4000    21.1931     0.0000
  947   18.920   2885.21    22.6101     0.2344     0.1695     0.1892    22.6812     1.0685   302.7200    22.3785    -0.0009
  948   18.940   2886.13    25.0401     0.2523     0.1719     0.1894    25.1089     1.0600   303.0400    24.8059    -0.0010
  949   18.960   2887.11    28.2004     0.2836     0.1854     0.1896    28.2805     1.0578   303.3600    27.9771     0.0000
  950   18.980   2888.11    30.5003     0.3298     0.1797     0.1898    30.5776     1.0896   303.6800    30.2739    -0.0002
  951   19.000   2888.99    31.7936     0.3703     0.1581     0.1900    31.8633     1.1857   304.0000    31.5593    -0.0008
  952   19.020   2889.95    32.5379     0.3945     0.1547     0.1902    32.6011     1.2244   304.3200    32.2968    -0.0012
  953   19.040   2890.85    33.1283     0.4093     0.1789     0.1904    33.2006     1.2454   304.6400    32.8960    -0.0006
  954   19.060   2891.76    33.6382     0.4260     0.2029     0.1906    33.7268     1.2717   304.9600    33.4218     0.0006
  955   19.080   2892.72    33.9231     0.4453     0.2091     0.1908    34.0107     1.3194   305.2800    33.7054     0.0005
  956   19.100   2893.68    34.2724     0.4617     0.2155     0.1910    34.3701     1.3541   305.6000    34.0645     0.0012
  957   19.120   2894.59    34.7509     0.4707     0.1809     0.1912    34.8261     1.3639   305.9200    34.5202    -0.0004
  958   19.140   2895.56    34.9470     0.4713     0.2128     0.1914    35.0344     1.3502   306.2400    34.7282     0.0005
  959   19.160   2896.54    34.7522     0.4726     0.1904     0.1916    34.8374     1.3610   306.5600    34.5309     0.0003
  960   19.180   2897.51    34.7109     0.4812     0.2101     0.1918    34.7949     1.3860   306.8800    34.4880     0.0002
  961   19.200   2898.45    34.8579     0.4904     0.2168     0.1920    34.9456     1.4107   307.2000    34.6384     0.0005
  962   19.220   2899.38    35.2515     0.4999     0.1924     0.1922    35.3364     1.4274   307.5200    35.0289     0.0003
  963   19.240   2900.34    35.8910     0.5106     0.1898     0.1924    35.9755     1.4335   307.8400    35.6677     0.0003
  964   19.260   2901.26    36.4023     0.5142     0.2108     0.1926    36.4861     1.4137   308.1600    36.1780     0.0002
  965   19.280   2902.20    36.5765     0.5043     0.2113     0.1928    36.6705     1.3785   308.4800    36.3620     0.0008
  966   19.300   2903.18    35.8947     0.4913     0.1991     0.1930    35.9786     1.3625   308.8000    35.6698     0.0002
  967   19.320   2904.05    34.3038     0.4807     0.1974     0.1932    34.3896     1.3790   309.1200    34.0805     0.0003
  968   19.340   2904.98    31.7980     0.4854     0.1867     0.1934    31.8776     1.4835   309.4400    31.5682    -0.0001
  969   19.360   2905.88    28.6528     0.4963     0.1574     0.1936    28.7175     1.6702   309.7600    28.4077    -0.0014
  970   19.380   2906.78    25.3315     0.5388     0.1565     0.1938    25.3927     2.0419   310.0800    25.0826    -0.0019
  971   19.400   2907.64    20.9504     0.5997     0.1765     0.1940    21.0169     2.7251   310.4000    20.7065    -0.0017
  972   19.420   2908.48    16.9257     0.6050     0.1552     0.1942    16.9978     3.2816   310.7200    16.6871    -0.0014
  973   19.440   2909.36    12.8590     0.5721     0.1742     0.1944    12.9296     4.0026   311.0400    12.6186    -0.0021
  974   19.460   2910.23    10.3129     0.5107     0.2535     0.1946    10.3970     4.7236   311.3600    10.0856     0.0006
  975   19.480   2911.12     9.0948     0.4330     0.5389     0.1948     9.2876     4.7012   311.6800     8.9759     0.0295
  976   19.500   2912.06     7.5417     0.3492     0.5691     0.1950     7.7638     4.5739   312.0000     7.4518     0.0446
  977   19.520   2913.05     6.9003     0.2783     1.1961     0.1952     7.2860     4.0311   312.3200     6.9737     0.1036
  978   19.540   2914.09     7.0302     0.1887     1.7317     0.1954     7.6960     2.7067   312.6400     7.3834     0.1882
  979   19.560   2915.12     7.2340     0.1581     2.3120     0.1956     8.1371     2.1959   312.9600     7.8241     0.2497
  980   19.580   2916.18     7.3245     0.1570     2.2757     0.1958     8.3364     2.1338   313.2800     8.0231     0.2759
  981   19.600   2917.11     7.0583     0.1542     1.7213     0.1960     7.8617     2.1676   313.6000     7.5481     0.2274
  982   19.620   2918.09     6.3897     0.1504     1.6029     0.1962     7.0562     2.3381   313.9200     6.7423     0.2063
  983   19.640   2919.20     5.9905     0.1482     1.5569     0.1964     6.6486     2.4641   314.2400     6.3344     0.2164
  984   19.660   2920.30     5.5669     0.1368     1.4216     0.1966     6.1791     2.4421   314.5600     5.8646     0.2151
  985   19.680   2921.40     5.1377     0.1369     1.2202     0.1968     5.6870     2.6596   314.8800     5.3721     0.2067
  986   19.700   2922.55     4.6388     0.1344     0.9756     0.1970     5.0738     2.8821   315.2000     4.7586     0.1763
  987   19.720   2923.60     4.1879     0.1364     0.9486     0.1972     4.5790     3.2304   315.5200     4.2635     0.1722
  988   19.740   2924.68     3.5984     0.1175     0.8980     0.1974     3.9855     3.2540   315.8400     3.6697     0.1974
  989   19.760   2925.83     3.2423     0.1011     0.9039     0.1976     3.6085     3.0900   316.1600     3.2924     0.2050
  990   19.780   2926.91     2.8339     0.0881     0.9982     0.1978     3.2399     3.0406   316.4800     2.9234     0.2634
  991   19.800   2928.05     2.5645     0.0753     1.0395     0.1980     2.9977     2.8981   316.8000     2.6809     0.3108
  992   19.820   2929.14     2.4680     0.0637     1.0888     0.1982     2.9187     2.5601   317.1200     2.6016     0.3363
  993   19.840   2930.22     2.3439     0.0578     1.1265     0.1984     2.8103     2.4251   317.4400     2.4928     0.3658
  994   19.860   2931.29     2.2729     0.0530     1.1330     0.1986     2.7494     2.3185   317.7600     2.4316     0.3849
  995   19.880   2932.37     2.2378     0.0494     1.1330     0.1988     2.7144     2.2019   318.0800     2.3963     0.3905
  996   19.900   2933.38     2.1922     0.0480     1.1415     0.1990     2.6698     2.1789   318.4000     2.3514     0.3989
  997   19.920   2934.46     2.1213     0.0469     1.1443     0.1992     2.6019     2.1977   318.7200     2.2832     0.4140
  998   19.940   2935.51     2.0462     0.0461     1.1311     0.1994     2.5224     2.2410   319.0400     2.2033     0.4240
  999   19.960   2936.61     1.9692     0.0457     1.1411     0.1996     2.4471     2.3011   319.3600     2.1277     0.4410
 1000   19.980   2937.70     1.9058     0.0453     1.1459     0.1998     2.3889     2.3673   319.6800     2.0692     0.4594
 1001   20.000   2938.76     1.8677     0.0447     1.1560     0.2000     2.3532     2.3800   320.0000     2.0332     0.4702
 1002   20.020   2939.84     1.8554     0.0439     1.1814     0.2002     2.3463     2.3631   320.3200     2.0260     0.4781
 1003   20.040   2940.90     1.8580     0.0420     1.2024     0.2004     2.3591     2.2683   320.6400     2.0385     0.4870
 1004   20.060   2941.97     1.8672     0.0379     1.2402     0.2006     2.3827     2.0309   320.9600     2.0618     0.4980
 1005   20.080   2943.02     1.8778     0.0350     1.2742     0.2008     2.4085     1.8660   321.2800     2.0872     0.5091
 1006   20.100   2944.09     1.8941     0.0384     1.3183     0.2010     2.4400     2.0331   321.6000     2.1184     0.5187
 1007   20.120   2945.12     1.9307     0.0490     1.3811     0.2012     2.5010     2.5460   321.9200     2.1791     0.5308
 1008   20.140   2946.20     2.0410     0.0624     1.4425     0.2014     2.6384     3.0830   322.2400     2.3162     0.5272
 1009   20.160   2947.30     2.2581     0.0890     1.5376     0.2016     2.8871     4.0348   322.5600     2.5645     0.5057
 1010   20.180   2948.38     2.8251     0.1290     1.7017     0.2018     3.5135     4.6376   322.8800     3.1906     0.4509
 1011   20.200   2949.50     3.8075     0.1507     1.9036     0.2020     4.5758     4.1555   323.2000     4.2526     0.3839
 1012   20.220   2950.58     5.1484     0.1759     2.0020     0.2022     6.0020     3.5381   323.5200     5.6785     0.3228
 1013   20.240   2951.67     5.6872     0.2015     1.8521     0.2024     6.4617     3.5598   323.8400     6.1379     0.2675
 1014   20.260   2952.70     5.2468     0.2064     1.7978     0.2026     6.0226     3.8859   324.1600     5.6985     0.2886
 1015   20.280   2953.81     4.6382     0.1954     1.8267     0.2028     5.4063     4.1198   324.4800     5.0818     0.3203
 1016   20.300   2954.92     4.0986     0.1700     1.6452     0.2030     4.8183     4.0862   324.8000     4.4935     0.3361
 1017   20.320   2956.00     3.7430     0.1502     1.5810     0.2032     4.3871     3.9666   325.1200     4.0619     0.3276
 1018   20.340   2957.12     3.4446     0.1301     1.6788     0.2034     4.1382     3.7420   325.4400     3.8127     0.3798
 1019   20.360   2958.15     3.3013     0.1205     1.6942     0.2036     4.0087     3.6381   325.7600     3.6829     0.4021
 1020   20.380   2959.26     3.1661     0.1168     1.6541     0.2038     3.8701     3.6695   326.0800     3.5440     0.4155
 1021   20.400   2960.33     3.0453     0.1189     1.5910     0.2040     3.7129     3.8638   326.4000     3.3865     0.4092
 1022   20.420   2961.39     2.7891     0.1176     1.6106     0.2042     3.4714     4.1593   326.7200     3.1446     0.4518
 1023   20.440   2962.52     2.6487     0.1063     1.4682     0.2044     3.2807     4.0085   327.0400     2.9537     0.4402
 1024   20.460   2963.60     2.5777     0.0954     1.4056     0.2046     3.1739     3.6778   327.3600     2.8465     0.4268
 1025   20.480   2964.69     2.4842     0.0916     1.4009     0.2048     3.0691     3.6557   327.6800     2.7415     0.4333
 1026   20.500   2965.75     2.3601     0.0931     1.4594     0.2050     2.9586     3.9423   328.0000     2.6306     0.4638
 1027   20.520   2966.76     2.2959     0.0924     1.4979     0.2052     2.9195     4.0088   328.3200     2.5911     0.4938
 1028   20.540   2967.84     2.2998     0.0898     1.4880     0.2054     2.9229     3.9319   328.6400     2.5943     0.4927
 1029   20.560   2968.98     2.5741     0.1084     1.5540     0.2056     3.2130     4.4928   328.9600     2.8841     0.4567
 1030   20.580   2970.07     3.8409     0.1155     1.5516     0.2058     4.5156     3.8508   329.2800     4.1863     0.3371
 1031   20.600   2971.21     6.4530     0.1155     1.3986     0.2060     7.0866     2.7880   329.6000     6.7570     0.1932
 1032   20.620   2972.38     9.2367     0.1156     0.3134     0.2062     9.6000     1.7253   329.9200     9.2701     0.0716
 1033   20.640   2973.51    10.4898     0.1168     0.0449     0.2064    10.5332     1.1338   330.2400    10.2029    -0.0101
 1034   20.660   2974.60    11.1817     0.1123     0.0320     0.2066    11.1790     1.0107   330.5600    10.8485    -0.0196
 1035   20.680   2976.37    11.7150     0.1038     0.0512     0.2068    11.7460     0.8937   330.8800    11.4151    -0.0116
 1036   20.700   2990.90    12.5227     0.0883    -0.0141     0.2070    12.5262     0.7562   331.2000    12.1950    -0.0158
 1037   20.720   3005.43    13.3305     0.0701    -0.0795     0.2072    13.3066     0.6007   331.5200    12.9750    -0.0199
 1038   20.740   3018.36    14.0498     0.0596    -0.1535     0.2074    13.9976     0.4723   331.8400    13.6657    -0.0243
 1039   20.760   3019.47    13.8943     0.0526    -0.2274     0.2076    13.8064     0.3754   332.1600    13.4742    -0.0310
 1040   20.780   3020.65    13.5577     0.0432    -0.2191     0.2078    13.4640     0.3178   332.4800    13.1315    -0.0328
 1041   20.800   3021.73    13.2583     0.0387    -0.2127     0.2080    13.1684     0.2916   332.8000    12.8356    -0.0329
 1042   20.820   3022.82    13.5638     0.0471    -0.2075     0.2082    13.4772     0.3489   333.1200    13.1441    -0.0315
 1043   20.840   3023.98    14.0299     0.0623    -0.2025     0.2084    13.9434     0.4461   333.4400    13.6099    -0.0305
 1044   20.860   3025.08    13.8311     0.0755    -0.1956     0.2086    13.7478     0.5413   333.7600    13.4141    -0.0303
 1045   20.880   3026.14    12.6181     0.0966    -0.1771     0.2088    12.5396     0.7479   334.0800    12.2055    -0.0324
 1046   20.900   3027.19    10.6616     0.1180    -0.1507     0.2090    10.5949     1.0670   334.4000    10.2605    -0.0359
 1047   20.920   3028.28     7.6532     0.1389    -0.0631     0.2092     7.6080     1.6920   334.7200     7.2733    -0.0435
 1048   20.940   3029.34     6.2743     0.1427     0.1198     0.2094     6.2941     2.2062   335.0400     5.9591    -0.0269
 1049   20.960   3030.39     5.1537     0.1376     0.2073     0.2096     5.2297     2.6050   335.3600     4.8944    -0.0057
 1050   20.980   3031.48     4.3446     0.1276     0.2937     0.2098     4.4577     2.8347   335.6800     4.1220     0.0147
 1051   21.000   3032.55     3.4244     0.1126     0.4177     0.2100     3.5813     3.1797   336.0000     3.2453     0.0511
 1052   21.020   3033.64     2.8933     0.0961     0.5302     0.2102     3.1029     3.2552   336.3200     2.7666     0.1045
 1053   21.040   3034.74     2.5577     0.0721     0.6283     0.2104     2.8087     2.7486   336.6400     2.4721     0.1568
 1054   21.060   3035.82     2.3518     0.0545     0.7544     0.2106     2.6544     2.2931   336.9600     2.3175     0.2201
 1055   21.080   3036.88     2.2282     0.0478     0.7936     0.2108     2.5444     2.1235   337.2800     2.2071     0.2458
 1056   21.100   3037.98     2.0745     0.0421     0.8946     0.2110     2.4378     2.0053   337.6000     2.1002     0.3115
 1057   21.120   3039.05     1.9994     0.0380     0.9173     0.2112     2.3824     1.8917   337.9200     2.0445     0.3428
 1058   21.140   3040.11     1.9934     0.0366     0.9520     0.2114     2.3859     1.8353   338.2400     2.0477     0.3531
 1059   21.160   3041.26     2.0115     0.0394     1.0028     0.2116     2.4280     1.9695   338.5600     2.0895     0.3734
 1060   21.180   3042.32     2.1094     0.0454     1.0103     0.2118     2.5374     2.1661   338.8800     2.1985     0.3672
 1061   21.200   3043.40     2.1855     0.0493     1.0018     0.2120     2.6059     2.2692   339.2000     2.2667     0.3481
 1062   21.220   3044.45     2.2935     0.0535     1.0029     0.2122     2.7141     2.3482   339.5200     2.3746     0.3325
 1063   21.240   3045.51     2.4197     0.0530     0.9903     0.2124     2.8393     2.1992   339.8400     2.4995     0.3147
 1064   21.260   3046.61     2.4147     0.0530     0.9727     0.2126     2.8229     2.1825   340.1600     2.4827     0.3058
 1065   21.280   3047.75     2.2565     0.0511     0.9979     0.2128     2.6691     2.2263   340.4800     2.3287     0.3305
 1066   21.300   3048.83     2.0956     0.0493     1.0706     0.2130     2.5367     2.3198   340.8000     2.1959     0.3813
 1067   21.320   3049.89     1.9820     0.0519     1.1348     0.2132     2.4516     2.5941   341.1200     2.1105     0.4288
 1068   21.340   3050.96     1.9311     0.0524     1.1717     0.2134     2.4196     2.7068   341.4400     2.0781     0.4570
 1069   21.360   3052.04     1.9298     0.0463     1.1782     0.2136     2.4244     2.3971   341.7600     2.0826     0.4628
 1070   21.380   3053.12     1.9929     0.0523     1.1742     0.2138     2.4873     2.6387   342.0800     2.1452     0.4491
 1071   21.400   3054.20     2.2171     0.0588     1.1638     0.2140     2.7055     2.6879   342.4000     2.3631     0.4016
 1072   21.420   3055.24     2.4873     0.0692     1.1397     0.2142     2.9661     2.8143   342.7200     2.6234     0.3530
 1073   21.440   3056.37     2.7964     0.0774     0.9677     0.2144     3.2438     2.8292   343.0400     2.9008     0.2939
 1074   21.460   3057.43     3.0172     0.0919     0.8036     0.2146     3.3651     3.0503   343.3600     3.0218     0.2032
 1075   21.480   3058.51     3.0563     0.1037     0.6695     0.2148     3.3501     3.3987   343.6800     3.0064     0.1613
 1076   21.500   3059.60     3.1892     0.1033     0.6262     0.2150     3.4577     3.2561   344.0000     3.1137     0.1363
 1077   21.520   3060.70     3.4549     0.1011     0.6221     0.2152     3.7175     2.9522   344.3200     3.3732     0.1216
 1078   21.540   3061.78     3.6282     0.0958     0.6183     0.2154     3.8876     2.6512   344.6400     3.5429     0.1135
 1079   21.560   3062.88     3.7752     0.1037     0.5664     0.2156     4.0209     2.7637   344.9600     3.6759     0.1005
 1080   21.580   3063.97     4.0079     0.1107     0.5276     0.2158     4.2328     2.7838   345.2800     3.8875     0.0822
 1081   21.600   3065.04     4.3037     0.1102     0.4415     0.2160     4.5025     2.5787   345.6000     4.1569     0.0620
 1082   21.620   3066.14     4.4477     0.1222     0.3975     0.2162     4.6210     2.7478   345.9200     4.2751     0.0460
 1083   21.640   3067.25     4.5705     0.1379     0.3415     0.2164     4.7224     3.0531   346.2400     4.3762     0.0332
 1084   21.660   3068.29     4.5878     0.1484     0.2882     0.2166     4.7147     3.2356   346.5600     4.3682     0.0196
 1085   21.680   3069.42     4.4930     0.1487     0.3149     0.2168     4.6165     3.2798   346.8800     4.2696     0.0181
 1086   21.700   3070.53     4.7022     0.1323     0.3586     0.2170     4.8465     2.9287   347.2000     4.4993     0.0281
 1087   21.720   3071.70     5.5591     0.1128     0.3565     0.2172     5.7161     2.0557   347.5200     5.3686     0.0292
 1088   21.740   3072.83     6.8414     0.1012     0.2343     0.2174     6.9662     1.4956   347.8400     6.6183     0.0122
 1089   21.760   3073.97     7.6187     0.1044     0.0081     0.2176     7.6311     1.3748   348.1600     7.2830    -0.0258
 1090   21.780   3075.06     7.8819     0.1182    -0.0321     0.2178     7.8789     1.5016   348.4800     7.5304    -0.0299
 1091   21.800   3076.19     7.7767     0.1461    -0.0518     0.2180     7.7621     1.8771   348.8000     7.4133    -0.0341
 1092   21.820   3077.22     7.5424     0.1690    -0.0644     0.2182     7.5172     2.2395   349.1200     7.1681    -0.0388
 1093   21.840   3078.29     6.8869     0.1774    -0.0029     0.2184     6.8721     2.4494   349.4400     6.5226    -0.0389
 1094   21.860   3079.42     5.7927     0.1733     0.0224     0.2186     5.8026     2.8643   349.7600     5.4528    -0.0358
 1095   21.880   3080.54     5.5421     0.1614     0.0773     0.2188     5.5662     2.8760   350.0800     5.2161    -0.0309
 1096   21.900   3081.67     5.9433     0.1395     0.1024     0.2190     5.9780     2.3521   350.4000     5.6276    -0.0243
 1097   21.920   3082.76     6.6568     0.1190     0.0706     0.2192     6.7007     1.7929   350.7200     6.3500    -0.0180
 1098   21.940   3083.91     7.7035     0.0998     0.0162     0.2194     7.7236     1.3083   351.0400     7.3726    -0.0232
 1099   21.960   3085.02     8.6555     0.0851    -0.0469     0.2196     8.6377     0.9941   351.3600     8.2864    -0.0316
 1100   21.980   3086.11     9.3933     0.0694    -0.0816     0.2198     9.3645     0.7427   351.6800     9.0128    -0.0320
 1101   22.000   3087.25     9.8791     0.0586    -0.0919     0.2200     9.8426     0.5944   352.0000     9.4906    -0.0323
 1102   22.020   3088.32    10.1864     0.0603    -0.1346     0.2202    10.1339     0.5932   352.3200     9.7816    -0.0353
 1103   22.040   3089.40    10.3869     0.0691    -0.1586     0.2204    10.3259     0.6655   352.6400     9.9732    -0.0367
 1104   22.060   3090.51    10.4540     0.0738    -0.1863     0.2206    10.3795     0.7063   352.9600    10.0265    -0.0397
 1105   22.080   3091.64    10.4861     0.0769    -0.2014     0.2208    10.4025     0.7338   353.2800    10.0492    -0.0418
 1106   22.100   3092.74    10.4255     0.0841    -0.2032     0.2210    10.3406     0.8060   353.6000     9.9870    -0.0424
 1107   22.120   3093.82    10.2447     0.0843    -0.1934     0.2212    10.1612     0.8222   353.9200     9.8073    -0.0428
 1108   22.140   3094.95    10.2283     0.0835    -0.1615     0.2214    10.1562     0.8174   354.2400     9.8019    -0.0401
 1109   22.160   3096.10    10.3704     0.0817    -0.1411     0.2216    10.3081     0.7903   354.5600     9.9535    -0.0372
 1110   22.180   3097.22    11.0913     0.0806    -0.1355     0.2218    11.0344     0.7421   354.8800    10.6795    -0.0335
 1111   22.200   3098.29    12.4578     0.0756    -0.1434     0.2220    12.3959     0.6256   355.2000    12.0407    -0.0307
 1112   22.220   3099.37    13.6816     0.0696    -0.1643     0.2222    13.6161     0.5209   355.5200    13.2606    -0.0285
 1113   22.240   3100.44    14.5147     0.0648    -0.1538     0.2224    14.4495     0.4551   355.8400    14.0937    -0.0268
 1114   22.260   3101.53    15.3495     0.0718    -0.1750     0.2226    15.2786     0.4767   356.1600    14.9224    -0.0262
 1115   22.280   3102.53    15.9767     0.0876    -0.1851     0.2228    15.9009     0.5542   356.4800    15.5444    -0.0259
 1116   22.300   3103.57    16.1570     0.1035    -0.2008     0.2230    16.0756     0.6402   356.8000    15.7188    -0.0265
 1117   22.320   3104.64    16.0413     0.1179    -0.2141     0.2232    15.9517     0.7329   357.1200    15.5946    -0.0280
 1118   22.340   3105.65    15.8873     0.1238    -0.2159     0.2234    15.7959     0.7754   357.4400    15.4385    -0.0286
 1119   22.360   3106.72    15.6940     0.1203    -0.2135     0.2236    15.6035     0.7626   357.7600    15.2457    -0.0288
 1120   22.380   3107.77    15.7634     0.1167    -0.2067     0.2238    15.6745     0.7441   358.0800    15.3164    -0.0284
 1121   22.400   3108.81    15.9994     0.1171    -0.2009     0.2240    15.9127     0.7356   358.4000    15.5543    -0.0277
 1122   22.420   3109.80    16.1690     0.1122    -0.1992     0.2242    16.0838     0.6964   358.7200    15.7251    -0.0272
 1123   22.440   3110.83    16.1420     0.0994    -0.2011     0.2244    16.0570     0.6136   359.0400    15.6980    -0.0272
 1124   22.460   3111.90    16.0631     0.0856    -0.2015     0.2246    15.9799     0.5329   359.3600    15.6205    -0.0271
 1125   22.480   3112.96    16.3825     0.0854    -0.2085     0.2248    16.2963     0.5249   359.6800    15.9366    -0.0270
 1126   22.500   3113.95    16.8264     0.0930    -0.2216     0.2250    16.7362     0.5582   360.0000    16.3762    -0.0268
 1127   22.520   3114.99    16.9914     0.0973    -0.2366     0.2252    16.8930     0.5730   360.3200    16.5327    -0.0278
 1128   22.540   3116.06    16.7907     0.1094    -0.2317     0.2254    16.6932     0.6476   360.6400    16.3326    -0.0280
 1129   22.560   3117.06    16.4527     0.1100    -0.2345     0.2256    16.3543     0.6606   360.9600    15.9934    -0.0288
 1130   22.580   3118.08    15.9507     0.1120    -0.2336     0.2258    15.8521     0.6938   361.2800    15.4908    -0.0297
 1131   22.600   3119.11    15.4674     0.1160    -0.2299     0.2260    15.3699     0.7409   361.6000    15.0083    -0.0305
 1132   22.620   3120.17    14.7288     0.1242    -0.2295     0.2262    14.6327     0.8252   361.9200    14.2708    -0.0319
 1133   22.640   3121.20    14.0538     0.1284    -0.2248     0.2264    13.9585     0.8962   362.2400    13.5963    -0.0333
 1134   22.660   3122.18    13.2993     0.1215    -0.2183     0.2266    13.2059     0.8978   362.5600    12.8434    -0.0350
 1135   22.680   3124.35    12.7336     0.1163    -0.1491     0.2268    12.6490     0.9022   362.8800    12.2861    -0.0349
 1136   22.700   3146.28    12.5721     0.1120     0.0030     0.2270    12.5514     0.8791   363.2000    12.1882    -0.0226
 1137   22.720   3166.77    12.4099     0.1114     0.0726     0.2272    12.4472     0.8865   363.5200    12.0837    -0.0115
 1138   22.740   3167.92    12.2271     0.1076     0.0026     0.2274    12.2390     0.8751   363.8400    11.8751    -0.0168
 1139   22.760   3168.97    12.0659     0.1046    -0.0437     0.2276    12.0537     0.8625   364.1600    11.6896    -0.0220
 1140   22.780   3170.05    11.9508     0.0981    -0.0960     0.2278    11.9155     0.8196   364.4800    11.5510    -0.0270
 1141   22.800   3171.04    12.1547     0.0928    -0.1250     0.2280    12.1074     0.7703   364.8000    11.7426    -0.0290
 1142   22.820   3172.09    12.4929     0.0831    -0.1523     0.2282    12.4321     0.6752   365.1200    12.0670    -0.0309
 1143   22.840   3173.13    13.0495     0.0760    -0.1537     0.2284    12.9851     0.5920   365.4400    12.6197    -0.0302
 1144   22.860   3174.22    13.6351     0.0770    -0.1629     0.2286    13.5684     0.5656   365.7600    13.2026    -0.0294
 1145   22.880   3175.21    14.1264     0.0859    -0.1755     0.2288    14.0538     0.6174   366.0800    13.6878    -0.0293
 1146   22.900   3176.23    14.6568     0.0961    -0.1993     0.2290    14.5781     0.6646   366.4000    14.2117    -0.0293
 1147   22.920   3177.22    14.9031     0.1077    -0.2009     0.2292    14.8180     0.7278   366.7200    14.4512    -0.0299
 1148   22.940   3178.28    14.8682     0.1238    -0.2102     0.2294    14.7813     0.8279   367.0400    14.4143    -0.0303
 1149   22.960   3179.30    14.3927     0.1334    -0.2035     0.2296    14.3053     0.9151   367.3600    13.9379    -0.0314
 1150   22.980   3180.34    13.9090     0.1380    -0.1887     0.2298    13.8276     0.9795   367.6800    13.4599    -0.0315
 1151   23.000   3181.39    13.5081     0.1409    -0.1713     0.2300    13.4334     1.0299   368.0000    13.0654    -0.0312
 1152   23.020   3182.41    13.0371     0.1402    -0.1514     0.2302    12.9706     1.0581   368.3200    12.6022    -0.0308
 1153   23.040   3183.46    12.6872     0.1420    -0.1276     0.2304    12.6302     1.1101   368.6400    12.2615    -0.0299
 1154   23.060   3184.49    12.5071     0.1217    -0.0976     0.2306    12.4614     0.9677   368.9600    12.0925    -0.0281
 1155   23.080   3185.52    12.3959     0.1057    -0.0789     0.2308    12.3625     0.8523   369.2800    11.9932    -0.0259
 1156   23.100   3186.56    12.3478     0.0929    -0.1075     0.2310    12.3063     0.7495   369.6000    11.9367    -0.0276
 1157   23.120   3187.59    12.4243     0.0871    -0.1192     0.2312    12.3754     0.7032   369.9200    12.0055    -0.0289
 1158   23.140   3188.61    12.7065     0.0862    -0.1315     0.2314    12.6561     0.6852   370.2400    12.2859    -0.0286
 1159   23.160   3189.72    13.2750     0.0850    -0.1707     0.2316    13.2101     0.6542   370.5600    12.8395    -0.0301
 1160   23.180   3190.78    14.1726     0.0845    -0.1879     0.2318    14.0946     0.6123   370.8800    13.7237    -0.0304
 1161   23.200   3191.81    14.9007     0.0863    -0.1957     0.2320    14.8189     0.5878   371.2000    14.4477    -0.0295
 1162   23.220   3192.83    15.3776     0.0941    -0.1950     0.2322    15.2966     0.6186   371.5200    14.9251    -0.0285
 1163   23.240   3193.85    15.7034     0.1064    -0.2057     0.2324    15.6172     0.6831   371.8400    15.2453    -0.0287
 1164   23.260   3194.91    15.9667     0.1191    -0.2131     0.2326    15.8777     0.7494   372.1600    15.5055    -0.0287
 1165   23.280   3195.95    16.0137     0.1271    -0.2131     0.2328    15.9240     0.7932   372.4800    15.5515    -0.0287
 1166   23.300   3197.02    15.9975     0.1305    -0.2114     0.2330    15.9080     0.8155   372.8000    15.5352    -0.0287
 1167   23.320   3198.08    15.9055     0.1324    -0.2062     0.2332    15.8184     0.8282   373.1200    15.4452    -0.0285
 1168   23.340   3199.05    15.5748     0.1338    -0.2018     0.2334    15.4891     0.8503   373.4400    15.1157    -0.0289
 1169   23.360   3200.11    15.1398     0.1356    -0.1928     0.2336    15.0576     0.8835   373.7600    14.6839    -0.0292
 1170   23.380   3201.18    14.5110     0.1343    -0.1839     0.2338    14.4333     0.9230   374.0800    14.0592    -0.0298
 1171   23.400   3202.14    13.9570     0.1312    -0.1733     0.2340    13.8822     0.9223   374.4000    13.5078    -0.0305
 1172   23.420   3203.19    13.2692     0.1256    -0.1664     0.2342    13.1981     0.9454   374.7200    12.8234    -0.0315
 1173   23.440   3204.23    12.7734     0.1213    -0.1513     0.2344    12.7071     0.9492   375.0400    12.3321    -0.0318
 1174   23.460   3205.24    12.2946     0.1225    -0.1404     0.2346    12.2338     0.9940   375.3600    11.8584    -0.0320
 1175   23.480   3206.25    11.6952     0.1284    -0.1170     0.2348    11.6413     1.0972   375.6800    11.2656    -0.0322
 1176   23.500   3207.29    10.9591     0.1425    -0.1028     0.2350    10.9143     1.2629   376.0000    10.5383    -0.0324
 1177   23.520   3208.27    10.2032     0.1331    -0.0777     0.2352    10.1690     1.3012   376.3200     9.7926    -0.0323
 1178   23.540   3209.28     9.6512     0.1191    -0.0629     0.2354     9.6230     1.2074   376.6400     9.2464    -0.0327
 1179   23.560   3210.30     9.3577     0.1161    -0.0500     0.2356     9.3374     1.2335   376.9600     8.9604    -0.0317
 1180   23.580   3211.29     9.2865     0.1140    -0.0710     0.2358     9.2612     1.2265   377.2800     8.8839    -0.0333
 1181   23.600   3212.32     9.2788     0.1142    -0.1174     0.2360     9.2356     1.2290   377.6000     8.8580    -0.0382
 1182   23.620   3213.37     9.0750     0.1126    -0.1204     0.2362     9.0234     1.2369   377.9200     8.6455    -0.0415
 1183   23.640   3214.43     8.9413     0.1113    -0.1225     0.2364     8.8912     1.2474   378.2400     8.5130    -0.0418
 1184   23.660   3215.57     9.1550     0.1142    -0.1240     0.2366     9.1053     1.2593   378.5600     8.7268    -0.0407
 1185   23.680   3216.63     9.5144     0.1174    -0.1553     0.2368     9.4526     1.2462   378.8800     9.0737    -0.0423
 1186   23.700   3217.71    10.0743     0.1061    -0.1672     0.2370    10.0064     1.0721   379.2000     9.6272    -0.0414
 1187   23.720   3218.82    10.8331     0.0928    -0.1837     0.2372    10.7602     0.8792   379.5200    10.3807    -0.0396
 1188   23.740   3219.83    11.5183     0.0789    -0.1904     0.2374    11.4411     0.7025   379.8400    11.0612    -0.0381
 1189   23.760   3220.87    12.1598     0.0626    -0.2061     0.2376    12.0750     0.5253   380.1600    11.6948    -0.0376
 1190   23.780   3221.93    12.4907     0.0532    -0.2175     0.2378    12.4008     0.4293   380.4800    12.0203    -0.0376
 1191   23.800   3222.95    12.7123     0.0647    -0.2263     0.2380    12.6186     0.5119   380.8000    12.2378    -0.0377
 1192   23.820   3224.02    12.5652     0.0807    -0.2414     0.2382    12.4657     0.6354   381.1200    12.0846    -0.0393
 1193   23.840   3225.05    12.0649     0.1030    -0.2469     0.2384    11.9614     0.8395   381.4400    11.5800    -0.0419
 1194   23.860   3226.07    11.5635     0.1158    -0.2455     0.2386    11.4599     0.9868   381.7600    11.0781    -0.0438
 1195   23.880   3227.08    10.9641     0.1129    -0.2427     0.2388    10.8615     1.0174   382.0800    10.4794    -0.0461
 1196   23.900   3228.13    10.6570     0.1110    -0.2350     0.2390    10.5570     1.0381   382.4000    10.1746    -0.0469
 1197   23.920   3229.15    10.7921     0.0991    -0.2266     0.2392    10.6953     0.9200   382.7200    10.3126    -0.0455
 1198   23.940   3230.27    11.1281     0.0981    -0.2138     0.2394    11.0364     0.8834   383.0400    10.6533    -0.0430
 1199   23.960   3231.37    11.3640     0.0935    -0.1956     0.2396    11.2799     0.8271   383.3600    10.8966    -0.0404
 1200   23.980   3232.45    11.9871     0.0834    -0.1828     0.2398    11.9089     0.7101   383.6800    11.5253    -0.0370
 1201   24.000   3233.54    13.4657     0.0722    -0.1858     0.2400    13.3883     0.5506   384.0000    13.0043    -0.0327
 1202   24.020   3234.61    15.3840     0.0716    -0.1758     0.2402    15.3087     0.4803   384.3200    14.9244    -0.0281
 1203   24.040   3235.67    17.5039     0.0855    -0.1844     0.2404    17.4298     0.5050   384.6400    17.0451    -0.0245
 1204   24.060   3236.83    19.8855     0.1149    -0.1938     0.2406    19.8035     0.6025   384.9600    19.4186    -0.0225
 1205   24.080   3237.85    21.6427     0.1422    -0.1819     0.2408    21.5647     0.6777   385.2800    21.1794    -0.0201
 1206   24.100   3238.92    22.9829     0.1743    -0.1872     0.2410    22.9052     0.7758   385.6000    22.5196    -0.0189
 1207   24.120   3239.94    23.8395     0.2131    -0.1966     0.2412    23.7573     0.9023   385.9200    23.3713    -0.0187
 1208   24.140   3240.98    23.4570     0.2520    -0.2087     0.2414    23.3711     1.0608   386.2400    22.9849    -0.0194
 1209   24.160   3241.99    22.4905     0.2833    -0.2051     0.2416    22.4038     1.2402   386.5600    22.0172    -0.0203
 1210   24.180   3243.03    21.1805     0.2828    -0.2035     0.2418    21.0948     1.3090   386.8800    20.7080    -0.0215
 1211   24.200   3244.06    20.0212     0.2570    -0.1972     0.2420    19.9373     1.2658   387.2000    19.5501    -0.0226
 1212   24.220   3245.12    19.4572     0.2348    -0.1898     0.2422    19.3764     1.2022   387.5200    18.9889    -0.0229
 1213   24.240   3246.21    19.7421     0.2284    -0.1774     0.2424    19.6652     1.1697   387.8400    19.2774    -0.0221
 1214   24.260   3247.27    20.0899     0.2317    -0.1537     0.2426    20.0209     1.1627   388.1600    19.6327    -0.0207
 1215   24.280   3248.30    20.4673     0.2616    -0.1392     0.2428    20.4072     1.2782   388.4800    20.0188    -0.0193
 1216   24.300   3249.35    20.4127     0.3115    -0.1313     0.2430    20.3565     1.5197   388.8000    19.9677    -0.0189
 1217   24.320   3250.42    19.4422     0.3377    -0.1277     0.2432    19.3880     1.6884   389.1200    18.9988    -0.0196
 1218   24.340   3251.36    17.8434     0.3561    -0.1181     0.2434    17.7933     1.9318   389.4400    17.4038    -0.0209
 1219   24.360   3252.38    15.8626     0.3569    -0.0916     0.2436    15.8187     2.1775   389.7600    15.4290    -0.0226
 1220   24.380   3253.40    14.5598     0.3342    -0.0573     0.2438    14.5324     2.2818   390.0800    14.1423    -0.0218
 1221   24.400   3254.46    14.3232     0.3087    -0.0257     0.2440    14.3055     2.1676   390.4000    13.9151    -0.0206
 1222   24.420   3255.52    16.3093     0.2769     0.0500     0.2442    16.3159     1.7346   390.7200    15.9252    -0.0144
 1223   24.440   3256.61    18.7957     0.2551     0.1421     0.2444    18.8498     1.3841   391.0400    18.4587    -0.0063
 1224   24.460   3257.67    20.9377     0.2578     0.0344     0.2446    20.9720     1.2545   391.3600    20.5807    -0.0079
 1225   24.480   3258.82    21.9682     0.2496    -0.0228     0.2448    21.9631     1.1432   391.6800    21.5714    -0.0119
 1226   24.500   3259.87    22.6722     0.2212    -0.0567     0.2450    22.6520     0.9857   392.0000    22.2600    -0.0132
 1227   24.520   3260.94    23.5410     0.2118    -0.0728     0.2452    23.5106     0.9130   392.3200    23.1183    -0.0137
 1228   24.540   3262.05    24.8862     0.2315    -0.0718     0.2454    24.8571     0.9476   392.6400    24.4644    -0.0129
 1229   24.560   3263.10    25.6548     0.2530    -0.0672     0.2456    25.6262     0.9918   392.9600    25.2333    -0.0124
 1230   24.580   3264.14    26.3951     0.2703    -0.0645     0.2458    26.3644     1.0269   393.2800    25.9711    -0.0123
 1231   24.600   3265.18    27.1274     0.2876    -0.0708     0.2460    27.0970     1.0621   393.6000    26.7034    -0.0119
 1232   24.620   3266.23    27.6030     0.2962    -0.0545     0.2462    27.5797     1.0733   393.9200    27.1857    -0.0111
 1233   24.640   3267.25    27.6971     0.3184    -0.0641     0.2464    27.6711     1.1525   394.2400    27.2768    -0.0113
 1234   24.660   3270.19    27.9755     0.3350    -0.0344     0.2466    27.9506     1.2041   394.5600    27.5561    -0.0111
 1235   24.680   3287.45    28.2424     0.3501     0.0376     0.2468    28.2477     1.2527   394.8800    27.8528    -0.0084
 1236   24.700   3304.71    28.5092     0.3694     0.1095     0.2470    28.5447     1.3220   395.2000    28.1495    -0.0058
 1237   24.720   3313.29    28.7048     0.3948     0.1016     0.2472    28.7538     1.3766   395.5200    28.3583    -0.0046
 1238   24.740   3314.38    28.7461     0.4067     0.1123     0.2474    28.7935     1.4146   395.8400    28.3977    -0.0047
 1239   24.760   3315.47    28.8968     0.4083     0.1182     0.2476    28.9430     1.4157   396.1600    28.5468    -0.0048
 1240   24.780   3316.54    28.8349     0.4093     0.1421     0.2478    28.8892     1.4184   396.4800    28.4928    -0.0042
 1241   24.800   3317.61    28.3771     0.4304     0.1472     0.2480    28.4398     1.5018   396.8000    28.0430    -0.0035
 1242   24.820   3318.65    27.4063     0.4529     0.1393     0.2482    27.4635     1.6355   397.1200    27.0664    -0.0041
 1243   24.840   3319.71    26.0328     0.4530     0.1372     0.2484    26.0930     1.7166   397.4400    25.6955    -0.0041
 1244   24.860   3320.74    24.1205     0.4365     0.1528     0.2486    24.1869     1.7857   397.7600    23.7891    -0.0038
 1245   24.880   3321.75    22.5973     0.4289     0.1486     0.2488    22.6502     1.8858   398.0800    22.2522    -0.0055
 1246   24.900   3322.79    22.1591     0.4095     0.1875     0.2490    22.2342     1.8561   398.4000    21.8358    -0.0032
 1247   24.920   3323.88    24.7373     0.3817     0.3025     0.2492    24.8490     1.5681   398.7200    24.4503     0.0007
 1248   24.940   3325.01    28.5076     0.3699     0.1961     0.2494    28.6065     1.3363   399.0400    28.2074    -0.0005
 1249   24.960   3326.12    31.4487     0.3752     0.1050     0.2496    31.5063     1.2175   399.3600    31.1070    -0.0036
 1250   24.980   3327.22    31.8524     0.3820     0.0490     0.2498    31.8810     1.1960   399.6800    31.4813    -0.0058
 1251   25.000   3328.26    31.6182     0.3722    -0.0096     0.2500    31.6187     1.1754   400.0000    31.2187    -0.0080
 1252   25.020   3329.34    30.9117     0.3546    -0.0260     0.2502    30.9055     1.1376   400.3200    30.5052    -0.0087
 1253   25.040   3330.39    29.9414     0.3658    -0.0047     0.2504    29.9364     1.2027   400.6400    29.5358    -0.0089
 1254   25.060   3331.44    28.6442     0.3895     0.0118     0.2506    28.6430     1.3450   400.9600    28.2421    -0.0090
 1255   25.080   3332.44    27.0898     0.3956     0.0427     0.2508    27.1029     1.4242   401.2800    26.7016    -0.0082
 1256   25.100   3333.46    25.1387     0.3816     0.0674     0.2510    25.1646     1.4673   401.6000    24.7630    -0.0076
 1257   25.120   3334.46    23.1132     0.3663     0.1095     0.2512    23.1510     1.5366   401.9200    22.7490    -0.0071
 1258   25.140   3335.51    20.7487     0.3350     0.0947     0.2514    20.7934     1.5482   402.2400    20.3912    -0.0071
 1259   25.160   3336.52    18.8623     0.3075     0.0960     0.2516    18.9011     1.5904   402.5600    18.4985    -0.0086
 1260   25.180   3337.58    18.2845     0.2792     0.1302     0.2518    18.3294     1.5274   402.8800    17.9265    -0.0081
 1261   25.200   3338.62    18.6083     0.2519     0.1133     0.2520    18.6596     1.3614   403.2000    18.2564    -0.0071
 1262   25.220   3339.71    19.0862     0.2220     0.1088     0.2522    19.1384     1.1685   403.5200    18.7349    -0.0068
 1263   25.240   3340.76    19.7004     0.1944     0.0932     0.2524    19.7461     0.9954   403.8400    19.3422    -0.0074
 1264   25.260   3341.81    20.1338     0.1745     0.0838     0.2526    20.1671     0.8708   404.1600    19.7630    -0.0088
 1265   25.280   3342.87    21.1992     0.1613     0.0409     0.2528    21.2259     0.7716   404.4800    20.8215    -0.0091
 1266   25.300   3343.97    22.3832     0.1501    -0.0042     0.2530    22.3870     0.6827   404.8000    21.9822    -0.0111
 1267   25.320   3345.03    23.2542     0.1529    -0.0404     0.2532    23.2435     0.6609   405.1200    22.8384    -0.0122
 1268   25.340   3346.10    23.4520     0.1661    -0.0776     0.2534    23.4215     0.7092   405.4400    23.0161    -0.0142
 1269   25.360   3347.14    23.2495     0.1767    -0.1451     0.2536    23.1985     0.7544   405.7600    22.7927    -0.0165
 1270   25.380   3348.20    22.7644     0.1884    -0.1479     0.2538    22.6991     0.8224   406.0800    22.2930    -0.0184
 1271   25.400   3349.26    22.5682     0.1968    -0.1425     0.2540    22.5085     0.8718   406.4000    22.1021    -0.0179
 1272   25.420   3350.31    22.6141     0.1866    -0.1395     0.2542    22.5558     0.8273   406.7200    22.1491    -0.0177
 1273   25.440   3351.34    22.8842     0.1824    -0.1394     0.2544    22.8256     0.8018   407.0400    22.4185    -0.0176
 1274   25.460   3352.42    23.3040     0.1775    -0.1267     0.2546    23.2516     0.7656   407.3600    22.8442    -0.0166
 1275   25.480   3353.41    23.6316     0.1775    -0.1157     0.2548    23.5796     0.7559   407.6800    23.1719    -0.0163
 1276   25.500   3354.48    23.7777     0.1695    -0.0991     0.2550    23.7333     0.7126   408.0000    23.3253    -0.0155
 1277   25.520   3355.51    23.8094     0.1794    -0.0943     0.2552    23.7731     0.7535   408.3200    23.3648    -0.0146
 1278   25.540   3356.55    23.3110     0.2385    -0.1079     0.2554    23.2633     1.0230   408.6400    22.8547    -0.0161
 1279   25.560   3357.62    22.1000     0.3070    -0.0795     0.2556    22.0659     1.3500   408.9600    21.6569    -0.0156
 1280   25.580   3358.63    20.3788     0.3579    -0.0945     0.2558    20.3411     1.6871   409.2800    19.9318    -0.0173
 1281   25.600   3359.60    18.0873     0.3752    -0.0859     0.2560    18.0480     2.0029   409.6000    17.6384    -0.0198
 1282   25.620   3360.62    15.4595     0.3580    -0.0626     0.2562    15.4275     2.2403   409.9200    15.0176    -0.0221
 1283   25.640   3361.66    13.4482     0.3369    -0.0327     0.2564    13.4268     2.4589   410.2400    13.0166    -0.0236
 1284   25.660   3362.72    13.6794     0.3079     0.1092     0.2566    13.6954     2.2840   410.5600    13.2848    -0.0164
 1285   25.680   3363.73    16.0016     0.2708     0.1763     0.2568    16.0913     1.7486   410.8800    15.6804    -0.0028
 1286   25.700   3364.89    20.1421     0.2356     0.1165     0.2570    20.2003     1.2479   411.2000    19.7891    -0.0060
 1287   25.720   3366.00    23.5960     0.2033    -0.0582     0.2572    23.5715     0.8973   411.5200    23.1600    -0.0136
 1288   25.740   3367.10    24.2330     0.1595    -0.0535     0.2574    24.2224     0.6604   411.8400    23.8105    -0.0119
 1289   25.760   3368.11    23.7803     0.1337    -0.0992     0.2576    23.7410     0.5617   412.1600    23.3288    -0.0151
 1290   25.780   3369.14    22.8431     0.1592    -0.1160     0.2578    22.7979     0.6954   412.4800    22.3854    -0.0163
 1291   25.800   3370.18    21.7490     0.1882    -0.1074     0.2580    21.7011     0.8472   412.8000    21.2883    -0.0175
 1292   25.820   3371.15    20.4342     0.2048    -0.1138     0.2582    20.3892     0.9734   413.1200    19.9761    -0.0183
 1293   25.840   3372.20    18.6566     0.2112    -0.1169     0.2584    18.6067     1.0967   413.4400    18.1933    -0.0207
 1294   25.860   3373.18    17.2390     0.2207    -0.1099     0.2586    17.1910     1.2499   413.7600    16.7772    -0.0222
 1295   25.880   3374.19    17.1620     0.2212    -0.0815     0.2588    17.1208     1.2936   414.0800    16.7067    -0.0214
 1296   25.900   3375.26    18.2068     0.2275    -0.0272     0.2590    18.1895     1.2814   414.4000    17.7751    -0.0169
 1297   25.920   3376.34    19.3824     0.2284    -0.0109     0.2592    19.3756     1.2050   414.7200    18.9609    -0.0145
 1298   25.940   3377.41    20.1114     0.2129     0.0026     0.2594    20.1091     1.0706   415.0400    19.6941    -0.0135
 1299   25.960   3378.46    20.5996     0.2107    -0.0754     0.2596    20.5832     1.0272   415.3600    20.1679    -0.0148
 1300   25.980   3379.46    20.7585     0.2437    -0.1111     0.2598    20.7140     1.1759   415.6800    20.2983    -0.0180
 1301   26.000   3380.48    20.3659     0.2688    -0.1097     0.2600    20.3209     1.3035   416.0000    19.9049    -0.0184
 1302   26.020   3381.51    19.0722     0.2826    -0.1293     0.2602    19.0167     1.4452   416.3200    18.6004    -0.0211
 1303   26.040   3382.59    17.1742     0.2955    -0.1213     0.2604    17.1234     1.6673   416.6400    16.7067    -0.0228
 1304   26.060   3383.60    15.8053     0.3037    -0.0920     0.2606    15.7601     1.8841   416.9600    15.3431    -0.0240
 1305   26.080   3384.70    16.5671     0.2906     0.0154     0.2608    16.5555     1.8199   417.2800    16.1382    -0.0179
 1306   26.100   3385.71    18.2949     0.2649     0.0412     0.2610    18.3202     1.5040   417.6000    17.9026    -0.0112
 1307   26.120   3386.82    20.0634     0.2406    -0.0059     0.2612    20.0616     1.2331   417.9200    19.6437    -0.0135
 1308   26.140   3387.89    20.3352     0.2243    -0.0216     0.2614    20.3220     1.1047   418.2400    19.9038    -0.0147
 1309   26.160   3388.91    19.9512     0.1988    -0.0929     0.2616    19.9231     0.9879   418.5600    19.5045    -0.0169
 1310   26.180   3389.96    19.0543     0.1814    -0.0962     0.2618    19.0130     0.9353   418.8800    18.5941    -0.0194
 1311   26.200   3390.93    17.4123     0.1977    -0.0956     0.2620    17.3721     1.0883   419.2000    16.9529    -0.0211
 1312   26.220   3391.94    15.1799     0.2213    -0.1021     0.2622    15.1367     1.3840   419.5200    14.7172    -0.0248
 1313   26.240   3393.04    13.8430     0.2207    -0.0732     0.2624    13.8066     1.5509   419.8400    13.3867    -0.0261
 1314   26.260   3394.05    13.1664     0.2370    -0.0542     0.2626    13.1439     1.7585   420.1600    12.7237    -0.0249
 1315   26.280   3395.12    12.7830     0.2609    -0.0574     0.2628    12.7564     2.0406   420.4800    12.3359    -0.0265
 1316   26.300   3396.11    12.1663     0.2800    -0.0302     0.2630    12.1536     2.2404   420.8000    11.7328    -0.0250
 1317   26.320   3397.15    11.2430     0.3035    -0.0851     0.2632    11.2104     2.6016   421.1200    10.7893    -0.0316
 1318   26.340   3398.17    10.2992     0.2683    -0.0350     0.2634    10.2762     2.5122   421.4400     9.8548    -0.0323
 1319   26.360   3399.18     9.1012     0.2237    -0.0457     0.2636     9.0830     2.3206   421.7600     8.6612    -0.0355
 1320   26.380   3400.21     8.3795     0.2154    -0.0242     0.2638     8.3659     2.5763   422.0800     7.9438    -0.0373
 1321   26.400   3401.25     9.6675     0.1957     0.0526     0.2640     9.6701     2.1580   422.4000     9.2477    -0.0280
 1322   26.420   3402.27    12.0035     0.1721     0.0514     0.2642    12.0461     1.4462   422.7200    11.6233    -0.0140
 1323   26.440   3403.32    13.2757     0.1682    -0.1563     0.2644    13.2281     1.2674   423.0400    12.8051    -0.0295
 1324   26.460   3404.38    12.7401     0.1595    -0.1148     0.2646    12.6843     1.2508   423.3600    12.2609    -0.0324
 1325   26.480   3405.38    11.3788     0.1843    -0.0836     0.2648    11.3391     1.5834   423.6800    10.9154    -0.0329
 1326   26.500   3406.34    10.0773     0.2113    -0.0656     0.2650    10.0471     2.0395   424.0000     9.6230    -0.0350
 1327   26.520   3407.35     9.1618     0.2349    -0.0304     0.2652     9.1421     2.5443   424.3200     8.7178    -0.0358
 1328   26.540   3408.36     8.5614     0.2656    -0.0482     0.2654     8.5480     3.0740   424.6400     8.1234    -0.0366
 1329   26.560   3409.39     8.2232     0.2969    -0.0259     0.2656     8.2082     3.5957   424.9600     7.7832    -0.0387
 1330   26.580   3410.51     7.7558     0.3131    -0.0179     0.2658     7.7485     3.9893   425.2800     7.3232    -0.0387
 1331   26.600   3411.65     7.7086     0.2812    -0.0039     0.2660     7.7043     3.6475   425.6000     7.2787    -0.0379
 1332   26.620   3412.78     7.8632     0.2305     0.0033     0.2662     7.8615     2.9384   425.9200     7.4356    -0.0364
 1333   26.640   3416.98     8.9281     0.2104     0.0163     0.2664     8.9364     2.4308   426.2400     8.5101    -0.0292
 1334   26.660   3434.85    10.4500     0.1884     0.0068     0.2666    10.4543     2.1774   426.5600    10.0277    -0.0261
 1335   26.680   3452.72    11.9720     0.1717    -0.0076     0.2668    11.9722     1.9395   426.8800    11.5453    -0.0231
 1336   26.700   3453.78    11.5880     0.1620    -0.0568     0.2670    11.5599     1.3619   427.2000    11.1327    -0.0300
 1337   26.720   3454.79    10.4612     0.1763    -0.0339     0.2672    10.4425     1.6312   427.5200    10.0150    -0.0311
 1338   26.740   3455.80     9.7811     0.2041    -0.0338     0.2674     9.7685     2.0638   427.8400     9.3406    -0.0319
 1339   26.760   3456.83     8.7365     0.2082    -0.0372     0.2676     8.7221     2.3496   428.1600     8.2939    -0.0365
 1340   26.780   3457.82     7.6628     0.1931    -0.0153     0.2678     7.6557     2.5158   428.4800     7.2272    -0.0394
 1341   26.800   3458.92     6.8467     0.1763    -0.0277     0.2680     6.8322     2.5691   428.8000     6.4034    -0.0473
 1342   26.820   3460.03     6.6184     0.1433    -0.0202     0.2682     6.6096     2.1582   429.1200     6.1804    -0.0468
 1343   26.840   3461.18     6.5942     0.1206    -0.0172     0.2684     6.5863     1.8316   429.4400     6.1569    -0.0466
 1344   26.860   3462.27     6.3214     0.1139    -0.0101     0.2686     6.3155     1.7843   429.7600     5.8858    -0.0480
 1345   26.880   3463.34     5.8000     0.1169    -0.0113     0.2688     5.7963     1.9876   430.0800     5.3663    -0.0518
 1346   26.900   3464.47     5.1412     0.1272    -0.0054     0.2690     5.1374     2.4516   430.4000     4.7070    -0.0591
 1347   26.920   3465.50     4.6991     0.1282    -0.0002     0.2692     4.6972     2.7207   430.7200     4.2664    -0.0642
 1348   26.940   3466.63     4.1762     0.1113     0.0043     0.2694     4.1771     2.6299   431.0400     3.7461    -0.0715
 1349   26.960   3467.72     3.7906     0.1005     0.0131     0.2696     3.7949     2.6488   431.3600     3.3635    -0.0772
 1350   26.980   3468.79     3.4231     0.0831     0.0190     0.2698     3.4298     2.4234   431.6800     2.9981    -0.0847
 1351   27.000   3469.90     3.2163     0.0796     0.0253     0.2700     3.2256     2.4586   432.0000     2.7936    -0.0888
 1352   27.020   3471.03     3.0389     0.0875     0.0341     0.2702     3.0521     2.8732   432.3200     2.6198    -0.0911
 1353   27.040   3472.13     2.9357     0.0701     0.0442     0.2704     2.9532     2.3813   432.6400     2.5206    -0.0908
 1354   27.060   3473.21     2.8183     0.0609     0.0468     0.2706     2.8367     2.1531   432.9600     2.4038    -0.0943
 1355   27.080   3474.34     2.7003     0.0573     0.0543     0.2708     2.7217     2.1212   433.2800     2.2885    -0.0960
 1356   27.100   3475.42     2.6919     0.0606     0.0611     0.2710     2.7171     2.2509   433.6000     2.2835    -0.0924
 1357   27.120   3476.51     2.7509     0.0655     0.0678     0.2712     2.7809     2.3817   433.9200     2.3470    -0.0851
 1358   27.140   3477.62     2.7346     0.0673     0.0598     0.2714     2.7590     2.4610   434.2400     2.3247    -0.0918
 1359   27.160   3478.68     2.7448     0.0623     0.0638     0.2716     2.7712     2.2637   434.5600     2.3366    -0.0893
 1360   27.180   3479.80     2.6650     0.0598     0.0686     0.2718     2.6932     2.2347   434.8800     2.2584    -0.0905
 1361   27.200   3480.89     2.5053     0.0552     0.0732     0.2720     2.5353     2.1824   435.2000     2.1001    -0.0955
 1362   27.220   3482.02     2.3135     0.0547     0.0806     0.2722     2.3462     2.3510   435.5200     1.9107    -0.1018
 1363   27.240   3483.16     2.1930     0.0585     0.0912     0.2724     2.2293     2.6613   435.8400     1.7934    -0.1037
 1364   27.260   3484.28     2.3230     0.0670     0.1078     0.2726     2.3668     2.8925   436.1600     1.9306    -0.0873
 1365   27.280   3485.35     2.6496     0.0707     0.1127     0.2728     2.6964     2.6776   436.4800     2.2599    -0.0715
 1366   27.300   3486.46     3.1414     0.0655     0.1121     0.2730     3.1871     2.0914   436.8000     2.7503    -0.0598
 1367   27.320   3487.59     3.3343     0.0701     0.1277     0.2732     3.3859     2.1013   437.1200     2.9487    -0.0510
 1368   27.340   3488.62     3.4487     0.0768     0.1532     0.2734     3.5076     2.2267   437.4400     3.0701    -0.0435
 1369   27.360   3489.80     3.9189     0.0863     0.1795     0.2736     3.9915     2.3308   437.7600     3.5537    -0.0285
 1370   27.380   3490.89     5.3967     0.1082     0.1760     0.2738     5.4726     2.0273   438.0800     5.0345    -0.0185
 1371   27.400   3492.05     5.9800     0.1206     0.1553     0.2740     6.0484     2.0209   438.4000     5.6100    -0.0198
 1372   27.420   3493.17     6.0099     0.1248     0.1359     0.2742     6.0701     2.0808   438.7200     5.6314    -0.0232
 1373   27.440   3494.23     5.0676     0.1295     0.1317     0.2744     5.1224     2.4879   439.0400     4.6833    -0.0308
 1374   27.460   3495.35     3.6937     0.1195     0.1374     0.2746     3.7489     3.2291   439.3600     3.3096    -0.0433
 1375   27.480   3496.44     3.4665     0.1127     0.1815     0.2748     3.5373     3.1582   439.6800     3.0976    -0.0342
 1376   27.500   3497.52     3.0789     0.1191     0.2141     0.2750     3.1631     3.8076   440.0000     2.7231    -0.0273
 1377   27.520   3498.57     2.9748     0.1077     0.2361     0.2752     3.0720     3.5505   440.3200     2.6317    -0.0166
 1378   27.540   3499.69     2.8991     0.0876     0.2619     0.2754     3.0042     2.9734   440.6400     2.5636    -0.0098
 1379   27.560   3500.85     2.9041     0.0882     0.2550     0.2756     3.0150     3.0691   440.9600     2.5740    -0.0045
 1380   27.580   3501.94     3.0808     0.0874     0.2791     0.2758     3.1900     2.9241   441.2800     2.7487    -0.0058
 1381   27.600   3503.08     3.5901     0.0837     0.3053     0.2760     3.7139     2.4032   441.6000     3.2723     0.0057
 1382   27.620   3504.20     4.7703     0.0822     0.3138     0.2762     4.9075     1.7580   441.9200     4.4656     0.0114
 1383   27.640   3505.35     6.4827     0.0696     0.2476     0.2764     6.5948     1.0940   442.2400     6.1525    -0.0015
 1384   27.660   3506.45     7.9141     0.0530     0.2275     0.2766     8.0113     0.6874   442.5600     7.5688    -0.0060
 1385   27.680   3507.54     9.2336     0.0462     0.2177     0.2768     9.3276     0.5124   442.8800     8.8847    -0.0060
 1386   27.700   3508.63    10.4237     0.0376     0.2087     0.2770    10.5138     0.3693   443.2000    10.0706    -0.0062
 1387   27.720   3509.72    11.6082     0.0340     0.1811     0.2772    11.6890     0.2978   443.5200    11.2455    -0.0075
 1388   27.740   3510.79    12.5937     0.0346     0.1029     0.2774    12.6492     0.2783   443.8400    12.2053    -0.0119
 1389   27.760   3511.88    13.3400     0.0338     0.1103     0.2776    13.3870     0.2562   444.1600    12.9428    -0.0128
 1390   27.780   3512.93    14.1968     0.0378     0.1067     0.2778    14.2410     0.2693   444.4800    13.7965    -0.0125
 1391   27.800   3513.99    15.4685     0.0400     0.1318     0.2780    15.5214     0.2625   444.8000    15.0766    -0.0101
 1392   27.820   3515.14    17.4587     0.0376     0.1287     0.2782    17.5103     0.2206   445.1200    17.0652    -0.0091
 1393   27.840   3516.19    20.3091     0.0393     0.1518     0.2784    20.3699     0.2014   445.4400    19.9245    -0.0067
 1394   27.860   3517.26    23.4301     0.0455     0.1296     0.2786    23.4791     0.2024   445.7600    23.0333    -0.0070
 1395   27.880   3518.35    26.6583     0.0500     0.0489     0.2788    26.6988     0.1956   446.0800    26.2527    -0.0069
 1396   27.900   3519.43    28.8159     0.0535     0.0860     0.2790    28.8540     0.1888   446.4000    28.4076    -0.0066
 1397   27.920   3520.53    29.5180     0.0697     0.0954     0.2792    29.5593     0.2360   446.7200    29.1126    -0.0062
 1398   27.940   3521.57    28.5274     0.0981     0.1307     0.2794    28.5771     0.3427   447.0400    28.1300    -0.0057
 1399   27.960   3522.59    26.2840     0.1378     0.1396     0.2796    26.3399     0.5219   447.3600    25.8926    -0.0057
 1400   27.980   3523.59    22.9866     0.1920     0.1336     0.2798    23.0464     0.8303   447.6800    22.5987    -0.0061
 1401   28.000   3524.55    19.5045     0.2320     0.1447     0.2800    19.5615     1.1129   448.0000    19.1135    -0.0075
 1402   28.020   3525.57    16.0423     0.2390     0.1538     0.2802    16.1058     1.3816   448.3200    15.6575    -0.0083
 1403   28.040   3526.56    13.1363     0.2341     0.1664     0.2804    13.2028     1.6642   448.6400    12.7541    -0.0096
 1404   28.060   3527.59    11.0972     0.2142     0.2227     0.2806    11.1805     1.8252   448.9600    10.7316    -0.0076
 1405   28.080   3528.59    10.5283     0.1854     0.4082     0.2808    10.6657     1.7510   449.2800    10.2164     0.0045
 1406   28.100   3529.68    11.4412     0.1945     0.5234     0.2810    11.6613     1.7720   449.6000    11.2117     0.0217
 1407   28.120   3530.74    13.7765     0.2737     0.4858     0.2812    13.9988     2.1462   449.9200    13.5489     0.0183
 1408   28.140   3531.78    14.8997     0.3215     0.0823     0.2814    14.9883     2.1527   450.2400    14.5381    -0.0049
 1409   28.160   3532.78    12.7847     0.3095     0.0997     0.2816    12.8160     2.2334   450.5600    12.3654    -0.0167
 1410   28.180   3533.77     9.8991     0.2812     0.1747     0.2818     9.9703     2.8144   450.8800     9.5194    -0.0118
 1411   28.200   3534.81     8.2461     0.2779     0.1625     0.2820     8.3027     3.2460   451.2000     7.8515    -0.0187
 1412   28.220   3535.91     9.9047                0.3154     0.2822     9.9997              451.5200     9.5481    -0.0068
 1413   28.240   3537.13    17.3675                0.4197     0.2824    17.5443              451.8400    17.0924     0.0080
 1414   28.260   3538.40    28.3610                0.3629     0.2826    28.6120              452.1600    28.1598     0.0115
 1415   28.280   3539.70    38.8435                0.1165     0.2828    38.9046              452.4800    38.4521    -0.0036
 1416   28.300   3541.06    47.1012                0.1716     0.2830    47.1662              452.8000    46.7134    -0.0027
 1417   28.311   3541.72    50.8171                           0.2831    50.8977              452.9755    50.4447    -0.0018
 
 
