

 Program UNIPLOT                         version 05.36.02
 _______________
 (c) Fugro Netherlands Marine, Nootdorp, The Netherlands


 ASCII representation of data plotted on a graph.

 This ASCII file presents data interpolated to values per fixed depth interval.
 The data are corrected for the depth-offset differences between the various 
 transducers in the penetrometer.

 The records at the start of penetration may include no values or anomalous
 values where a depth offset implies incomplete penetration of a particular
 sensor into the ground.

 The records at the end of penetration may include no values for data channels
 where the transducer did not reach this depth.

 The reference level for test values is (1) the ground surface for onshore tests and (2) the seafloor for nearshore and offshore tests.

 UNICAS data file          : CPT-2019.000                            
 Output using command file : PlotASCII.cmd

 ASCII file created at : date          :06-May-2022
                         time          :10:32:12
 Project number                        :20024805
 Date of testing                       :28-Apr-2022
 Location                              :Hong Kong Offshore Wind Farm Project
 Test name                             :CPT-2019
 Penetrometer                          :F7.5CKE2HAW2/B/3285
 Serial no                             :1701-3285

 Table description:
 Column ID                             :Parameter name
 ___________________________________________________________________________________
 Rec                                   :Record ID, Record ID [-]
 Depth                                 :Depth, Depth [m]
 Time                                  :Time, Time [s]
 Cone                                  :Cone Resistance, Cone Resistance [MPa]
 Friction                              :Sleeve Friction, Sleeve Friction [MPa]
 Pore 2                                :Porewater Pressure, Porewater Pressure at Shoulder [MPa]
 HydroPress                            :Hydrostatic Pressure, Hydrostatic Pressure [MPa]
 qt                                    :Total Cone Resistance, Total Cone Resistance [MPa]
 Fric_ratio                            :Friction Ratio, Friction Ratio [%]
 SigmaVert                             :Vertical stress, Vertical stress [kPa] as specified in ground model
 Qnet                                  :Net Cone Resistance, Net Cone Resistance [MPa], unit weight as specified in ground model
 Bq                                    :Porewater Pressure Ratio, Porewater Pressure Ratio [-], unit weight as specified in ground model


 Data table:
  Rec    Depth      Time       Cone   Friction     Pore 2 HydroPress         qt Fric_ratio  SigmaVert       Qnet         Bq
   No        m         s        MPa        MPa        MPa        MPa        MPa          %        kPa        MPa          -
    1    0.000   1723.41     0.0000                           0.0000     0.0000                0.0000     0.0000           
    2    0.020   1724.39     0.0034                0.0002     0.0002     0.0034                0.3200     0.0031    -0.0157
    3    0.040   1725.29     0.0040                0.0004     0.0004     0.0041                0.6400     0.0035    -0.0265
    4    0.060   1726.22     0.0031                0.0007     0.0006     0.0033                0.9600     0.0024    -0.0050
    5    0.080   1727.16     0.0040     0.0005     0.0010     0.0008     0.0044    14.3118     1.2800     0.0031     0.0434
    6    0.100   1728.10     0.0046     0.0006     0.0011     0.0010     0.0050    11.8737     1.6000     0.0034     0.0013
    7    0.120   1729.01     0.0019     0.0006     0.0014     0.0012     0.0024    95.3575     1.9200     0.0005     0.0391
    8    0.140   1730.00     0.0026     0.0005     0.0012     0.0014     0.0031    12.9317     2.2400     0.0008    -0.2206
    9    0.160   1730.99     0.0047     0.0003     0.0018     0.0016     0.0054     8.1175     2.5600     0.0028    -0.1301
   10    0.180   1732.01     0.0025     0.0006     0.0019     0.0018     0.0032    31.6249     2.8800     0.0004    -0.1093
   11    0.200   1732.95     0.0003     0.0005     0.0021     0.0020     0.0012    65.5456     3.2000    -0.0020    -0.0700
   12    0.220   1733.81     0.0045     0.0005     0.0024     0.0022     0.0055    71.7806     3.5200     0.0019     0.0408
   13    0.240   1734.77     0.0023     0.0003     0.0026     0.0024     0.0034    19.3603     3.8400    -0.0004    -1.4942
   14    0.260   1735.73     0.0057     0.0003     0.0028     0.0026     0.0068     7.4631     4.1600     0.0026     0.0447
   15    0.280   1736.74     0.0033     0.0003     0.0031     0.0028     0.0045     5.8205     4.4800     0.0001    -0.2663
   16    0.300   1737.60     0.0039     0.0002     0.0031     0.0030     0.0052     5.8601     4.8000     0.0004     0.4095
   17    0.320   1738.48     0.0046     0.0005     0.0032     0.0032     0.0060    11.8175     5.1200     0.0008     0.1415
   18    0.340   1739.41     0.0033     0.0006     0.0035     0.0034     0.0047    19.7445     5.4400    -0.0007     0.1681
   19    0.360   1740.50     0.0041     0.0005     0.0035     0.0036     0.0055    12.6900     5.7600    -0.0003     0.3001
   20    0.380   1741.48     0.0045     0.0004     0.0040     0.0038     0.0062     7.6914     6.0800     0.0001           
   21    0.400   1742.40     0.0051     0.0005     0.0041     0.0040     0.0068    10.5157     6.4000     0.0004    -0.3065
   22    0.420   1743.34     0.0025     0.0004     0.0045     0.0042     0.0044    17.1433     6.7200    -0.0023    -0.0908
   23    0.440   1744.26     0.0048     0.0004     0.0046     0.0044     0.0067    14.6702     7.0400    -0.0003     0.1866
   24    0.460   1745.25     0.0052     0.0002     0.0049     0.0046     0.0072    10.4634     7.3600    -0.0001     0.0600
   25    0.480   1746.17     0.0059     0.0004     0.0049     0.0048     0.0080     8.0585     7.6800     0.0003    -0.1790
   26    0.500   1747.03     0.0066     0.0005     0.0053     0.0050     0.0088     6.7279     8.0000     0.0008     0.3371
   27    0.520   1747.97     0.0068     0.0003     0.0051     0.0052     0.0090     4.7579     8.3200     0.0007    -0.2646
   28    0.540   1748.87     0.0039     0.0004     0.0052     0.0054     0.0061     8.9288     8.6400    -0.0025    -0.0312
   29    0.560   1749.89     0.0061     0.0007     0.0055     0.0056     0.0083    11.6084     8.9600    -0.0006     0.2735
   30    0.580   1750.94     0.0063     0.0005     0.0059     0.0058     0.0087     7.9414     9.2800    -0.0005    -0.1006
   31    0.600   1751.89     0.0045     0.0005     0.0065     0.0060     0.0072     5.7313     9.6000    -0.0024    -0.1997
   32    0.620   1752.78     0.0103     0.0005     0.0066     0.0062     0.0131     7.5236     9.9200     0.0032     0.0116
   33    0.640   1753.65     0.0101     0.0007     0.0067     0.0064     0.0129     8.8435    10.2400     0.0026     0.4218
   34    0.660   1754.57     0.0068     0.0009     0.0067     0.0066     0.0096    15.4652    10.5600    -0.0010     0.0062
   35    0.680   1755.52     0.0117     0.0006     0.0067     0.0068     0.0145     6.0289    10.8800     0.0037    -0.0041
   36    0.700   1756.53     0.0142     0.0006     0.0067     0.0070     0.0170     5.0229    11.2000     0.0058    -0.0368
   37    0.720   1757.49     0.0141     0.0005     0.0072     0.0072     0.0170     3.6462    11.5200     0.0055    -0.0515
   38    0.740   1758.47     0.0152     0.0008     0.0074     0.0074     0.0183     6.0426    11.8400     0.0065     0.0014
   39    0.760   1759.47     0.0134     0.0007     0.0077     0.0076     0.0166     5.1742    12.1600     0.0045     0.0287
   40    0.780   1760.29     0.0150     0.0007     0.0079     0.0078     0.0183     5.1381    12.4800     0.0058     0.0003
   41    0.800   1761.17     0.0154     0.0009     0.0074     0.0080     0.0186     6.4145    12.8000     0.0058    -0.0407
   42    0.820   1762.07     0.0201     0.0011     0.0076     0.0082     0.0233     5.7942    13.1200     0.0102    -0.0493
   43    0.840   1763.09     0.0196     0.0012     0.0076     0.0084     0.0228     6.2687    13.4400     0.0093    -0.0886
   44    0.860   1764.10     0.0220     0.0012     0.0066     0.0086     0.0251     5.8240    13.7600     0.0113    -0.1055
   45    0.880   1765.09     0.0254     0.0014     0.0042     0.0088     0.0272     5.7001    14.0800     0.0131    -0.3501
   46    0.900   1766.02     0.0240     0.0013     0.0073     0.0090     0.0265     5.5852    14.4000     0.0121    -0.2444
   47    0.920   1766.95     0.0250     0.0015     0.0096     0.0092     0.0288     5.8506    14.7200     0.0140    -0.0117
   48    0.940   1767.90     0.0234     0.0015     0.0112     0.0094     0.0280     6.0891    15.0400     0.0129     0.1141
   49    0.960   1768.78     0.0297     0.0017     0.0120     0.0096     0.0346     5.9006    15.3600     0.0193     0.1096
   50    0.980   1769.71     0.0299     0.0017     0.0108     0.0098     0.0347     5.9430    15.6800     0.0190     0.0852
   51    1.000   1770.58     0.0306     0.0019     0.0093     0.0100     0.0349     6.1176    16.0000     0.0189     0.0092
   52    1.020   1771.52     0.0310     0.0019     0.0090     0.0102     0.0350     6.0993    16.3200     0.0186    -0.0440
   53    1.040   1772.47     0.0291     0.0021     0.0071     0.0104     0.0324     6.7446    16.6400     0.0157    -0.1629
   54    1.060   1773.52     0.0254     0.0019     0.0078     0.0106     0.0284     7.4213    16.9600     0.0114    -0.3076
   55    1.080   1774.44     0.0250     0.0020     0.0081     0.0108     0.0279     7.9753    17.2800     0.0106    -0.3734
   56    1.100   1775.39     0.0231     0.0017     0.0110     0.0110     0.0274     6.8821    17.6000     0.0098    -0.0923
   57    1.120   1776.34     0.0240     0.0018     0.0131     0.0112     0.0292     7.2650    17.9200     0.0113     0.1011
   58    1.140   1777.20     0.0236     0.0017     0.0144     0.0114     0.0295     7.0802    18.2400     0.0113     0.2370
   59    1.160   1778.09     0.0256     0.0019     0.0157     0.0116     0.0319     7.5365    18.5600     0.0134     0.2650
   60    1.180   1779.02     0.0271     0.0018     0.0170     0.0118     0.0340     6.6940    18.8800     0.0151     0.3119
   61    1.200   1780.04     0.0248     0.0019     0.0179     0.0120     0.0322     7.5304    19.2000     0.0130     0.4395
   62    1.220   1785.20     0.0218     0.0022     0.0167     0.0122     0.0288     9.3382    19.5200     0.0092     0.4622
   63    1.240   1823.21     0.0223     0.0021     0.0172     0.0124     0.0295     9.7531    19.8400     0.0096     0.4770
   64    1.260   1857.95     0.0226     0.0022     0.0180     0.0126     0.0300     9.8076    20.1600     0.0098     0.5069
   65    1.280   1858.86     0.0210     0.0018     0.0186     0.0128     0.0287     8.3472    20.4800     0.0082     0.6606
   66    1.300   1859.83     0.0217     0.0020     0.0203     0.0130     0.0300     9.2583    20.8000     0.0092     0.7307
   67    1.320   1860.85     0.0308     0.0018     0.0223     0.0132     0.0399     7.3064    21.1200     0.0188     0.4539
   68    1.340   1861.77     0.0419     0.0026     0.0240     0.0134     0.0517     7.4818    21.4400     0.0303     0.3323
   69    1.360   1862.73     0.0601     0.0028     0.0213     0.0136     0.0701     5.2450    21.7600     0.0484     0.2126
   70    1.380   1863.66     0.0809     0.0032     0.0142     0.0138     0.0875     4.5487    22.0800     0.0655     0.0318
   71    1.400   1864.59     0.0934     0.0037     0.0104     0.0140     0.0984     4.2273    22.4000     0.0760    -0.0267
   72    1.420   1865.51     0.1024     0.0042     0.0014     0.0142     0.1043     4.2003    22.7200     0.0816    -0.1199
   73    1.440   1866.42     0.0914     0.0045     0.0008     0.0144     0.0916     4.5778    23.0400     0.0686    -0.2012
   74    1.460   1867.33     0.0746     0.0048     0.0020     0.0146     0.0756     5.7696    23.3600     0.0522    -0.2374
   75    1.480   1868.32     0.0652     0.0046     0.0006     0.0148     0.0659     6.4472    23.6800     0.0422    -0.3138
   76    1.500   1869.28     0.0572     0.0048    -0.0008     0.0150     0.0569     8.0588    24.0000     0.0329    -0.4783
   77    1.520   1870.21     0.0503     0.0043     0.0011     0.0152     0.0504     8.2371    24.3200     0.0261    -0.5808
   78    1.540   1871.13     0.0457     0.0035     0.0032     0.0154     0.0468     7.4810    24.6400     0.0222    -0.5727
   79    1.560   1872.06     0.0377     0.0025     0.0062     0.0156     0.0397     6.2518    24.9600     0.0148    -0.7509
   80    1.580   1873.02     0.0352     0.0021     0.0085     0.0158     0.0384     5.4698    25.2800     0.0132    -0.6174
   81    1.600   1873.95     0.0305     0.0007     0.0095     0.0160     0.0344     1.7473    25.6000     0.0088    -0.8487
   82    1.620   1874.82     0.0267    -0.0014     0.0111     0.0162     0.0311    -5.7465    25.9200     0.0052    -1.1601
   83    1.640   1875.76     0.0235     0.0019     0.0126     0.0164     0.0287    10.3140    26.2400     0.0024    -1.7253
   84    1.660   1876.74     0.0243     0.0078     0.0135     0.0166     0.0299    37.3030    26.5600     0.0033           
   85    1.680   1877.69     0.0260     0.0022     0.0147     0.0168     0.0320     8.5834    26.8800     0.0051    -0.5383
   86    1.700   1878.62     0.0716     0.0005     0.0213     0.0170     0.0790    -6.4465    27.2000     0.0518    -0.0439
   87    1.720   1879.57     0.5371     0.0101     0.0232     0.0172     0.5485     0.2135    27.5200     0.5209     0.0191
   88    1.740   1881.35     0.5423     0.0138     0.0205     0.0174     0.5511     2.3045    27.8400     0.5233     0.0099
   89    1.760   1887.75     0.1564     0.0143     0.0195     0.0176     0.1646     2.3784    28.1600     0.1364     0.0305
   90    1.780   1891.26     0.2296     0.0140     0.0241     0.0178     0.2435     9.1577    28.4800     0.2150     0.0723
   91    1.800   1895.00     0.7171     0.0108     0.0028     0.0180     0.7190     2.5311    28.8000     0.6902    -0.0142
   92    1.820   1902.77     0.3857     0.0108     0.0084     0.0182     0.3884     1.5519    29.1200     0.3593    -0.1031
   93    1.840   1909.88     0.0698     0.0125     0.0174     0.0184     0.0766    18.1084    29.4400     0.0472    -0.0466
   94    1.860   1911.67     0.0799     0.0137     0.0275     0.0186     0.0899    20.7487    29.7600     0.0601     0.0925
   95    1.880   1913.31     0.0800     0.0095     0.0311     0.0188     0.0924    15.0636    30.0800     0.0623     0.1755
   96    1.900   1914.31     0.0937     0.0049     0.0345     0.0190     0.1079     5.3583    30.4000     0.0775     0.1917
   97    1.920   1915.31     0.0939     0.0051     0.0351     0.0192     0.1086     5.6194    30.7200     0.0779     0.2034
   98    1.940   1916.23     0.0883     0.0051     0.0353     0.0194     0.1030     5.6256    31.0400     0.0719     0.2164
   99    1.960   1917.17     0.0862     0.0051     0.0381     0.0196     0.1019     5.7826    31.3600     0.0706     0.2520
  100    1.980   1918.14     0.0806     0.0055     0.0384     0.0198     0.0967     6.5374    31.6800     0.0650     0.2856
  101    2.000   1919.09     0.0807     0.0053     0.0369     0.0200     0.0964     6.7167    32.0000     0.0644     0.2719
  102    2.020   1920.00     0.0886     0.0054     0.0376     0.0202     0.1041     6.3557    32.3200     0.0718     0.2355
  103    2.040   1920.91     0.0912     0.0050     0.0389     0.0204     0.1073     5.6802    32.6400     0.0747     0.2421
  104    2.060   1921.83     0.0874     0.0046     0.0396     0.0206     0.1037     5.0944    32.9600     0.0707     0.2580
  105    2.080   1922.80     0.0764     0.0042     0.0402     0.0208     0.0932     5.4085    33.2800     0.0599     0.3211
  106    2.100   1923.80     0.0708     0.0036     0.0440     0.0210     0.0886     4.9224    33.6000     0.0550     0.3879
  107    2.120   1924.74     0.0709     0.0038     0.0482     0.0212     0.0907     5.2393    33.9200     0.0568     0.4562
  108    2.140   1925.64     0.0714     0.0035     0.0490     0.0214     0.0920     4.7976    34.2400     0.0577     0.4777
  109    2.160   1926.52     0.0717     0.0039     0.0492     0.0216     0.0921     5.5469    34.5600     0.0576     0.4692
  110    2.180   1927.56     0.0807     0.0039     0.0519     0.0218     0.1022     4.8691    34.8800     0.0673     0.4373
  111    2.200   1928.48     0.0876     0.0036     0.0540     0.0220     0.1101     4.2770    35.2000     0.0749     0.4198
  112    2.220   1929.35     0.0910     0.0037     0.0564     0.0222     0.1143     4.0941    35.5200     0.0787     0.4204
  113    2.240   1930.43     0.1044     0.0035     0.0574     0.0224     0.1288     3.6102    35.8400     0.0930     0.3848
  114    2.260   1931.45     0.1102     0.0034     0.0554     0.0226     0.1337     3.0078    36.1600     0.0975     0.3415
  115    2.280   1932.55     0.1110     0.0034     0.0569     0.0228     0.1347     3.0934    36.4800     0.0982     0.3425
  116    2.300   1933.65     0.1146     0.0045     0.0558     0.0230     0.1384     4.0126    36.8000     0.1016     0.3315
  117    2.320   1934.65     0.1135     0.0049     0.0574     0.0232     0.1370     4.3613    37.1200     0.0999     0.3273
  118    2.340   1935.69     0.1230     0.0051     0.0584     0.0234     0.1475     4.2837    37.4400     0.1100     0.3172
  119    2.360   1936.67     0.1453     0.0053     0.0579     0.0236     0.1697     3.7276    37.7600     0.1320     0.2633
  120    2.380   1937.62     0.1589     0.0054     0.0576     0.0238     0.1831     3.4058    38.0800     0.1450     0.2326
  121    2.400   1938.61     0.1640     0.0054     0.0537     0.0240     0.1869     3.3290    38.4000     0.1485     0.2055
  122    2.420   1939.67     0.1772     0.0059     0.0470     0.0242     0.1983     3.2796    38.7200     0.1595     0.1620
  123    2.440   1940.64     0.1711     0.0059     0.0416     0.0244     0.1889     3.4692    39.0400     0.1498     0.1190
  124    2.460   1941.65     0.1871     0.0062     0.0373     0.0246     0.2038     3.4293    39.3600     0.1644     0.0934
  125    2.480   1942.68     0.1887     0.0064     0.0382     0.0248     0.2038     3.3242    39.6800     0.1641     0.0687
  126    2.500   1943.62     0.1766     0.0066     0.0436     0.0250     0.1948     3.6807    40.0000     0.1548     0.1189
  127    2.520   1944.56     0.1664     0.0065     0.0458     0.0252     0.1852     3.8519    40.3200     0.1449     0.1348
  128    2.540   1945.54     0.1618     0.0066     0.0457     0.0254     0.1818     4.0356    40.6400     0.1411     0.1567
  129    2.560   1946.53     0.1592     0.0066     0.0417     0.0256     0.1785     4.1185    40.9600     0.1375     0.1478
  130    2.580   1947.49     0.1561     0.0065     0.0403     0.0258     0.1730     4.1470    41.2800     0.1317     0.1096
  131    2.600   1948.41     0.1575     0.0066     0.0426     0.0260     0.1726     4.1889    41.6000     0.1310     0.0767
  132    2.620   1949.35     0.1723     0.0061     0.0464     0.0262     0.1918     3.6254    41.9200     0.1499     0.1365
  133    2.640   1950.35     0.1821     0.0055     0.0466     0.0264     0.2021     3.1027    42.2400     0.1598     0.1319
  134    2.660   1951.33     0.1670     0.0054     0.0423     0.0266     0.1855     3.1016    42.5600     0.1430     0.1220
  135    2.680   1952.36     0.1483     0.0055     0.0457     0.0268     0.1666     3.5571    42.8800     0.1237     0.1357
  136    2.700   1953.29     0.1349     0.0050     0.0504     0.0270     0.1555     3.6879    43.2000     0.1123     0.1961
  137    2.720   1954.28     0.1286     0.0053     0.0554     0.0272     0.1512     4.0508    43.5200     0.1077     0.2467
  138    2.740   1955.22     0.1298     0.0057     0.0568     0.0274     0.1537     4.4193    43.8400     0.1098     0.2675
  139    2.760   1956.16     0.1300     0.0061     0.0575     0.0276     0.1540     4.7513    44.1600     0.1099     0.2697
  140    2.780   1957.17     0.1360     0.0064     0.0596     0.0278     0.1605     4.7883    44.4800     0.1160     0.2639
  141    2.800   1958.15     0.1339     0.0068     0.0618     0.0280     0.1597     5.1232    44.8000     0.1149     0.2911
  142    2.820   1959.12     0.1367     0.0066     0.0621     0.0282     0.1627     4.8826    45.1200     0.1176     0.2874
  143    2.840   1960.07     0.1423     0.0059     0.0627     0.0284     0.1684     4.1842    45.4400     0.1230     0.2752
  144    2.860   1961.08     0.1417     0.0054     0.0637     0.0286     0.1680     3.8214    45.7600     0.1222     0.2782
  145    2.880   1962.10     0.1448     0.0054     0.0674     0.0288     0.1728     3.7599    46.0800     0.1267     0.2982
  146    2.900   1963.03     0.1526     0.0052     0.0689     0.0290     0.1815     3.4049    46.4000     0.1351     0.2941
  147    2.920   1963.93     0.1487     0.0052     0.0741     0.0292     0.1789     3.5061    46.7200     0.1322     0.3227
  148    2.940   1964.85     0.1623     0.0057     0.0676     0.0294     0.1925     3.6195    47.0400     0.1454     0.2922
  149    2.960   1965.95     0.1685     0.0056     0.0600     0.0296     0.1941     3.3631    47.3600     0.1467     0.2136
  150    2.980   1966.95     0.1724     0.0056     0.0613     0.0298     0.1983     3.2799    47.6800     0.1506     0.2105
  151    3.000   1967.93     0.1726     0.0066     0.0628     0.0300     0.1994     3.8522    48.0000     0.1514     0.2224
  152    3.020   1968.83     0.1778     0.0071     0.0580     0.0302     0.2023     4.0003    48.3200     0.1540     0.1825
  153    3.040   1969.74     0.2059     0.0071     0.0612     0.0304     0.2310     3.7623    48.6400     0.1824     0.1623
  154    3.060   1970.74     0.2980     0.0070     0.0469     0.0306     0.3205     2.4695    48.9600     0.2716     0.0860
  155    3.080   1971.74     0.2990     0.0072     0.0415     0.0308     0.3165     2.3284    49.2800     0.2672     0.0408
  156    3.100   1972.73     0.2253     0.0079     0.0537     0.0310     0.2459     3.0921    49.6000     0.1963     0.0951
  157    3.120   1973.66     0.1958     0.0071     0.0612     0.0312     0.2204     3.4179    49.9200     0.1705     0.1603
  158    3.140   1974.63     0.1997     0.0062     0.0628     0.0314     0.2266     3.1126    50.2400     0.1764     0.1858
  159    3.160   1975.62     0.2035     0.0058     0.0540     0.0316     0.2270     2.8250    50.5600     0.1765     0.1376
  160    3.180   1976.64     0.2065     0.0059     0.0491     0.0318     0.2275     2.8440    50.8800     0.1766     0.1028
  161    3.200   1977.57     0.2053     0.0060     0.0588     0.0320     0.2274     2.9553    51.2000     0.1762     0.1162
  162    3.220   1982.86     0.2140     0.0063     0.0577     0.0322     0.2388     3.9048    51.5200     0.1873     0.1430
  163    3.240   2007.56     0.2186     0.0076     0.0540     0.0324     0.2419     4.6582    51.8400     0.1900     0.1208
  164    3.260   2023.76     0.2297     0.0079     0.0649     0.0326     0.2552     3.4972    52.1600     0.2031     0.1383
  165    3.280   2024.72     0.2448     0.0074     0.0647     0.0328     0.2730     3.0733    52.4800     0.2205     0.1555
  166    3.300   2025.65     0.2371     0.0075     0.0449     0.0330     0.2590     3.1446    52.8000     0.2062     0.0932
  167    3.320   2026.63     0.2196     0.0074     0.0387     0.0332     0.2347     3.2132    53.1200     0.1816     0.0161
  168    3.340   2027.62     0.1896     0.0074     0.0481     0.0334     0.2080     3.8067    53.4400     0.1546     0.0677
  169    3.360   2028.66     0.1717     0.0063     0.0518     0.0336     0.1930     3.6033    53.7600     0.1392     0.1233
  170    3.380   2029.56     0.1602     0.0057     0.0516     0.0338     0.1819     3.4927    54.0800     0.1278     0.1388
  171    3.400   2030.48     0.1533     0.0055     0.0536     0.0340     0.1757     3.5948    54.4000     0.1213     0.1589
  172    3.420   2031.43     0.1581     0.0053     0.0530     0.0342     0.1806     3.3542    54.7200     0.1259     0.1536
  173    3.440   2032.42     0.1419     0.0053     0.0553     0.0344     0.1647     3.6961    55.0400     0.1096     0.1809
  174    3.460   2033.46     0.1324     0.0048     0.0597     0.0346     0.1566     3.6838    55.3600     0.1012     0.2272
  175    3.480   2034.42     0.1499     0.0048     0.0645     0.0348     0.1764     3.3353    55.6800     0.1207     0.2348
  176    3.500   2035.39     0.1564     0.0042     0.0681     0.0350     0.1844     2.8284    56.0000     0.1284     0.2474
  177    3.520   2036.28     0.1609     0.0042     0.0732     0.0352     0.1909     2.6328    56.3200     0.1346     0.2690
  178    3.540   2037.30     0.1724     0.0038     0.0792     0.0354     0.2046     2.2923    56.6400     0.1480     0.2791
  179    3.560   2038.32     0.2051     0.0036     0.0863     0.0356     0.2409     1.9383    56.9600     0.1840     0.2699
  180    3.580   2039.25     0.2444     0.0032     0.0825     0.0358     0.2800     1.3871    57.2800     0.2227     0.2199
  181    3.600   2040.15     0.2804     0.0032     0.0775     0.0360     0.3134     1.2074    57.6000     0.2558     0.1669
  182    3.620   2041.09     0.3271     0.0030     0.0774     0.0362     0.3595     0.9621    57.9200     0.3016     0.1359
  183    3.640   2042.12     0.3657     0.0029     0.0716     0.0364     0.3969     0.8229    58.2400     0.3386     0.1118
  184    3.660   2043.10     0.4150     0.0031     0.0619     0.0366     0.4426     0.7842    58.5600     0.3840     0.0759
  185    3.680   2045.89     0.3821     0.0034     0.0628     0.0368     0.4113     0.9027    58.8800     0.3525     0.0936
  186    3.700   2046.86     0.5226     0.0033     0.0621     0.0370     0.5484     0.6407    59.2000     0.4892     0.0503
  187    3.720   2047.89     0.5433     0.0027     0.0683     0.0372     0.5715     0.5038    59.5200     0.5120     0.0583
  188    3.740   2048.89     0.5561     0.0028     0.0732     0.0374     0.5859     0.5112    59.8400     0.5260     0.0637
  189    3.760   2049.89     0.6156     0.0028     0.0655     0.0376     0.6453     0.4800    60.1600     0.5851     0.0565
  190    3.780   2050.87     0.7495     0.0033     0.0521     0.0378     0.7734     0.4649    60.4800     0.7129     0.0267
  191    3.800   2051.84     0.8718     0.0031     0.0462     0.0380     0.8911     0.3724    60.8000     0.8303     0.0097
  192    3.820   2052.80     0.9314     0.0035     0.0549     0.0382     0.9538     0.3869    61.1200     0.8926     0.0167
  193    3.840   2053.77     0.9601     0.0034     0.0538     0.0384     0.9828     0.3541    61.4400     0.9214     0.0169
  194    3.860   2054.70     0.9353     0.0033     0.0616     0.0386     0.9597     0.3507    61.7600     0.8980     0.0218
  195    3.880   2055.66     0.8403     0.0034     0.0685     0.0388     0.8683     0.3967    62.0800     0.8062     0.0347
  196    3.900   2056.58     0.7668     0.0038     0.0734     0.0390     0.7965     0.4890    62.4000     0.7341     0.0434
  197    3.920   2057.42     0.7011     0.0039     0.0699     0.0392     0.7302     0.5521    62.7200     0.6675     0.0451
  198    3.940   2058.24     0.6559     0.0043     0.0785     0.0394     0.6877     0.6243    63.0400     0.6246     0.0582
  199    3.960   2059.13     0.5800     0.0031     0.0839     0.0396     0.6142     0.5155    63.3600     0.5508     0.0760
  200    3.980   2060.12     0.5160     0.0024     0.0904     0.0398     0.5532     0.4586    63.6800     0.4895     0.1000
  201    4.000   2061.11     0.5335     0.0024     0.0863     0.0400     0.5705     0.4786    64.0000     0.5065     0.0953
  202    4.020   2061.97     0.6106     0.0029     0.0835     0.0402     0.6472     0.4908    64.3200     0.5829     0.0811
  203    4.040   2062.94     0.7442     0.0034     0.0582     0.0404     0.7733     0.4808    64.6400     0.7086     0.0409
  204    4.060   2063.92     0.8447     0.0046     0.0549     0.0406     0.8682     0.5551    64.9600     0.8032     0.0190
  205    4.080   2064.99     0.8722     0.0048     0.0642     0.0408     0.8962     0.5505    65.2800     0.8309     0.0197
  206    4.100   2065.92     0.8493     0.0042     0.0716     0.0410     0.8785     0.4921    65.6000     0.8129     0.0351
  207    4.120   2066.84     0.8997     0.0031     0.0768     0.0412     0.9317     0.3506    65.9200     0.8658     0.0403
  208    4.140   2067.81     0.9738     0.0058     0.0772     0.0414     1.0065     0.6208    66.2400     0.9403     0.0387
  209    4.160   2068.83     1.1223     0.0058     0.0741     0.0416     1.1527     0.5290    66.5600     1.0862     0.0285
  210    4.180   2069.83     1.3349     0.0072     0.0725     0.0418     1.3662     0.5637    66.8800     1.2993     0.0253
  211    4.200   2070.75     1.7248     0.0100     0.0739     0.0420     1.7560     0.6279    67.2000     1.6888     0.0190
  212    4.220   2071.70     2.5482     0.0134     0.0670     0.0422     2.5772     0.6155    67.5200     2.5097     0.0110
  213    4.240   2074.98     4.0020     0.0123     0.0612     0.0424     4.0278     0.3175    67.8400     3.9600     0.0048
  214    4.260   2078.07     4.8640     0.0138     0.0450     0.0426     4.8868     0.3108    68.1600     4.8187     0.0026
  215    4.280   2079.20     6.6479     0.0147     0.0334     0.0428     6.6634     0.2315    68.4800     6.5949    -0.0009
  216    4.300   2080.16     7.0329     0.0155     0.0265     0.0430     7.0448     0.2194    68.8000     6.9760    -0.0021
  217    4.320   2081.93     5.4181     0.0168     0.0459     0.0432     5.4325     0.2662    69.1200     5.3634    -0.0017
  218    4.340   2082.99     5.6315     0.0132     0.0206     0.0434     5.6406     0.2362    69.4400     5.5711    -0.0039
  219    4.360   2083.98     5.2440     0.0089     0.0018     0.0436     5.2488     0.1633    69.7600     5.1791    -0.0062
  220    4.380   2084.98     4.5579     0.0058    -0.0141     0.0438     4.5545     0.1204    70.0800     4.4844    -0.0116
  221    4.400   2085.99     3.9464     0.0059    -0.0147     0.0440     3.9391     0.1438    70.4000     3.8687    -0.0159
  222    4.420   2087.08     3.2160     0.0081    -0.0019     0.0442     3.2120     0.2328    70.7200     3.1412    -0.0171
  223    4.440   2088.01     2.7481     0.0112     0.0223     0.0444     2.7550     0.3882    71.0400     2.6840    -0.0103
  224    4.460   2088.88     2.5060     0.0138     0.0556     0.0446     2.5246     0.5427    71.3600     2.4532    -0.0001
  225    4.480   2089.75     2.5036     0.0144     0.0874     0.0448     2.5368     0.5776    71.6800     2.4651     0.0139
  226    4.500   2090.74     2.7028     0.0143     0.1078     0.0450     2.7459     0.5385    72.0000     2.6739     0.0215
  227    4.520   2091.77     2.9905     0.0117     0.0975     0.0452     3.0352     0.4072    72.3200     2.9629     0.0207
  228    4.540   2092.74     3.5845     0.0105     0.0646     0.0454     3.6164     0.3187    72.6400     3.5437     0.0087
  229    4.560   2093.73     4.3459     0.0104     0.0272     0.0456     4.3635     0.2543    72.9600     4.2905    -0.0008
  230    4.580   2094.82     4.9020     0.0121    -0.0066     0.0458     4.9004     0.2511    73.2800     4.8271    -0.0103
  231    4.600   2096.71     4.4017     0.0116     0.0369     0.0460     4.4167     0.2630    73.6000     4.3431    -0.0024
  232    4.620   2097.55     4.8232     0.0160     0.0267     0.0462     4.8325     0.3300    73.9200     4.7586    -0.0050
  233    4.640   2098.43     4.7054     0.0185     0.0404     0.0464     4.7210     0.3880    74.2400     4.6468    -0.0020
  234    4.660   2099.45     4.5205     0.0164     0.0473     0.0466     4.5405     0.3591    74.5600     4.4660     0.0002
  235    4.680   2100.61     4.5120     0.0146     0.0230     0.0468     4.5271     0.3238    74.8800     4.4522    -0.0024
  236    4.700   2101.65     4.3998     0.0135    -0.0101     0.0470     4.3995     0.3057    75.2000     4.3243    -0.0111
  237    4.720   2102.59     3.9986     0.0118    -0.0182     0.0472     3.9909     0.2776    75.5200     3.9153    -0.0168
  238    4.740   2103.64     3.9020     0.0101     0.0003     0.0474     3.8988     0.2494    75.8400     3.8230    -0.0144
  239    4.760   2104.74     4.3310     0.0098     0.0204     0.0476     4.3363     0.2372    76.1600     4.2602    -0.0082
  240    4.780   2106.17     4.4252     0.0102     0.0530     0.0478     4.4440     0.2171    76.4800     4.3675    -0.0006
  241    4.800   2116.80     4.5637     0.0117     0.0511     0.0480     4.5858     0.2603    76.8000     4.5090     0.0011
  242    4.820   2140.28     4.7710     0.0120     0.0459     0.0482     4.7910     0.2682    77.1200     4.7139     0.0000
  243    4.840   2163.76     4.9784     0.0109     0.0408     0.0484     4.9962     0.2438    77.4400     4.9188    -0.0011
  244    4.860   2181.06     5.1593     0.0104     0.0314     0.0486     5.1742     0.2018    77.7600     5.0965    -0.0026
  245    4.880   2181.68     5.2263     0.0103     0.0170     0.0488     5.2356     0.1982    78.0800     5.1575    -0.0052
  246    4.900   2182.30     5.1993     0.0102     0.0068     0.0490     5.2029     0.1943    78.4000     5.1245    -0.0079
  247    4.920   2182.96     5.1106     0.0103     0.0101     0.0492     5.1136     0.1997    78.7200     5.0349    -0.0084
  248    4.940   2183.60     5.1087     0.0094     0.0152     0.0494     5.1146     0.1838    79.0400     5.0355    -0.0071
  249    4.960   2184.15     5.1056     0.0081     0.0175     0.0496     5.1127     0.1581    79.3600     5.0333    -0.0065
  250    4.980   2184.79     5.0945     0.0076     0.0109     0.0498     5.0986     0.1492    79.6800     5.0189    -0.0080
  251    5.000   2185.57     4.9290     0.0099     0.0316     0.0500     4.9387     0.1963    80.0000     4.8587    -0.0055
  252    5.020   2186.26     4.9193     0.0143     0.0300     0.0502     4.9326     0.2892    80.3200     4.8523    -0.0038
  253    5.040   2186.83     4.9246     0.0188     0.0253     0.0504     4.9336     0.3821    80.6400     4.8530    -0.0060
  254    5.060   2187.34     4.9115     0.0200     0.0425     0.0506     4.9272     0.4070    80.9600     4.8462    -0.0027
  255    5.080   2187.89     4.9949     0.0208     0.0566     0.0508     5.0165     0.4211    81.2800     4.9352     0.0001
  256    5.100   2191.70     5.0814     0.0222     0.0586     0.0510     5.1075     0.4435    81.6000     5.0259     0.0022
  257    5.120   2210.79     5.2602     0.0225     0.0485     0.0512     5.2820     0.4449    81.9200     5.2001     0.0003
  258    5.140   2229.88     5.4389     0.0214     0.0384     0.0514     5.4565     0.4233    82.2400     5.3742    -0.0017
  259    5.160   2241.43     5.5940     0.0222     0.0345     0.0516     5.6098     0.4093    82.5600     5.5273    -0.0025
  260    5.180   2242.67     5.6320     0.0240     0.0388     0.0518     5.6477     0.4266    82.8800     5.5648    -0.0026
  261    5.200   2243.68     5.6580     0.0262     0.0424     0.0520     5.6754     0.4649    83.2000     5.5922    -0.0019
  262    5.220   2244.52     5.6328     0.0278     0.0453     0.0522     5.6517     0.4927    83.5200     5.5682    -0.0013
  263    5.240   2245.38     5.6206     0.0286     0.0508     0.0524     5.6411     0.5083    83.8400     5.5572    -0.0007
  264    5.260   2246.42     5.6600     0.0282     0.0541     0.0526     5.6828     0.4979    84.1600     5.5986     0.0003
  265    5.280   2247.28     5.6370     0.0270     0.0529     0.0528     5.6592     0.4798    84.4800     5.5747     0.0000
  266    5.300   2255.61     5.6088     0.0255     0.0559     0.0530     5.6317     0.4534    84.8000     5.5469     0.0003
  267    5.320   2276.22     5.5751     0.0251     0.0596     0.0532     5.5996     0.4464    85.1200     5.5144     0.0009
  268    5.340   2296.83     5.5413     0.0236     0.0631     0.0534     5.5674     0.4217    85.4400     5.4820     0.0016
  269    5.360   2298.38     5.5591     0.0235     0.0630     0.0536     5.5854     0.4228    85.7600     5.4996     0.0017
  270    5.380   2299.62     5.6488     0.0232     0.0609     0.0538     5.6747     0.4143    86.0800     5.5886     0.0014
  271    5.400   2300.76     5.7831     0.0228     0.0586     0.0540     5.8081     0.3969    86.4000     5.7217     0.0010
  272    5.420   2301.96     5.9277     0.0227     0.0586     0.0542     5.9522     0.3830    86.7200     5.8655     0.0007
  273    5.440   2303.07     5.9406     0.0231     0.0559     0.0544     5.9637     0.3889    87.0400     5.8766     0.0001
  274    5.460   2304.30     5.8510     0.0231     0.0593     0.0546     5.8765     0.3936    87.3600     5.7891     0.0010
  275    5.480   2305.30     5.7117     0.0238     0.0624     0.0548     5.7376     0.4124    87.6800     5.6499     0.0012
  276    5.500   2306.38     5.6177     0.0265     0.0639     0.0550     5.6438     0.4691    88.0000     5.5558     0.0013
  277    5.520   2307.46     5.4841     0.0265     0.0666     0.0552     5.5113     0.4795    88.3200     5.4230     0.0018
  278    5.540   2308.54     5.4076     0.0283     0.0653     0.0554     5.4356     0.5222    88.6400     5.3469     0.0021
  279    5.560   2309.59     5.3034     0.0296     0.0632     0.0556     5.3300     0.5538    88.9600     5.2410     0.0015
  280    5.580   2310.57     5.1709     0.0298     0.0622     0.0558     5.1969     0.5739    89.2800     5.1076     0.0012
  281    5.600   2311.48     4.9957     0.0290     0.0628     0.0560     5.0214     0.5771    89.6000     4.9318     0.0011
  282    5.620   2312.56     4.8001     0.0279     0.0648     0.0562     4.8269     0.5739    89.9200     4.7370     0.0016
  283    5.640   2313.63     4.6833     0.0265     0.0642     0.0564     4.7105     0.5645    90.2400     4.6203     0.0018
  284    5.660   2314.64     4.6164     0.0247     0.0584     0.0566     4.6417     0.5330    90.5600     4.5512     0.0008
  285    5.680   2315.59     4.5652     0.0230     0.0604     0.0568     4.5899     0.5031    90.8800     4.4990     0.0005
  286    5.700   2316.46     4.5758     0.0224     0.0623     0.0570     4.6013     0.4908    91.2000     4.5101     0.0008
  287    5.720   2317.55     4.6279     0.0229     0.0639     0.0572     4.6545     0.4958    91.5200     4.5629     0.0013
  288    5.740   2318.62     4.7734     0.0256     0.0654     0.0574     4.8008     0.5368    91.8400     4.7089     0.0017
  289    5.760   2319.48     4.9628     0.0283     0.0634     0.0576     4.9899     0.5826    92.1600     4.8978     0.0014
  290    5.780   2320.54     5.2383     0.0295     0.0612     0.0578     5.2643     0.5642    92.4800     5.1718     0.0008
  291    5.800   2321.61     5.4754     0.0289     0.0606     0.0580     5.5008     0.5317    92.8000     5.4080     0.0005
  292    5.820   2322.61     5.7014     0.0295     0.0624     0.0582     5.7269     0.5201    93.1200     5.6338     0.0005
  293    5.840   2323.65     6.0120     0.0311     0.0652     0.0584     6.0390     0.5195    93.4400     5.9455     0.0010
  294    5.860   2324.64     6.3995     0.0323     0.0635     0.0586     6.4264     0.5139    93.7600     6.3326     0.0009
  295    5.880   2325.57     6.8359     0.0334     0.0633     0.0588     6.8626     0.5041    94.0800     6.7685     0.0007
  296    5.900   2326.57     7.3170     0.0342     0.0634     0.0590     7.3436     0.4824    94.4000     7.2492     0.0006
  297    5.920   2327.60     7.8888     0.0360     0.0632     0.0592     7.9154     0.4650    94.7200     7.8207     0.0005
  298    5.940   2328.63     8.5875     0.0369     0.0616     0.0594     8.6137     0.4420    95.0400     8.5186     0.0003
  299    5.960   2329.74     9.1895     0.0384     0.0615     0.0596     9.2153     0.4195    95.3600     9.1200     0.0002
  300    5.980   2330.73     9.4106     0.0397     0.0621     0.0598     9.4365     0.4249    95.6800     9.3408     0.0002
  301    6.000   2331.75     9.5468     0.0425     0.0629     0.0600     9.5733     0.4467    96.0000     9.4773     0.0003
  302    6.020   2332.75     9.6753     0.0448     0.0629     0.0602     9.7015     0.4646    96.3200     9.6052     0.0002
  303    6.040   2333.70     9.6822     0.0461     0.0633     0.0604     9.7089     0.4763    96.6400     9.6123     0.0003
  304    6.060   2334.75     9.6931     0.0468     0.0607     0.0606     9.7188     0.4839    96.9600     9.6218     0.0001
  305    6.080   2335.85     9.6979     0.0450     0.0635     0.0608     9.7245     0.4642    97.2800     9.6272     0.0003
  306    6.100   2336.81     9.6747     0.0451     0.0615     0.0610     9.7008     0.4651    97.6000     9.6032     0.0001
  307    6.120   2337.83     9.5606     0.0480     0.0565     0.0612     9.5858     0.5011    97.9200     9.4878    -0.0001
  308    6.140   2338.85     9.3573     0.0489     0.0588     0.0614     9.3802     0.5207    98.2400     9.2819    -0.0007
  309    6.160   2339.88     9.2228     0.0480     0.0647     0.0616     9.2488     0.5199    98.5600     9.1502     0.0000
  310    6.180   2340.84     9.0510     0.0459     0.0686     0.0618     9.0790     0.5026    98.8800     8.9802     0.0006
  311    6.200   2341.85     9.0216     0.0468     0.0693     0.0620     9.0500     0.5200    99.2000     8.9508     0.0006
  312    6.220   2342.85     8.9869     0.0460     0.0635     0.0622     9.0136     0.5118    99.5200     8.9141     0.0002
  313    6.240   2343.81     8.9015     0.0424     0.0567     0.0624     8.9274     0.4739    99.8400     8.8275    -0.0001
  314    6.260   2344.85     8.7310     0.0382     0.0556     0.0626     8.7527     0.4353   100.1600     8.6526    -0.0013
  315    6.280   2345.95     8.5417     0.0341     0.0544     0.0628     8.5654     0.3979   100.4800     8.4649    -0.0007
  316    6.300   2346.94     8.4068     0.0317     0.0443     0.0630     8.4255     0.3751   100.8000     8.3247    -0.0022
  317    6.320   2347.97     8.2667     0.0299     0.0498     0.0632     8.2863     0.3610   101.1200     8.1852    -0.0020
  318    6.340   2348.89     8.2301     0.0271     0.0541     0.0634     8.2520     0.3292   101.4400     8.1506    -0.0014
  319    6.360   2349.90     8.4168     0.0241     0.0564     0.0636     8.4401     0.2895   101.7600     8.3383    -0.0010
  320    6.380   2350.96     8.7014     0.0222     0.0564     0.0638     8.7252     0.2581   102.0800     8.6232    -0.0008
  321    6.400   2352.01     9.1327     0.0222     0.0481     0.0640     9.1535     0.2459   102.4000     9.0511    -0.0016
  322    6.420   2353.03     9.6822     0.0226     0.0359     0.0642     9.7022     0.2397   102.7200     9.5995    -0.0017
  323    6.440   2354.03    10.2331     0.0238     0.0414     0.0644    10.2478     0.2368   103.0400    10.1448    -0.0029
  324    6.460   2355.06    10.7942     0.0267     0.0508     0.0646    10.8143     0.2534   103.3600    10.7109    -0.0016
  325    6.480   2356.18    11.6633     0.0313     0.0607     0.0648    11.6874     0.2777   103.6800    11.5837    -0.0006
  326    6.500   2357.21    12.7965     0.0348     0.0641     0.0650    12.8229     0.2842   104.0000    12.7189    -0.0002
  327    6.520   2358.09    13.8484     0.0397     0.0637     0.0652    13.8763     0.2916   104.3200    13.7720     0.0001
  328    6.540   2359.09    14.7406     0.0432     0.0656     0.0654    14.7678     0.2965   104.6400    14.6632     0.0000
  329    6.560   2360.14    15.4911     0.0453     0.0641     0.0656    15.5186     0.2966   104.9600    15.4136     0.0000
  330    6.580   2361.32    16.2332     0.0491     0.0618     0.0658    16.2593     0.3076   105.2800    16.1540    -0.0002
  331    6.600   2362.38    16.5231     0.0548     0.0637     0.0660    16.5494     0.3328   105.6000    16.4438    -0.0002
  332    6.620   2363.41    16.6470     0.0568     0.0662     0.0662    16.6742     0.3419   105.9200    16.5682    -0.0001
  333    6.640   2364.52    16.6140     0.0587     0.0646     0.0664    16.6410     0.3536   106.2400    16.5347    -0.0001
  334    6.660   2365.40    16.6746     0.0636     0.0646     0.0666    16.7007     0.3821   106.5600    16.5941    -0.0003
  335    6.680   2366.39    16.8480     0.0604     0.0673     0.0668    16.8762     0.3595   106.8800    16.7693     0.0000
  336    6.700   2367.65    16.8251     0.0593     0.0682     0.0670    16.8532     0.3508   107.2000    16.7460     0.0000
  337    6.720   2368.60    16.5994     0.0591     0.0666     0.0672    16.6276     0.3534   107.5200    16.5200     0.0000
  338    6.740   2369.54    16.1100     0.0590     0.0670     0.0674    16.1382     0.3598   107.8400    16.0304     0.0000
  339    6.760   2370.65    15.1442     0.0595     0.0691     0.0676    15.1733     0.3870   108.1600    15.0652     0.0001
  340    6.780   2371.75    14.0854     0.0592     0.0703     0.0678    14.1143     0.4093   108.4800    14.0058     0.0001
  341    6.800   2372.83    12.9655     0.0583     0.0727     0.0680    12.9958     0.4385   108.8000    12.8870     0.0003
  342    6.820   2373.77    11.9459     0.0559     0.0735     0.0682    11.9765     0.4631   109.1200    11.8674     0.0004
  343    6.840   2374.69    11.0228     0.0514     0.0747     0.0684    11.0542     0.4553   109.4400    10.9448     0.0006
  344    6.860   2375.70    10.1151     0.0441     0.0750     0.0686    10.1462     0.4235   109.7600    10.0364     0.0005
  345    6.880   2376.79     9.3400     0.0384     0.0771     0.0688     9.3720     0.3970   110.0800     9.2620     0.0008
  346    6.900   2377.86     8.6400     0.0328     0.0794     0.0690     8.6729     0.3669   110.4000     8.5625     0.0011
  347    6.920   2378.76     8.1382     0.0309     0.0816     0.0692     8.1721     0.3735   110.7200     8.0614     0.0014
  348    6.940   2379.78     7.7113     0.0274     0.0805     0.0694     7.7458     0.3534   111.0400     7.6347     0.0017
  349    6.960   2380.94     7.2521     0.0251     0.0879     0.0696     7.2864     0.3425   111.3600     7.1751     0.0017
  350    6.980   2381.93     6.8546     0.0268     0.0827     0.0698     6.8902     0.3876   111.6800     6.7785     0.0022
  351    7.000   2382.94     6.4957     0.0298     0.0861     0.0700     6.5304     0.4555   112.0000     6.4184     0.0020
  352    7.020   2383.86     6.0412     0.0356     0.0936     0.0702     6.0802     0.5860   112.3200     5.9679     0.0038
  353    7.040   2384.83     5.5005     0.0444     0.1038     0.0704     5.5441     0.7952   112.6400     5.4314     0.0061
  354    7.060   2385.80     4.7378     0.0514     0.1161     0.0706     4.7833     1.0749   112.9600     4.6703     0.0081
  355    7.080   2386.90     3.8179     0.0505     0.1415     0.0708     3.8731     1.2822   113.2800     3.7598     0.0162
  356    7.100   2387.91     3.1201     0.0469     0.1878     0.0710     3.1874     1.4683   113.6000     3.0738     0.0292
  357    7.120   2388.89     2.5857     0.0428     0.2387     0.0712     2.6789     1.6275   113.9200     2.5650     0.0588
  358    7.140   2389.89     2.0771     0.0390     0.3468     0.0714     2.2003     1.7804   114.2400     2.0860     0.1065
  359    7.160   2390.84     1.9152     0.0376     0.4383     0.0716     2.0726     1.7154   114.5600     1.9581     0.1548
  360    7.180   2391.84     2.4196     0.0372     0.3878     0.0718     2.6119     1.5631   114.8800     2.4970     0.1552
  361    7.200   2392.89     3.5628     0.0330     0.2244     0.0720     3.6791     1.0327   115.2000     3.5639     0.0577
  362    7.220   2393.93     4.4638     0.0325     0.1538     0.0722     4.5343     0.7376   115.5200     4.4188     0.0217
  363    7.240   2394.80     4.7133     0.0361     0.0930     0.0724     4.7668     0.7875   115.8400     4.6510     0.0119
  364    7.260   2403.15     4.5085     0.0417     0.0685     0.0726     4.5364     0.8877   116.1600     4.4202    -0.0013
  365    7.280   2421.16     4.0664     0.0429     0.0751     0.0728     4.0970     0.9132   116.4800     3.9805     0.0002
  366    7.300   2436.15     3.5540     0.0416     0.1097     0.0730     3.5913     1.1371   116.8000     3.4745     0.0047
  367    7.320   2437.03     3.0821     0.0443     0.1505     0.0732     3.1422     1.4319   117.1200     3.0251     0.0231
  368    7.340   2437.98     3.0556     0.0473     0.1679     0.0734     3.1222     1.5497   117.4400     3.0048     0.0283
  369    7.360   2439.01     3.0736     0.0464     0.1078     0.0736     3.1328     1.5161   117.7600     3.0151     0.0225
  370    7.380   2440.16     3.2736     0.0425     0.0935     0.0738     3.3201     1.3320   118.0800     3.2020     0.0116
  371    7.400   2441.15     3.4064     0.0364     0.0682     0.0740     3.4354     1.0699   118.4000     3.3170    -0.0015
  372    7.420   2442.05     3.2153     0.0313     0.1140     0.0742     3.2540     0.9661   118.7200     3.1353     0.0059
  373    7.440   2442.89     2.8110     0.0302     0.1457     0.0744     2.8674     1.0361   119.0400     2.7484     0.0218
  374    7.460   2443.84     2.4608     0.0344     0.1687     0.0746     2.5311     1.3734   119.3600     2.4118     0.0385
  375    7.480   2444.76     2.2443     0.0400     0.1907     0.0748     2.3160     1.7150   119.6800     2.1963     0.0437
  376    7.500   2445.96     2.0777     0.0395     0.2058     0.0750     2.1653     1.9028   120.0000     2.0453     0.0653
  377    7.520   2447.06     2.0854     0.0355     0.1609     0.0752     2.1650     1.7107   120.3200     2.0447     0.0559
  378    7.540   2448.23     1.9622     0.0350     0.2019     0.0754     2.0329     1.7119   120.6400     1.9122     0.0486
  379    7.560   2455.40     1.9712     0.0333     0.1708     0.0756     2.0474     1.7773   120.9600     1.9265     0.0558
  380    7.580   2463.26     2.0881     0.0374     0.1714     0.0758     2.1513     1.8246   121.2800     2.0300     0.0368
  381    7.600   2464.52     2.1088     0.0372     0.2249     0.0760     2.2004     1.8019   121.6000     2.0788     0.0683
  382    7.620   2465.52     2.1783     0.0344     0.2209     0.0762     2.2729     1.5913   121.9200     2.1510     0.0693
  383    7.640   2466.34     2.3352     0.0336     0.1941     0.0764     2.4253     1.5166   122.2400     2.3031     0.0600
  384    7.660   2467.44     2.7764     0.0335     0.1465     0.0766     2.8406     1.2424   122.5600     2.7181     0.0281
  385    7.680   2468.35     3.1161     0.0335     0.1294     0.0768     3.1740     1.1142   122.8800     3.0511     0.0200
  386    7.700   2469.48     3.2810     0.0344     0.1201     0.0770     3.3342     1.0532   123.2000     3.2110     0.0154
  387    7.720   2470.56     3.2895     0.0358     0.1155     0.0772     3.3354     1.0833   123.5200     3.2119     0.0100
  388    7.740   2471.43     3.1846     0.0392     0.1385     0.0774     3.2395     1.2223   123.8400     3.1157     0.0171
  389    7.760   2472.34     3.0379     0.0454     0.1833     0.0776     3.1065     1.4852   124.1600     2.9823     0.0288
  390    7.780   2473.25     3.0818     0.0514     0.2034     0.0778     3.1651     1.6883   124.4800     3.0406     0.0396
  391    7.800   2474.26     3.4952     0.0513     0.1988     0.0780     3.5866     1.5829   124.8000     3.4618     0.0404
  392    7.820   2475.34     4.6094     0.0470     0.0938     0.0782     4.6711     1.1588   125.1200     4.5460     0.0152
  393    7.840   2476.44     6.0589     0.0457    -0.0204     0.0784     6.0635     0.7714   125.4400     5.9380    -0.0113
  394    7.860   2477.36     7.0698     0.0501    -0.0797     0.0786     7.0423     0.7230   125.7600     6.9165    -0.0208
  395    7.880   2478.51     7.8260     0.0586    -0.0869     0.0788     7.7889     0.7644   126.0800     7.6628    -0.0218
  396    7.900   2479.57     8.1908     0.0774    -0.0915     0.0790     8.1532     0.9530   126.4000     8.0268    -0.0210
  397    7.920   2480.49     8.3475     0.0869    -0.0733     0.0792     8.3127     1.0459   126.7200     8.1859    -0.0198
  398    7.940   2481.42     8.4545     0.0796    -0.0468     0.0794     8.4303     0.9427   127.0400     8.3033    -0.0165
  399    7.960   2482.36     8.5707     0.0778    -0.0149     0.0796     8.5609     0.9117   127.3600     8.4335    -0.0122
  400    7.980   2483.31     8.5499     0.0754     0.0143     0.0798     8.5522     0.8824   127.6800     8.4245    -0.0088
  401    8.000   2484.33     8.6003     0.0698     0.0085     0.0800     8.6081     0.8187   128.0000     8.4801    -0.0072
  402    8.020   2485.56     8.9938     0.0611    -0.0138     0.0802     8.9907     0.6852   128.3200     8.8624    -0.0099
  403    8.040   2486.52     9.0675     0.0546    -0.0543     0.0804     9.0513     0.6005   128.6400     8.9227    -0.0133
  404    8.060   2487.58     8.9515     0.0542    -0.0869     0.0806     8.9210     0.6033   128.9600     8.7921    -0.0174
  405    8.080   2488.62     9.1557     0.0588    -0.1228     0.0808     9.1065     0.6468   129.2800     8.9772    -0.0221
  406    8.100   2489.55     9.1776     0.0630    -0.1294     0.0810     9.1231     0.6864   129.6000     8.9935    -0.0234
  407    8.120   2490.40     9.1530     0.0684    -0.1152     0.0812     9.1010     0.7472   129.9200     8.9711    -0.0229
  408    8.140   2491.31     9.0926     0.0701    -0.1021     0.0814     9.0477     0.7658   130.2400     8.9175    -0.0211
  409    8.160   2492.58     8.7886     0.0693    -0.0801     0.0816     8.7506     0.7826   130.5600     8.6201    -0.0200
  410    8.180   2493.70     8.2990     0.0729    -0.0640     0.0818     8.2697     0.8660   130.8800     8.1388    -0.0186
  411    8.200   2494.63     7.7051     0.0814    -0.0497     0.0820     7.6824     1.0395   131.2000     7.5512    -0.0180
  412    8.220   2495.50     6.9880     0.0860    -0.0371     0.0822     6.9716     1.2149   131.5200     6.8401    -0.0177
  413    8.240   2496.41     6.1208     0.0879    -0.0285     0.0824     6.1064     1.3382   131.8400     5.9746    -0.0195
  414    8.260   2497.51     5.2176     0.0830    -0.0075     0.0826     5.2105     1.5657   132.1600     5.0783    -0.0196
  415    8.280   2498.54     4.5661     0.0792     0.0438     0.0828     4.5753     1.7076   132.4800     4.4429    -0.0136
  416    8.300   2499.59     4.0877     0.0715     0.0962     0.0830     4.1202     1.7193   132.8000     3.9874    -0.0013
  417    8.320   2500.53     3.8769     0.0595     0.1278     0.0832     3.9272     1.5269   133.1200     3.7941     0.0096
  418    8.340   2501.54     3.9030     0.0453     0.1236     0.0834     3.9515     1.1634   133.4400     3.8181     0.0084
  419    8.360   2502.57     3.8910     0.0526     0.1286     0.0836     3.9436     1.3348   133.7600     3.8098     0.0109
  420    8.380   2503.52     3.5456     0.0534     0.1407     0.0838     3.5985     1.4723   134.0800     3.4644     0.0122
  421    8.400   2504.56     3.1447     0.0518     0.1815     0.0840     3.2156     1.6064   134.4000     3.0812     0.0276
  422    8.420   2505.52     2.7598     0.0531     0.2241     0.0842     2.8484     1.8952   134.7200     2.7137     0.0469
  423    8.440   2506.50     2.3116     0.0560     0.2811     0.0844     2.4203     2.2017   135.0400     2.2853     0.0765
  424    8.460   2507.51     2.0508     0.0533     0.3555     0.0846     2.1881     2.5502   135.3600     2.0528     0.1184
  425    8.480   2508.44     1.8572     0.0489     0.4236     0.0848     2.0328     2.5556   135.6800     1.8972     0.1757
  426    8.500   2509.30     1.8053     0.0406     0.4117     0.0850     1.9776     2.2357   136.0000     1.8416     0.1766
  427    8.520   2510.45     1.7671     0.0345     0.3718     0.0852     1.9318     1.9489   136.3200     1.7955     0.1709
  428    8.540   2511.55     1.6878     0.0312     0.3800     0.0854     1.8509     1.8321   136.6400     1.7143     0.1767
  429    8.560   2512.52     1.6255     0.0286     0.3837     0.0856     1.7838     1.7319   136.9600     1.6469     0.1769
  430    8.580   2513.35     1.5434     0.0263     0.4001     0.0858     1.7055     1.6722   137.2800     1.5682     0.1913
  431    8.600   2514.17     1.4489     0.0235     0.4068     0.0860     1.6228     1.6093   137.6000     1.4852     0.2210
  432    8.620   2515.44     1.4037     0.0227     0.3503     0.0862     1.5573     1.6092   137.9200     1.4194     0.1970
  433    8.640   2516.39     1.3227     0.0268     0.3157     0.0864     1.4620     2.0154   138.2400     1.3238     0.1854
  434    8.660   2517.29     1.2995     0.0279     0.3348     0.0866     1.4380     2.1581   138.5600     1.2995     0.1870
  435    8.680   2518.16     1.3257     0.0281     0.2985     0.0868     1.4579     2.1198   138.8800     1.3190     0.1728
  436    8.700   2519.20     1.2557     0.0269     0.2714     0.0870     1.3754     2.1137   139.2000     1.2362     0.1602
  437    8.720   2520.26     1.1726     0.0250     0.2299     0.0872     1.2793     2.0425   139.5200     1.1398     0.1465
  438    8.740   2521.46     1.3007     0.0247     0.2453     0.0874     1.3914     1.9468   139.8400     1.2516     0.1025
  439    8.760   2522.32     1.3831     0.0246     0.3422     0.0876     1.5148     1.8215   140.1600     1.3746     0.1641
  440    8.780   2523.10     1.3964     0.0243     0.4190     0.0878     1.5613     1.7297   140.4800     1.4208     0.2146
  441    8.800   2524.07     1.3174     0.0221     0.4686     0.0880     1.5095     1.6543   140.8000     1.3687     0.2699
  442    8.820   2525.27     1.2702     0.0204     0.5000     0.0882     1.4724     1.5994   141.1200     1.3313     0.2955
  443    8.840   2526.44     1.2160     0.0209     0.5363     0.0884     1.4386     1.6975   141.4400     1.2972     0.3404
  444    8.860   2527.15     1.1791     0.0210     0.5436     0.0886     1.4066     1.7752   141.7600     1.2649     0.3583
  445    8.880   2527.98     1.0978     0.0202     0.5622     0.0888     1.3371     1.7577   142.0800     1.1950     0.4025
  446    8.900   2528.93     1.0317     0.0194     0.5244     0.0890     1.2629     1.8727   142.4000     1.1205     0.4118
  447    8.920   2530.18     1.0290     0.0180     0.4959     0.0892     1.2370     1.7508   142.7200     1.0943     0.3710
  448    8.940   2531.30     1.0315     0.0178     0.5117     0.0894     1.2444     1.7178   143.0400     1.1014     0.3791
  449    8.960   2532.23     1.0876     0.0196     0.5135     0.0896     1.3034     1.8297   143.3600     1.1600     0.3658
  450    8.980   2533.17     1.1984     0.0201     0.5234     0.0898     1.4149     1.6976   143.6800     1.2712     0.3351
  451    9.000   2534.07     1.2432     0.0197     0.5389     0.0900     1.4705     1.5994   144.0000     1.3265     0.3401
  452    9.020   2535.04     1.2569     0.0187     0.5758     0.0902     1.4905     1.4803   144.3200     1.3462     0.3462
  453    9.040   2535.97     1.2283     0.0188     0.5855     0.0904     1.4732     1.5201   144.6400     1.3286     0.3709
  454    9.060   2537.14     1.1863     0.0188     0.5842     0.0906     1.4325     1.5644   144.9600     1.2876     0.3850
  455    9.080   2538.18     1.1450     0.0176     0.5865     0.0908     1.3908     1.5208   145.2800     1.2456     0.3970
  456    9.100   2539.10     1.1145     0.0177     0.5639     0.0910     1.3585     1.5735   145.6000     1.2129     0.4038
  457    9.120   2540.07     1.0776     0.0180     0.5391     0.0912     1.3056     1.6664   145.9200     1.1597     0.3896
  458    9.140   2541.19     1.0282     0.0185     0.5400     0.0914     1.2540     1.7818   146.2400     1.1078     0.4030
  459    9.160   2542.08     0.9872     0.0164     0.5518     0.0916     1.2168     1.6287   146.5600     1.0702     0.4253
  460    9.180   2542.94     0.9691     0.0172     0.5707     0.0918     1.2060     1.7507   146.8800     1.0591     0.4459
  461    9.200   2543.83     0.9709     0.0170     0.5917     0.0920     1.2144     1.7438   147.2000     1.0672     0.4570
  462    9.220   2545.05     0.9625     0.0167     0.5777     0.0922     1.2068     1.7357   147.5200     1.0593     0.4621
  463    9.240   2546.07     0.9904     0.0168     0.5570     0.0924     1.2282     1.7082   147.8400     1.0803     0.4385
  464    9.260   2548.24     0.8864     0.0175     0.5567     0.0926     1.1216     1.7597   148.1600     0.9734     0.4804
  465    9.280   2570.98     0.9364     0.0172     0.5311     0.0928     1.1632     2.0453   148.4800     1.0147     0.4443
  466    9.300   2591.50     1.0125     0.0181     0.5356     0.0930     1.2321     1.8086   148.8000     1.0833     0.3968
  467    9.320   2592.39     1.0178     0.0197     0.5497     0.0932     1.2461     1.9380   149.1200     1.0970     0.4106
  468    9.340   2593.50     1.0457     0.0198     0.5279     0.0934     1.2669     1.8971   149.4400     1.1174     0.3877
  469    9.360   2594.56     1.0437     0.0201     0.5578     0.0936     1.2727     1.9273   149.7600     1.1229     0.4021
  470    9.380   2595.53     1.0437     0.0204     0.5021     0.0938     1.2736     1.9792   150.0800     1.1235     0.4039
  471    9.400   2596.44     1.0197     0.0209     0.4936     0.0940     1.2285     2.0016   150.4000     1.0781     0.3738
  472    9.420   2597.46     1.0122     0.0215     0.5310     0.0942     1.2305     2.1228   150.7200     1.0798     0.3941
  473    9.440   2598.47     1.0116     0.0214     0.5687     0.0944     1.2464     2.1080   151.0400     1.0954     0.4241
  474    9.460   2599.46     1.0000     0.0220     0.6057     0.0946     1.2494     2.1961   151.3600     1.0981     0.4547
  475    9.480   2600.35     0.9937     0.0212     0.6358     0.0948     1.2564     2.1326   151.6800     1.1047     0.4803
  476    9.500   2601.37     0.9924     0.0206     0.6581     0.0950     1.2666     2.0739   152.0000     1.1146     0.5005
  477    9.520   2602.31     0.9933     0.0207     0.6706     0.0952     1.2742     2.0772   152.3200     1.1219     0.5113
  478    9.540   2603.33     0.9973     0.0205     0.6828     0.0954     1.2810     2.0687   152.6400     1.1283     0.5141
  479    9.560   2604.52     0.9983     0.0200     0.6933     0.0956     1.2879     2.0035   152.9600     1.1349     0.5234
  480    9.580   2605.33     0.9989     0.0201     0.6950     0.0958     1.2901     2.0238   153.2800     1.1368     0.5255
  481    9.600   2606.25     1.0077     0.0200     0.7088     0.0960     1.3030     1.9888   153.6000     1.1494     0.5281
  482    9.620   2607.15     1.0060     0.0198     0.7239     0.0962     1.3080     1.9651   153.9200     1.1541     0.5398
  483    9.640   2608.23     1.0166     0.0198     0.7217     0.0964     1.3223     1.9672   154.2400     1.1680     0.5406
  484    9.660   2609.39     1.0396     0.0201     0.7149     0.0966     1.3405     1.9439   154.5600     1.1860     0.5227
  485    9.680   2610.20     1.0338     0.0199     0.7127     0.0968     1.3337     1.9183   154.8800     1.1788     0.5236
  486    9.700   2611.17     1.0346     0.0201     0.7048     0.0970     1.3313     1.9433   155.2000     1.1761     0.5181
  487    9.720   2612.21     1.0419     0.0199     0.6943     0.0972     1.3353     1.9190   155.5200     1.1798     0.5097
  488    9.740   2613.23     1.0423     0.0198     0.6965     0.0974     1.3337     1.8935   155.8400     1.1779     0.5064
  489    9.760   2614.21     1.0412     0.0200     0.7034     0.0976     1.3361     1.9168   156.1600     1.1799     0.5123
  490    9.780   2615.07     1.0474     0.0200     0.7108     0.0978     1.3443     1.9087   156.4800     1.1878     0.5127
  491    9.800   2616.07     1.0449     0.0198     0.7194     0.0980     1.3471     1.8877   156.8000     1.1903     0.5222
  492    9.820   2617.00     1.0334     0.0200     0.6872     0.0982     1.3297     1.9355   157.1200     1.1726     0.5178
  493    9.840   2618.17     1.0211     0.0198     0.6551     0.0984     1.2969     1.9369   157.4400     1.1395     0.4899
  494    9.860   2619.30     1.0328     0.0196     0.6745     0.0986     1.3142     1.9027   157.7600     1.1564     0.4940
  495    9.880   2620.04     1.0431     0.0200     0.6928     0.0988     1.3302     1.9198   158.0800     1.1721     0.4989
  496    9.900   2620.94     1.0484     0.0204     0.7111     0.0990     1.3455     1.9458   158.4000     1.1871     0.5126
  497    9.920   2621.81     1.0522     0.0203     0.7035     0.0992     1.3507     1.9301   158.7200     1.1920     0.5129
  498    9.940   2622.98     1.0374     0.0202     0.6831     0.0994     1.3234     1.9519   159.0400     1.1644     0.4996
  499    9.960   2624.14     1.0430     0.0198     0.7035     0.0996     1.3339     1.9119   159.3600     1.1745     0.5048
  500    9.980   2625.04     1.0441     0.0196     0.7179     0.0998     1.3448     1.8685   159.6800     1.1851     0.5200
  501   10.000   2625.99     1.0385     0.0197     0.7260     0.1000     1.3423     1.8957   160.0000     1.1823     0.5271
  502   10.020   2626.98     1.0309     0.0195     0.7277     0.1002     1.3387     1.8898   160.3200     1.1784     0.5369
  503   10.040   2628.05     1.0110     0.0192     0.7214     0.1004     1.3150     1.8980   160.6400     1.1543     0.5400
  504   10.060   2628.98     1.0132     0.0191     0.7220     0.1006     1.3187     1.8940   160.9600     1.1578     0.5414
  505   10.080   2629.90     1.0165     0.0194     0.7180     0.1008     1.3185     1.9038   161.2800     1.1572     0.5343
  506   10.100   2630.80     1.0168     0.0193     0.7187     0.1010     1.3170     1.8983   161.6000     1.1554     0.5311
  507   10.120   2631.81     1.0122     0.0193     0.7096     0.1012     1.3123     1.9034   161.9200     1.1504     0.5332
  508   10.140   2632.89     1.0144     0.0193     0.7218     0.1014     1.3128     1.9117   162.2400     1.1505     0.5292
  509   10.160   2633.95     1.0096     0.0193     0.7256     0.1016     1.3150     1.9110   162.5600     1.1524     0.5428
  510   10.180   2634.88     1.0194     0.0191     0.7190     0.1018     1.3206     1.8819   162.8800     1.1577     0.5315
  511   10.200   2635.81     1.0374     0.0196     0.7158     0.1020     1.3392     1.8968   163.2000     1.1760     0.5244
  512   10.220   2636.72     1.0365     0.0197     0.7169     0.1022     1.3365     1.9026   163.5200     1.1730     0.5219
  513   10.240   2637.69     1.0468     0.0197     0.7007     0.1024     1.3451     1.8995   163.8400     1.1813     0.5145
  514   10.260   2638.76     1.0652     0.0199     0.7072     0.1026     1.3597     1.8774   164.1600     1.1955     0.5007
  515   10.280   2639.81     1.0524     0.0200     0.7128     0.1028     1.3513     1.8996   164.4800     1.1868     0.5130
  516   10.300   2640.76     1.0353     0.0199     0.7239     0.1030     1.3388     1.9119   164.8000     1.1740     0.5278
  517   10.320   2641.74     1.0459     0.0197     0.7210     0.1032     1.3495     1.8887   165.1200     1.1844     0.5232
  518   10.340   2642.83     1.0520     0.0198     0.7192     0.1034     1.3548     1.8733   165.4400     1.1893     0.5192
  519   10.360   2643.81     1.0449     0.0203     0.7156     0.1036     1.3483     1.9410   165.7600     1.1825     0.5233
  520   10.380   2644.67     1.0588     0.0204     0.7077     0.1038     1.3557     1.9246   166.0800     1.1896     0.5070
  521   10.400   2645.62     1.0506     0.0200     0.7230     0.1040     1.3515     1.9062   166.4000     1.1851     0.5169
  522   10.420   2646.54     1.0361     0.0199     0.7182     0.1042     1.3406     1.9201   166.7200     1.1738     0.5288
  523   10.440   2647.66     1.0344     0.0195     0.7292     0.1044     1.3382     1.8890   167.0400     1.1711     0.5285
  524   10.460   2648.70     1.0271     0.0195     0.7566     0.1046     1.3407     1.8971   167.3600     1.1734     0.5472
  525   10.480   2649.69     1.0329     0.0190     0.7589     0.1048     1.3529     1.8375   167.6800     1.1852     0.5543
  526   10.500   2650.59     1.0368     0.0188     0.7455     0.1050     1.3517     1.8107   168.0000     1.1837     0.5447
  527   10.520   2651.50     1.0368     0.0192     0.7474     0.1052     1.3505     1.8608   168.3200     1.1822     0.5429
  528   10.540   2652.58     1.0523     0.0196     0.7473     0.1054     1.3676     1.8592   168.6400     1.1990     0.5383
  529   10.560   2653.65     1.0513     0.0195     0.7507     0.1056     1.3657     1.8517   168.9600     1.1968     0.5373
  530   10.580   2654.61     1.0546     0.0199     0.7445     0.1058     1.3663     1.8911   169.2800     1.1971     0.5317
  531   10.600   2655.50     1.0587     0.0200     0.7566     0.1060     1.3750     1.8902   169.6000     1.2054     0.5369
  532   10.620   2656.46     1.0632     0.0195     0.7558     0.1062     1.3833     1.8335   169.9200     1.2134     0.5406
  533   10.640   2657.47     1.0596     0.0194     0.7300     0.1064     1.3689     1.8314   170.2400     1.1986     0.5255
  534   10.660   2658.49     1.0584     0.0197     0.7273     0.1066     1.3657     1.8674   170.5600     1.1952     0.5230
  535   10.680   2659.55     1.0557     0.0198     0.7295     0.1068     1.3626     1.8688   170.8800     1.1917     0.5237
  536   10.700   2660.49     1.0543     0.0193     0.7392     0.1070     1.3631     1.8320   171.2000     1.1919     0.5271
  537   10.720   2661.33     1.0535     0.0189     0.7430     0.1072     1.3662     1.7971   171.5200     1.1947     0.5336
  538   10.740   2662.41     1.0527     0.0189     0.7458     0.1074     1.3662     1.7901   171.8400     1.1944     0.5351
  539   10.760   2663.50     1.0437     0.0190     0.7325     0.1076     1.3508     1.8210   172.1600     1.1787     0.5292
  540   10.780   2664.48     1.0532     0.0189     0.7276     0.1078     1.3604     1.8018   172.4800     1.1880     0.5249
  541   10.800   2665.28     1.0548     0.0190     0.7243     0.1080     1.3595     1.8014   172.8000     1.1867     0.5203
  542   10.820   2666.22     1.0478     0.0190     0.7153     0.1082     1.3490     1.8062   173.1200     1.1759     0.5179
  543   10.840   2667.32     1.0299     0.0193     0.7083     0.1084     1.3319     1.8736   173.4400     1.1584     0.5271
  544   10.860   2668.50     1.0458     0.0192     0.7176     0.1086     1.3423     1.8449   173.7600     1.1685     0.5111
  545   10.880   2669.44     1.0355     0.0188     0.7276     0.1088     1.3389     1.8158   174.0800     1.1648     0.5267
  546   10.900   2670.31     1.0464     0.0187     0.7317     0.1090     1.3523     1.7884   174.4000     1.1779     0.5259
  547   10.920   2671.19     1.0444     0.0183     0.7463     0.1092     1.3562     1.7520   174.7200     1.1814     0.5359
  548   10.940   2672.21     1.0321     0.0177     0.7385     0.1094     1.3432     1.7139   175.0400     1.1681     0.5404
  549   10.960   2673.26     1.0126     0.0176     0.7386     0.1096     1.3243     1.7338   175.3600     1.1489     0.5504
  550   10.980   2674.36     1.0114     0.0170     0.7310     0.1098     1.3199     1.6797   175.6800     1.1442     0.5459
  551   11.000   2675.35     1.0042     0.0168     0.7271     0.1100     1.3098     1.6742   176.0000     1.1338     0.5449
  552   11.020   2676.19     1.0065     0.0173     0.7238     0.1102     1.3111     1.7235   176.3200     1.1348     0.5420
  553   11.040   2677.17     1.0098     0.0174     0.7053     0.1104     1.3095     1.7268   176.6400     1.1329     0.5325
  554   11.060   2678.16     1.0149     0.0174     0.7036     0.1106     1.3096     1.7207   176.9600     1.1326     0.5218
  555   11.080   2679.23     1.0129     0.0179     0.6826     0.1108     1.3039     1.7714   177.2800     1.1266     0.5166
  556   11.100   2680.18     1.0160     0.0176     0.6602     0.1110     1.2966     1.7332   177.6000     1.1190     0.4979
  557   11.120   2681.16     0.9918     0.0181     0.6092     0.1112     1.2560     1.8122   177.9200     1.0781     0.4802
  558   11.140   2682.22     0.9844     0.0192     0.5699     0.1114     1.2263     1.9221   178.2400     1.0480     0.4431
  559   11.160   2683.13     1.0034     0.0205     0.5808     0.1116     1.2439     2.0514   178.5600     1.0654     0.4328
  560   11.180   2684.10     1.0030     0.0199     0.6433     0.1118     1.2630     1.9767   178.8800     1.0842     0.4679
  561   11.200   2685.13     1.0077     0.0192     0.6524     0.1120     1.2811     1.9165   179.2000     1.1019     0.4891
  562   11.220   2686.06     1.0256     0.0193     0.6617     0.1122     1.3041     1.8891   179.5200     1.1246     0.4900
  563   11.240   2698.00     1.0311     0.0189     0.6345     0.1124     1.3006     1.8374   179.8400     1.1208     0.4723
  564   11.260   2726.48     1.0322     0.0190     0.6204     0.1126     1.2929     1.8413   180.1600     1.1127     0.4566
  565   11.280   2734.66     1.0346     0.0186     0.6668     0.1128     1.3099     1.8028   180.4800     1.1294     0.4804
  566   11.300   2735.77     1.0420     0.0184     0.6843     0.1130     1.3278     1.7656   180.8000     1.1470     0.4947
  567   11.320   2736.80     1.0481     0.0188     0.6888     0.1132     1.3325     1.7910   181.1200     1.1514     0.4898
  568   11.340   2737.77     1.0563     0.0183     0.7157     0.1134     1.3561     1.7359   181.4400     1.1746     0.5111
  569   11.360   2738.60     1.0501     0.0183     0.6767     0.1136     1.3420     1.7476   181.7600     1.1603     0.5012
  570   11.380   2739.61     1.0736     0.0184     0.7201     0.1138     1.3657     1.7203   182.0800     1.1837     0.4915
  571   11.400   2740.76     1.0887     0.0185     0.7372     0.1140     1.3963     1.7060   182.4000     1.2139     0.5094
  572   11.420   2741.69     1.0872     0.0187     0.7638     0.1142     1.4039     1.7194   182.7200     1.2211     0.5239
  573   11.440   2742.69     1.0997     0.0193     0.7692     0.1144     1.4227     1.7668   183.0400     1.2397     0.5282
  574   11.460   2743.65     1.1155     0.0196     0.7771     0.1146     1.4393     1.7621   183.3600     1.2559     0.5227
  575   11.480   2744.52     1.1219     0.0194     0.7832     0.1148     1.4517     1.7339   183.6800     1.2680     0.5287
  576   11.500   2745.60     1.1272     0.0186     0.7761     0.1150     1.4520     1.6486   184.0000     1.2680     0.5192
  577   11.520   2746.63     1.1277     0.0186     0.7629     0.1152     1.4493     1.6512   184.3200     1.2650     0.5142
  578   11.540   2747.63     1.1438     0.0184     0.7718     0.1154     1.4645     1.6104   184.6400     1.2799     0.5064
  579   11.560   2748.45     1.1405     0.0189     0.7928     0.1156     1.4712     1.6604   184.9600     1.2863     0.5223
  580   11.580   2749.42     1.1399     0.0191     0.8057     0.1158     1.4769     1.6718   185.2800     1.2916     0.5315
  581   11.600   2750.60     1.1382     0.0190     0.7861     0.1160     1.4707     1.6746   185.6000     1.2851     0.5258
  582   11.620   2751.61     1.1458     0.0189     0.8066     0.1162     1.4801     1.6423   185.9200     1.2942     0.5253
  583   11.640   2752.58     1.1470     0.0192     0.8127     0.1164     1.4883     1.6710   186.2400     1.3021     0.5347
  584   11.660   2753.54     1.1344     0.0191     0.8143     0.1166     1.4760     1.6812   186.5600     1.2894     0.5404
  585   11.680   2754.36     1.1275     0.0188     0.8038     0.1168     1.4616     1.6621   186.8800     1.2747     0.5323
  586   11.700   2755.34     1.1438     0.0189     0.8229     0.1170     1.4884     1.6522   187.2000     1.3012     0.5406
  587   11.720   2756.45     1.1570     0.0183     0.8206     0.1172     1.5032     1.5864   187.5200     1.3157     0.5375
  588   11.740   2757.46     1.1477     0.0180     0.8181     0.1174     1.4935     1.5692   187.8400     1.3056     0.5406
  589   11.760   2758.51     1.1725     0.0183     0.8139     0.1176     1.5131     1.5667   188.1600     1.3249     0.5233
  590   11.780   2759.48     1.1669     0.0187     0.8139     0.1178     1.5095     1.5976   188.4800     1.3210     0.5284
  591   11.800   2760.35     1.1680     0.0184     0.8256     0.1180     1.5104     1.5776   188.8000     1.3216     0.5274
  592   11.820   2761.23     1.1521     0.0182     0.8366     0.1182     1.5034     1.5810   189.1200     1.3142     0.5464
  593   11.840   2762.34     1.1436     0.0182     0.8229     0.1184     1.4864     1.5841   189.4400     1.2970     0.5380
  594   11.860   2763.41     1.1413     0.0181     0.8303     0.1186     1.4915     1.5854   189.7600     1.3018     0.5494
  595   11.880   2764.26     1.1512     0.0177     0.8303     0.1188     1.5002     1.5384   190.0800     1.3101     0.5436
  596   11.900   2765.22     1.1598     0.0171     0.8320     0.1190     1.5085     1.4736   190.4000     1.3181     0.5397
  597   11.920   2766.26     1.1544     0.0180     0.8382     0.1192     1.5063     1.5580   190.7200     1.3156     0.5463
  598   11.940   2767.43     1.1508     0.0182     0.8284     0.1194     1.5034     1.5815   191.0400     1.3123     0.5487
  599   11.960   2768.43     1.1849     0.0171     0.8290     0.1196     1.5338     1.4520   191.3600     1.3425     0.5298
  600   11.980   2769.21     1.1966     0.0176     0.8216     0.1198     1.5422     1.4753   191.6800     1.3506     0.5206
  601   12.000   2770.02     1.1931     0.0183     0.8051     0.1200     1.5384     1.5329   192.0000     1.3464     0.5215
  602   12.020   2771.16     1.1876     0.0181     0.8076     0.1202     1.5250     1.5245   192.3200     1.3327     0.5126
  603   12.040   2772.44     1.1476     0.0184     0.8212     0.1204     1.4982     1.5904   192.6400     1.3056     0.5473
  604   12.060   2773.37     1.1486     0.0183     0.8133     0.1206     1.4896     1.5985   192.9600     1.2966     0.5332
  605   12.080   2774.16     1.1529     0.0178     0.8264     0.1208     1.4977     1.5493   193.2800     1.3045     0.5369
  606   12.100   2775.00     1.1575     0.0183     0.8486     0.1210     1.5074     1.5842   193.6000     1.3138     0.5420
  607   12.120   2775.90     1.1538     0.0177     0.8519     0.1212     1.5133     1.5305   193.9200     1.3194     0.5569
  608   12.140   2777.20     1.1518     0.0178     0.8476     0.1214     1.5098     1.5386   194.2400     1.3155     0.5555
  609   12.160   2778.19     1.1535     0.0181     0.8376     0.1216     1.5055     1.5679   194.5600     1.3110     0.5466
  610   12.180   2779.07     1.1542     0.0180     0.8414     0.1218     1.5105     1.5628   194.8800     1.3156     0.5522
  611   12.200   2780.06     1.1470     0.0182     0.8243     0.1220     1.4990     1.5830   195.2000     1.3038     0.5491
  612   12.220   2781.29     1.1476     0.0184     0.8315     0.1222     1.4952     1.6112   195.5200     1.2997     0.5427
  613   12.240   2782.32     1.1459     0.0178     0.8509     0.1224     1.5008     1.5417   195.8400     1.3049     0.5538
  614   12.260   2783.07     1.1305     0.0187     0.8642     0.1226     1.4919     1.6484   196.1600     1.2958     0.5695
  615   12.280   2783.94     1.1250     0.0187     0.8575     0.1228     1.4872     1.6640   196.4800     1.2907     0.5730
  616   12.300   2784.90     1.1177     0.0180     0.8557     0.1230     1.4793     1.5997   196.8000     1.2825     0.5753
  617   12.320   2786.06     1.1090     0.0161     0.8633     0.1232     1.4708     1.4536   197.1200     1.2737     0.5796
  618   12.340   2787.10     1.1122     0.0160     0.8647     0.1234     1.4753     1.4438   197.4400     1.2778     0.5799
  619   12.360   2788.09     1.1232     0.0180     0.8724     0.1236     1.4880     1.6085   197.7600     1.2902     0.5773
  620   12.380   2788.90     1.1490     0.0172     0.8716     0.1238     1.5161     1.5231   198.0800     1.3180     0.5692
  621   12.400   2789.99     1.2315     0.0165     0.8264     0.1240     1.5868     1.3469   198.4000     1.3884     0.5200
  622   12.420   2791.12     1.2958     0.0169     0.7448     0.1242     1.6174     1.3025   198.7200     1.4187     0.4522
  623   12.440   2792.07     1.2018     0.0157     0.7730     0.1244     1.5219     1.2936   199.0400     1.3229     0.4821
  624   12.460   2793.01     1.1933     0.0140     0.8065     0.1246     1.5217     1.1742   199.3600     1.3224     0.4971
  625   12.480   2793.92     1.2455     0.0152     0.7970     0.1248     1.5893     1.2513   199.6800     1.3897     0.4994
  626   12.500   2795.07     1.2944     0.0166     0.7920     0.1250     1.6264     1.2852   200.0000     1.4264     0.4666
  627   12.520   2796.01     1.4169     0.0208     0.7637     0.1252     1.7460     1.4996   200.3200     1.5457     0.4266
  628   12.540   2796.98     1.7331     0.0238     0.6454     0.1254     2.0325     1.4664   200.6400     1.8318     0.3214
  629   12.560   2798.02     1.9014     0.0241     0.4579     0.1256     2.1074     1.2813   200.9600     1.9065     0.1914
  630   12.580   2799.02     1.7682     0.0206     0.4448     0.1258     1.9623     1.1330   201.2800     1.7610     0.1911
  631   12.600   2800.13     1.4746     0.0283     0.5110     0.1260     1.6686     1.8666   201.6000     1.4670     0.2303
  632   12.620   2801.06     1.3317     0.0384     0.5994     0.1262     1.5739     2.8683   201.9200     1.3720     0.3283
  633   12.640   2801.90     1.4657     0.0394     0.6724     0.1264     1.7380     2.7786   202.2400     1.5358     0.3399
  634   12.660   2802.75     1.7355     0.0357     0.6794     0.1266     2.0272     2.2391   202.5600     1.8246     0.3120
  635   12.680   2803.76     1.9490     0.0285     0.4305     0.1268     2.1826     1.4712   202.8800     1.9797     0.2164
  636   12.700   2804.96     1.6138     0.0265     0.3570     0.1270     1.7922     1.6285   203.2000     1.5890     0.1870
  637   12.720   2805.99     1.4446     0.0309     0.4690     0.1272     1.6154     2.0648   203.5200     1.4119     0.1985
  638   12.740   2806.90     1.2933     0.0358     0.5584     0.1274     1.5184     2.6701   203.8400     1.3146     0.3109
  639   12.760   2807.81     1.2737     0.0270     0.6187     0.1276     1.5298     2.1168   204.1600     1.3257     0.3638
  640   12.780   2808.95     1.3792     0.0209     0.5887     0.1278     1.6327     1.5435   204.4800     1.4282     0.3332
  641   12.800   2810.00     1.5194     0.0186     0.5727     0.1280     1.7590     1.2328   204.8000     1.5542     0.2848
  642   12.820   2810.86     1.5127     0.0178     0.5781     0.1282     1.7506     1.1684   205.1200     1.5454     0.2835
  643   12.840   2811.65     1.4198     0.0184     0.6157     0.1284     1.6732     1.2851   205.4400     1.4678     0.3238
  644   12.860   2812.58     1.2444     0.0194     0.6910     0.1286     1.5240     1.5222   205.7600     1.3182     0.4083
  645   12.880   2813.78     1.1118     0.0173     0.7899     0.1288     1.4312     1.5299   206.0800     1.2252     0.5158
  646   12.900   2814.90     1.1189     0.0154     0.8177     0.1290     1.4541     1.3842   206.4000     1.2477     0.5362
  647   12.920   2815.94     1.1837     0.0154     0.8140     0.1292     1.5294     1.3155   206.7200     1.3227     0.5246
  648   12.940   2816.73     1.1991     0.0167     0.8141     0.1294     1.5385     1.4002   207.0400     1.3315     0.5098
  649   12.960   2817.59     1.2331     0.0199     0.8405     0.1296     1.5832     1.6234   207.3600     1.3758     0.5115
  650   12.980   2818.70     1.3221     0.0223     0.8304     0.1298     1.6790     1.7168   207.6800     1.4713     0.4894
  651   13.000   2819.83     1.3641     0.0234     0.7645     0.1300     1.6916     1.7291   208.0000     1.4836     0.4380
  652   13.020   2820.80     1.3249     0.0228     0.7335     0.1302     1.6367     1.7122   208.3200     1.4284     0.4286
  653   13.040   2821.76     1.2880     0.0224     0.7276     0.1304     1.5890     1.7288   208.6400     1.3803     0.4246
  654   13.060   2822.64     1.2341     0.0226     0.7895     0.1306     1.5593     1.8286   208.9600     1.3503     0.4768
  655   13.080   2823.61     1.2064     0.0230     0.8074     0.1308     1.5443     1.9174   209.2800     1.3351     0.5048
  656   13.100   2824.66     1.2288     0.0231     0.8022     0.1310     1.5719     1.8892   209.6000     1.3623     0.5035
  657   13.120   2825.72     1.2550     0.0198     0.8009     0.1312     1.5851     1.5647   209.9200     1.3752     0.4761
  658   13.140   2826.68     1.2946     0.0186     0.8144     0.1314     1.6370     1.4416   210.2400     1.4268     0.4792
  659   13.160   2827.70     1.3443     0.0214     0.8225     0.1316     1.6877     1.6059   210.5600     1.4771     0.4644
  660   13.180   2828.66     1.3837     0.0276     0.8289     0.1318     1.7318     2.0268   210.8800     1.5210     0.4584
  661   13.200   2829.70     1.5256     0.0354     0.8194     0.1320     1.8693     2.4737   211.2000     1.6581     0.4146
  662   13.220   2830.86     2.0363     0.0379     0.6917     0.1322     2.3693     1.9923   211.5200     2.1578     0.3066
  663   13.240   2860.05     3.1993     0.0424     0.4794     0.1324     3.4314     1.7970   211.8400     3.2196     0.1528
  664   13.260   2892.47     4.2636     0.0642     0.3300     0.1326     4.4058     2.1801   212.1600     4.1936     0.0491
  665   13.280   2893.77     4.5271     0.0834     0.2644     0.1328     4.6564     1.9106   212.4800     4.4439     0.0395
  666   13.300   2894.82     4.5132     0.0993     0.1692     0.1330     4.5886     2.1852   212.8000     4.3758     0.0106
  667   13.320   2895.71     3.9355     0.0989     0.1941     0.1332     4.0071     2.4774   213.1200     3.7940     0.0099
  668   13.340   2896.66     3.3376     0.1022     0.3529     0.1334     3.4645     2.9193   213.4400     3.2511     0.0526
  669   13.360   2897.70     2.8455     0.1004     0.3648     0.1336     3.0011     3.3775   213.7600     2.7873     0.0850
  670   13.380   2898.86     2.3871     0.0920     0.3933     0.1338     2.5395     3.7427   214.0800     2.3254     0.0985
  671   13.400   2899.81     2.2580     0.0864     0.4998     0.1340     2.4568     3.8518   214.4000     2.2424     0.1512
  672   13.420   2900.76     2.4715     0.0905     0.5457     0.1342     2.6965     3.7418   214.7200     2.4818     0.1618
  673   13.440   2901.73     3.0200     0.0990     0.5637     0.1344     3.2545     3.5149   215.0400     3.0395     0.1398
  674   13.460   2902.89     3.8524     0.1109     0.5458     0.1346     4.0850     2.9529   215.3600     3.8696     0.1084
  675   13.480   2903.94     4.6874     0.1156     0.5044     0.1348     4.9072     2.5373   215.6800     4.6915     0.0829
  676   13.500   2904.78     5.3932     0.1242     0.4371     0.1350     5.5885     2.4488   216.0000     5.3725     0.0616
  677   13.520   2905.74     6.2221     0.1208     0.3268     0.1352     6.3777     2.0515   216.3200     6.1613     0.0383
  678   13.540   2906.73     6.9301     0.1269     0.1551     0.1354     7.0214     1.8437   216.6400     6.8047     0.0122
  679   13.560   2907.84     7.2672     0.1581     0.0711     0.1356     7.2980     2.1801   216.9600     7.0810    -0.0088
  680   13.580   2908.93     6.8570     0.1795     0.0281     0.1358     6.8813     2.5690   217.2800     6.6640    -0.0117
  681   13.600   2909.87     6.0457     0.1940    -0.0434     0.1360     6.0352     3.1580   217.6000     5.8176    -0.0277
  682   13.620   2910.95     5.0336     0.2041     0.0051     0.1362     5.0215     3.9461   217.9200     4.8036    -0.0343
  683   13.640   2911.85     4.5876     0.1883     0.1152     0.1364     4.6179     3.9939   218.2400     4.3996    -0.0145
  684   13.660   2912.76     4.7162     0.1689     0.2299     0.1366     4.7998     3.6727   218.5600     4.5812     0.0135
  685   13.680   2913.73     5.1101     0.1529     0.2536     0.1368     5.2171     3.0233   218.8800     4.9982     0.0236
  686   13.700   2914.84     5.4875     0.1241     0.2000     0.1370     5.5831     2.2831   219.2000     5.3639     0.0169
  687   13.720   2915.87     5.4553     0.0803     0.0666     0.1372     5.5088     1.4619   219.5200     5.2893    -0.0018
  688   13.740   2917.00     4.6227     0.0587    -0.1023     0.1374     4.5971     1.2023   219.8400     4.3773    -0.0456
  689   13.760   2917.94     3.7338     0.0456    -0.0963     0.1376     3.6862     1.1445   220.1600     3.4661    -0.0724
  690   13.780   2918.80     2.9741     0.0390    -0.0278     0.1378     2.9520     1.1778   220.4800     2.7316    -0.0695
  691   13.800   2919.78     2.2128     0.0356     0.0471     0.1380     2.2201     1.5354   220.8000     1.9993    -0.0603
  692   13.820   2920.89     1.6695     0.0349     0.1664     0.1382     1.7239     1.9457   221.1200     1.5028    -0.0057
  693   13.840   2921.87     1.4953     0.0313     0.2687     0.1384     1.5959     2.0576   221.4400     1.3745     0.0738
  694   13.860   2922.77     1.4783     0.0314     0.3280     0.1386     1.6090     2.1282   221.7600     1.3873     0.1244
  695   13.880   2923.78     1.5080     0.0294     0.3779     0.1388     1.6593     1.9580   222.0800     1.4372     0.1540
  696   13.900   2924.90     1.5482     0.0293     0.4104     0.1390     1.7173     1.9047   222.4000     1.4949     0.1763
  697   13.920   2925.87     1.5951     0.0313     0.4197     0.1392     1.7708     1.9825   222.7200     1.5480     0.1803
  698   13.940   2926.79     1.5816     0.0334     0.4400     0.1394     1.7620     2.0976   223.0400     1.5389     0.1886
  699   13.960   2927.70     1.5535     0.0370     0.4797     0.1396     1.7490     2.3849   223.3600     1.5257     0.2137
  700   13.980   2928.76     1.5894     0.0399     0.5111     0.1398     1.8005     2.5277   223.6800     1.5768     0.2301
  701   14.000   2929.81     1.7297     0.0411     0.5121     0.1400     1.9460     2.4165   224.0000     1.7220     0.2179
  702   14.020   2930.74     1.9510     0.0420     0.4967     0.1402     2.1620     2.1893   224.3200     1.9376     0.1870
  703   14.040   2931.73     2.1735     0.0394     0.4806     0.1404     2.3774     1.8423   224.6400     2.1528     0.1605
  704   14.060   2932.74     2.4409     0.0355     0.4762     0.1406     2.6411     1.4944   224.9600     2.4161     0.1392
  705   14.080   2933.74     2.7604     0.0359     0.4595     0.1408     2.9582     1.3479   225.2800     2.7329     0.1209
  706   14.100   2934.73     3.0686     0.0377     0.3986     0.1410     3.2445     1.2498   225.6000     3.0189     0.0922
  707   14.120   2935.74     3.3190     0.0389     0.3536     0.1412     3.4737     1.1955   225.9200     3.2478     0.0700
  708   14.140   2936.72     3.4223     0.0390     0.3281     0.1414     3.5617     1.1520   226.2400     3.3354     0.0571
  709   14.160   2937.63     3.4005     0.0402     0.3268     0.1416     3.5385     1.1781   226.5600     3.3120     0.0565
  710   14.180   2938.55     3.2869     0.0400     0.3122     0.1418     3.4186     1.2087   226.8800     3.1917     0.0538
  711   14.200   2939.64     3.1033     0.0421     0.3414     0.1420     3.2417     1.3401   227.2000     3.0145     0.0623
  712   14.220   2940.76     2.9828     0.0486     0.3852     0.1422     3.1353     1.6183   227.5200     2.9078     0.0760
  713   14.240   2941.87     2.9812     0.0545     0.4201     0.1424     3.1537     1.8397   227.8400     2.9259     0.0917
  714   14.260   2942.74     3.0610     0.0512     0.4274     0.1426     3.2409     1.6832   228.1600     3.0127     0.0948
  715   14.280   2943.57     3.2596     0.0466     0.4184     0.1428     3.4354     1.4888   228.4800     3.2069     0.0860
  716   14.300   2944.56     3.7091     0.0402     0.4035     0.1430     3.8837     1.1340   228.8000     3.6549     0.0748
  717   14.320   2945.58     4.4060     0.0331     0.3286     0.1432     4.5555     0.8038   229.1200     4.3263     0.0494
  718   14.340   2946.66     5.1131     0.0293     0.2449     0.1434     5.2293     0.5859   229.4400     4.9999     0.0268
  719   14.360   2947.70     5.5807     0.0292     0.2002     0.1436     5.6660     0.5318   229.7600     5.4362     0.0109
  720   14.380   2948.64     5.8833     0.0312     0.1740     0.1438     5.9614     0.5356   230.0800     5.7314     0.0074
  721   14.400   2949.76     5.9556     0.0364     0.1617     0.1440     6.0217     0.6098   230.4000     5.7913     0.0023
  722   14.420   2950.87     5.6707     0.0408     0.1955     0.1442     5.7496     0.7102   230.7200     5.5189     0.0079
  723   14.440   2951.68     5.4065     0.0427     0.2205     0.1444     5.4953     0.7848   231.0400     5.2643     0.0128
  724   14.460   2952.56     5.0676     0.0441     0.2460     0.1446     5.1660     0.8373   231.3600     4.9347     0.0182
  725   14.480   2953.49     4.7052     0.0440     0.2862     0.1448     4.8166     0.9085   231.6800     4.5849     0.0263
  726   14.500   2954.69     4.2802     0.0401     0.2785     0.1450     4.3977     0.9105   232.0000     4.1657     0.0323
  727   14.520   2955.79     3.8954     0.0439     0.2906     0.1452     4.0180     1.0935   232.3200     3.7857     0.0388
  728   14.540   2956.74     3.5927     0.0625     0.3069     0.1454     3.7179     1.7156   232.6400     3.4853     0.0439
  729   14.560   2957.65     3.2742     0.0673     0.3320     0.1456     3.4081     2.0342   232.9600     3.1752     0.0546
  730   14.580   2958.73     2.9307     0.0674     0.3866     0.1458     3.0883     2.2789   233.2800     2.8550     0.0805
  731   14.600   2959.79     2.7278     0.0627     0.4173     0.1460     2.8981     2.2880   233.6000     2.6645     0.0973
  732   14.620   2960.61     2.7772     0.0572     0.4378     0.1462     2.9590     2.0904   233.9200     2.7250     0.1052
  733   14.640   2961.61     2.9083     0.0554     0.4267     0.1464     3.0957     1.9337   234.2400     2.8615     0.1048
  734   14.660   2962.59     2.9653     0.0556     0.3814     0.1466     3.1296     1.8956   234.5600     2.8950     0.0845
  735   14.680   2963.72     3.0293     0.0533     0.3541     0.1468     3.1782     1.7691   234.8800     2.9433     0.0705
  736   14.700   2964.73     3.0143     0.0442     0.3539     0.1470     3.1633     1.4631   235.2000     2.9281     0.0709
  737   14.720   2965.69     3.0312     0.0359     0.3705     0.1472     3.1826     1.1896   235.5200     2.9471     0.0724
  738   14.740   2966.74     3.1201     0.0419     0.3830     0.1474     3.2803     1.3516   235.8400     3.0445     0.0769
  739   14.760   2967.71     3.1441     0.0564     0.3800     0.1476     3.3037     1.7910   236.1600     3.0675     0.0757
  740   14.780   2968.76     3.1191     0.0466     0.3783     0.1478     3.2790     1.4815   236.4800     3.0425     0.0765
  741   14.800   2969.74     3.0007     0.0402     0.4006     0.1480     3.1635     1.3216   236.8000     2.9267     0.0819
  742   14.820   2970.61     2.9971     0.0396     0.4378     0.1482     3.1766     1.3310   237.1200     2.9395     0.0950
  743   14.840   2971.56     3.3663     0.0507     0.4180     0.1484     3.5465     1.5358   237.4400     3.3090     0.0849
  744   14.860   2972.74     3.6073     0.0453     0.3520     0.1486     3.7639     1.2602   237.7600     3.5262     0.0636
  745   14.880   2974.01     3.4741     0.0349     0.3867     0.1488     3.6263     0.9886   238.0800     3.3882     0.0631
  746   14.900   2974.83     3.2303     0.0391     0.4164     0.1490     3.4018     1.2012   238.4000     3.1634     0.0820
  747   14.920   2975.67     2.9648     0.0479     0.4656     0.1492     3.1506     1.5589   238.7200     2.9119     0.1009
  748   14.940   2976.53     2.8146     0.1016     0.5508     0.1494     3.0297     3.4818   239.0400     2.7907     0.1300
  749   14.960   2977.68     3.2103     0.0894     0.7067     0.1496     3.4821     2.6402   239.3600     3.2428     0.1534
  750   14.980   2978.79     5.2483     0.0786     0.7387     0.1498     5.5714     1.7217   239.6800     5.3317     0.1176
  751   15.000   2979.85     9.7449     0.0932     0.5235     0.1500    10.0122     1.2273   240.0000     9.7722     0.0504
  752   15.020   2980.92    14.6831     0.0835     0.2300     0.1502    14.8133     0.6414   240.3200    14.5730     0.0110
  753   15.040   2982.27    19.6488     0.1035    -0.1073     0.1504    19.6490     0.6061   240.6400    19.4084    -0.0075
  754   15.060   3004.64    23.0343     0.1010    -0.0665     0.1506    23.0005     0.4865   240.9600    22.7595    -0.0105
  755   15.080   3033.87    26.1680     0.1121    -0.0265     0.1508    26.1513     0.5401   241.2800    25.9100    -0.0075
  756   15.100   3044.32    26.4528     0.1236    -0.0532     0.1510    26.4309     0.4621   241.6000    26.1893    -0.0078
  757   15.120   3045.49    29.4305     0.1413    -0.0621     0.1512    29.4033     0.4988   241.9200    29.1613    -0.0074
  758   15.140   3047.64    27.4518     0.1644    -0.0473     0.1514    27.4291     0.6257   242.2400    27.1868    -0.0075
  759   15.160   3049.30    28.3305     0.1884    -0.0649     0.1516    28.3038     0.6622   242.5600    28.0612    -0.0077
  760   15.180   3050.35    27.2971     0.2074    -0.0689     0.1518    27.2677     0.7469   242.8800    27.0248    -0.0082
  761   15.200   3051.27    25.8818     0.2136    -0.0569     0.1520    25.8553     0.8113   243.2000    25.6121    -0.0084
  762   15.220   3052.07    24.8488     0.2214    -0.0396     0.1522    24.8316     0.8825   243.5200    24.5880    -0.0079
  763   15.240   3053.09    23.7986     0.2243    -0.0186     0.1524    23.7894     0.9307   243.8400    23.5456    -0.0074
  764   15.260   3054.01    23.1592     0.2273     0.0123     0.1526    23.1583     0.9694   244.1600    22.9141    -0.0067
  765   15.280   3055.13    22.6239     0.2306     0.0231     0.1528    22.6317     1.0120   244.4800    22.3872    -0.0060
  766   15.300   3056.10    22.2018     0.2350     0.0394     0.1530    22.2161     1.0498   244.8000    21.9713    -0.0054
  767   15.320   3056.99    21.9038     0.2356     0.0514     0.1532    21.9217     1.0697   245.1200    21.6765    -0.0051
  768   15.340   3057.86    21.5715     0.2358     0.0664     0.1534    21.5981     1.0862   245.4400    21.3527    -0.0042
  769   15.360   3058.76    21.2099     0.2343     0.0771     0.1536    21.2400     1.0966   245.7600    20.9942    -0.0039
  770   15.380   3059.78    20.6823     0.2304     0.0965     0.1538    20.7206     1.1029   246.0800    20.4746    -0.0030
  771   15.400   3060.85    20.0064     0.2242     0.1053     0.1540    20.0510     1.1047   246.4000    19.8046    -0.0024
  772   15.420   3061.73    19.4125     0.2196     0.1124     0.1542    19.4586     1.1217   246.7200    19.2118    -0.0023
  773   15.440   3062.65    18.8277     0.2129     0.1171     0.1544    18.8758     1.1218   247.0400    18.6288    -0.0021
  774   15.460   3063.49    18.2947     0.2060     0.1222     0.1546    18.3441     1.1093   247.3600    18.0967    -0.0020
  775   15.480   3064.47    17.7431     0.1978     0.1292     0.1548    17.7960     1.1033   247.6800    17.5484    -0.0016
  776   15.500   3065.52    17.2884     0.1908     0.1345     0.1550    17.3448     1.0926   248.0000    17.0968    -0.0012
  777   15.520   3066.37    16.9780     0.1807     0.1422     0.1552    17.0380     1.0571   248.3200    16.7897    -0.0007
  778   15.540   3067.25    16.8141     0.1680     0.1376     0.1554    16.8731     0.9948   248.6400    16.6244    -0.0009
  779   15.560   3068.17    16.8297     0.1566     0.1095     0.1556    16.8814     0.9312   248.9600    16.6324    -0.0020
  780   15.580   3069.25    17.0736     0.1465     0.0650     0.1558    17.1066     0.8600   249.2800    16.8573    -0.0046
  781   15.600   3070.25    17.2798     0.1431     0.0280     0.1560    17.2961     0.8297   249.6000    17.0465    -0.0069
  782   15.620   3071.13    17.3895     0.1468    -0.0007     0.1562    17.3942     0.8462   249.9200    17.1442    -0.0085
  783   15.640   3072.02    17.4055     0.1516     0.0073     0.1564    17.4041     0.8706   250.2400    17.1539    -0.0093
  784   15.660   3072.79    17.3186     0.1604     0.0202     0.1566    17.3252     0.9246   250.5600    17.0747    -0.0083
  785   15.680   3073.72    17.1304     0.1648     0.0440     0.1568    17.1455     0.9595   250.8800    16.8946    -0.0072
  786   15.700   3074.65    16.9890     0.1633     0.0591     0.1570    17.0114     0.9600   251.2000    16.7602    -0.0062
  787   15.720   3075.75    16.8894     0.1517     0.0820     0.1572    16.9219     0.8973   251.5200    16.6704    -0.0048
  788   15.740   3076.73    16.7249     0.1450     0.0611     0.1574    16.7545     0.8628   251.8400    16.5026    -0.0053
  789   15.760   3077.73    16.4159     0.1444     0.0212     0.1576    16.4336     0.8717   252.1600    16.1814    -0.0071
  790   15.780   3078.67    15.8895     0.1420    -0.0156     0.1578    15.8870     0.8772   252.4800    15.6345    -0.0105
  791   15.800   3079.57    15.2727     0.1402    -0.0284     0.1580    15.2619     0.9021   252.8000    15.0091    -0.0123
  792   15.820   3080.45    14.5521     0.1367    -0.0133     0.1582    14.5424     0.9150   253.1200    14.2893    -0.0127
  793   15.840   3081.43    13.8359     0.1303     0.0224     0.1584    13.8409     0.9281   253.4400    13.5875    -0.0108
  794   15.860   3082.40    13.4182     0.1291     0.0531     0.1586    13.4372     0.9591   253.7600    13.1835    -0.0086
  795   15.880   3083.31    13.3168     0.1271     0.0688     0.1588    13.3443     0.9543   254.0800    13.0902    -0.0071
  796   15.900   3084.21    13.5818     0.1245     0.0873     0.1590    13.6151     0.9272   254.4000    13.3607    -0.0060
  797   15.920   3085.06    14.3209     0.1236     0.1022     0.1592    14.3622     0.8682   254.7200    14.1075    -0.0043
  798   15.940   3086.13    15.7288     0.1284     0.0820     0.1594    15.7669     0.8236   255.0400    15.5118    -0.0044
  799   15.960   3087.30    17.4400     0.1401     0.0402     0.1596    17.4653     0.8235   255.3600    17.2099    -0.0058
  800   15.980   3088.32    18.6432     0.1540     0.0069     0.1598    18.6485     0.8476   255.6800    18.3928    -0.0080
  801   16.000   3089.12    19.3657     0.1706     0.0306     0.1600    19.3718     0.8943   256.0000    19.1158    -0.0076
  802   16.020   3090.05    20.2845     0.1844     0.0839     0.1602    20.3121     0.9249   256.3200    20.0557    -0.0047
  803   16.040   3091.12    21.3974     0.2017     0.1290     0.1604    21.4458     0.9590   256.6400    21.1891    -0.0021
  804   16.060   3092.17    22.5662     0.2192     0.1256     0.1606    22.6200     0.9862   256.9600    22.3630    -0.0015
  805   16.080   3093.02    23.5801     0.2311     0.1107     0.1608    23.6317     0.9913   257.2800    23.3744    -0.0016
  806   16.100   3093.93    24.8555     0.2414     0.1198     0.1610    24.9035     0.9962   257.6000    24.6459    -0.0019
  807   16.120   3094.82    25.9418     0.2503     0.1300     0.1612    25.9936     0.9783   257.9200    25.7356    -0.0015
  808   16.140   3095.83    26.8252     0.2599     0.1369     0.1614    26.8808     0.9820   258.2400    26.6226    -0.0011
  809   16.160   3096.98    27.9174     0.2673     0.1134     0.1616    27.9675     0.9681   258.5600    27.7089    -0.0015
  810   16.180   3097.93    29.3034     0.2767     0.1254     0.1618    29.3535     0.9581   258.8800    29.0947    -0.0015
  811   16.200   3098.93    31.1156     0.2867     0.1488     0.1620    31.1755     0.9320   259.2000    30.9163    -0.0006
  812   16.220   3100.10    33.4773     0.3264     0.1506     0.1622    33.5437     0.9848   259.5200    33.2841    -0.0001
  813   16.240   3101.06    35.3578     0.3500     0.1220     0.1624    35.4143     1.0047   259.8400    35.1544    -0.0008
  814   16.260   3101.85    36.7696     0.4317     0.1192     0.1626    36.8198     1.1991   260.1600    36.5597    -0.0012
  815   16.280   3102.73    38.3221     0.3998     0.1023     0.1628    38.3675     1.0583   260.4800    38.1070    -0.0014
  816   16.300   3103.82    39.5380     0.4285     0.1289     0.1630    39.5893     1.1031   260.8000    39.3285    -0.0010
  817   16.320   3104.87    40.3033     0.4589     0.1405     0.1632    40.3686     1.1528   261.1200    40.1075    -0.0002
  818   16.340   3107.96    40.5293     0.4890     0.1430     0.1634    40.5877     1.2051   261.4400    40.3263    -0.0006
  819   16.360   3111.10    40.4496     0.5138     0.1804     0.1636    40.5127     1.2892   261.7600    40.2510    -0.0003
  820   16.380   3114.01    37.1680     0.5289     0.1434     0.1638    37.2400     1.4333   262.0800    36.9779     0.0002
  821   16.400   3115.58    39.2691     0.5344     0.1422     0.1640    39.3282     1.3401   262.4000    39.0658    -0.0006
  822   16.420   3117.50    38.2434     0.5287     0.1464     0.1642    38.3043     1.3258   262.7200    38.0416    -0.0005
  823   16.440   3119.41    37.2177     0.5113     0.1468     0.1644    37.2803     1.3257   263.0400    37.0173    -0.0004
  824   16.460   3120.64    35.6168     0.4918     0.1410     0.1646    35.6739     1.3648   263.3600    35.4105    -0.0008
  825   16.480   3121.62    33.5494     0.4712     0.1332     0.1648    33.6048     1.3828   263.6800    33.3412    -0.0010
  826   16.500   3122.54    31.3359     0.4462     0.1193     0.1650    31.3846     1.4104   264.0000    31.1206    -0.0016
  827   16.520   3123.64    28.3151     0.4094     0.1240     0.1652    28.3689     1.4177   264.3200    28.1045    -0.0013
  828   16.540   3124.82    24.3256     0.3746     0.1235     0.1654    24.3776     1.5151   264.6400    24.1130    -0.0017
  829   16.560   3125.63    20.9151     0.3591     0.1253     0.1656    20.9663     1.5723   264.9600    20.7013    -0.0021
  830   16.580   3126.34    17.5011     0.3574     0.1320     0.1658    17.5579     1.8495   265.2800    17.2926    -0.0018
  831   16.600   3127.12    14.2884     0.3510     0.1091     0.1660    14.3378     2.2882   265.6000    14.0722    -0.0035
  832   16.620   3128.04    10.7679     0.3316     0.1072     0.1662    10.8128     2.9614   265.9200    10.5468    -0.0057
  833   16.640   3129.19     7.2671     0.2844     0.1443     0.1664     7.3220     3.6980   266.2400     7.0558    -0.0050
  834   16.660   3130.32     5.2244     0.2533     0.1867     0.1666     5.3009     4.3280   266.5600     5.0343     0.0032
  835   16.680   3131.15     4.3529     0.2227     0.1940     0.1668     4.4330     4.5843   266.8800     4.1662     0.0058
  836   16.700   3131.97     3.6668     0.1763     0.2168     0.1670     3.7571     4.4093   267.2000     3.4899     0.0138
  837   16.720   3132.93     2.9889     0.1192     0.3092     0.1672     3.0980     3.7217   267.5200     2.8305     0.0327
  838   16.740   3134.05     2.5518     0.0646     0.5893     0.1674     2.7633     2.5053   267.8400     2.4954     0.1350
  839   16.760   3135.10     2.4341     0.0428     0.6627     0.1676     2.7023     1.7417   268.1600     2.4341     0.1935
  840   16.780   3135.84     2.3939     0.0353     0.7676     0.1678     2.7046     1.4544   268.4800     2.4362     0.2349
  841   16.800   3136.70     2.4279     0.0268     0.8026     0.1680     2.7625     1.1115   268.8000     2.4937     0.2521
  842   16.820   3137.68     2.4058     0.0270     0.8329     0.1682     2.7485     1.1173   269.1200     2.4794     0.2612
  843   16.840   3138.93     2.3457     0.0266     0.8561     0.1684     2.7026     1.1268   269.4400     2.4331     0.2800
  844   16.860   3140.20     2.2733     0.0276     0.8892     0.1686     2.6425     1.2101   269.7600     2.3727     0.2994
  845   16.880   3141.11     2.1633     0.0247     0.8910     0.1688     2.5410     1.1382   270.0800     2.2710     0.3218
  846   16.900   3141.96     2.0006     0.0246     1.0349     0.1690     2.4236     1.1763   270.4000     2.1532     0.3893
  847   16.920   3142.93     1.9144     0.0238     1.0913     0.1692     2.3709     1.2282   270.7200     2.1002     0.4370
  848   16.940   3144.02     1.8529     0.0215     1.1069     0.1694     2.3160     1.1476   271.0400     2.0450     0.4564
  849   16.960   3145.34     1.8157     0.0215     1.1276     0.1696     2.2870     1.1792   271.3600     2.0156     0.4726
  850   16.980   3146.19     1.7902     0.0220     1.1356     0.1698     2.2655     1.2315   271.6800     1.9938     0.4825
  851   17.000   3147.10     1.7770     0.0207     1.1412     0.1700     2.2609     1.1633   272.0000     1.9889     0.4938
  852   17.020   3148.20     1.8059     0.0216     1.1357     0.1702     2.2817     1.2035   272.3200     2.0094     0.4791
  853   17.040   3149.31     1.8447     0.0226     1.1531     0.1704     2.3209     1.2415   272.6400     2.0483     0.4705
  854   17.060   3150.31     1.8650     0.0245     1.1562     0.1706     2.3503     1.3149   272.9600     2.0774     0.4742
  855   17.080   3151.15     1.8995     0.0264     1.1826     0.1708     2.3918     1.3983   273.2800     2.1185     0.4727
  856   17.100   3151.93     1.9450     0.0287     1.1860     0.1710     2.4357     1.4963   273.6000     2.1621     0.4613
  857   17.120   3152.95     1.9913     0.0328     1.1839     0.1712     2.4915     1.6596   273.9200     2.2176     0.4598
  858   17.140   3153.94     1.9750     0.0359     1.1853     0.1714     2.4690     1.8276   274.2400     2.1947     0.4578
  859   17.160   3155.25     1.9323     0.0377     1.1930     0.1716     2.4331     1.9387   274.5600     2.1585     0.4729
  860   17.180   3156.03     1.9228     0.0355     1.2185     0.1718     2.4297     1.8436   274.8800     2.1548     0.4804
  861   17.200   3156.98     1.8970     0.0333     1.2549     0.1720     2.4150     1.7481   275.2000     2.1398     0.4959
  862   17.220   3158.89     1.9481     0.0345     1.2673     0.1722     2.4892     1.8124   275.5200     2.2137     0.5042
  863   17.240   3183.16     1.7308     0.0353     1.2640     0.1724     2.2621     2.1151   275.8400     1.9863     0.5504
  864   17.260   3215.16     1.7804     0.0350     1.2559     0.1726     2.3103     2.0124   276.1600     2.0342     0.5355
  865   17.280   3217.88     1.7940     0.0338     1.2642     0.1728     2.3241     1.8857   276.4800     2.0477     0.5321
  866   17.300   3219.04     1.7925     0.0342     1.2978     0.1730     2.3276     1.9020   276.8000     2.0508     0.5369
  867   17.320   3220.09     1.7749     0.0335     1.3260     0.1732     2.3253     1.8882   277.1200     2.0481     0.5552
  868   17.340   3220.94     1.7712     0.0326     1.3306     0.1734     2.3306     1.8369   277.4400     2.0531     0.5642
  869   17.360   3221.84     1.7623     0.0325     1.2935     0.1736     2.3141     1.8450   277.7600     2.0363     0.5599
  870   17.380   3222.84     1.7565     0.0334     1.2709     0.1738     2.2900     1.8885   278.0800     2.0119     0.5450
  871   17.400   3224.02     1.7086     0.0354     1.2634     0.1740     2.2388     2.0662   278.4000     1.9604     0.5553
  872   17.420   3225.04     1.6608     0.0351     1.2652     0.1742     2.1947     2.0998   278.7200     1.9159     0.5725
  873   17.440   3225.98     1.6615     0.0340     1.2327     0.1744     2.1814     2.0544   279.0400     1.9024     0.5591
  874   17.460   3226.90     1.7148     0.0341     1.1648     0.1746     2.2098     1.9973   279.3600     1.9304     0.5200
  875   17.480   3227.87     1.6645     0.0299     1.1945     0.1748     2.1630     1.7785   279.6800     1.8833     0.5374
  876   17.500   3228.93     1.6578     0.0281     1.2039     0.1750     2.1611     1.6939   280.0000     1.8811     0.5440
  877   17.520   3229.98     1.6279     0.0291     1.2122     0.1752     2.1395     1.7874   280.3200     1.8592     0.5609
  878   17.540   3230.81     1.6125     0.0292     1.1656     0.1754     2.1075     1.8065   280.6400     1.8268     0.5491
  879   17.560   3231.85     1.5925     0.0286     1.1992     0.1756     2.0979     1.8002   280.9600     1.8170     0.5657
  880   17.580   3232.88     1.7591     0.0269     1.1104     0.1758     2.2578     1.5725   281.2800     1.9765     0.5120
  881   17.600   3233.95     2.0070     0.0279     1.0001     0.1760     2.4357     1.4026   281.6000     2.1541     0.3922
  882   17.620   3234.95     2.0071     0.0287     1.0089     0.1762     2.4248     1.4265   281.9200     2.1429     0.3820
  883   17.640   3235.87     1.9391     0.0323     1.0514     0.1764     2.3731     1.6594   282.2400     2.0908     0.4098
  884   17.660   3236.77     2.0767     0.0303     1.0349     0.1766     2.5232     1.5275   282.5600     2.2406     0.3959
  885   17.680   3237.70     2.5058     0.0231     0.9229     0.1768     2.9106     0.9786   282.8800     2.6277     0.3006
  886   17.700   3238.93     3.4429     0.0217     0.7755     0.1770     3.7851     0.6685   283.2000     3.5019     0.1821
  887   17.720   3239.98     4.4097     0.0227     0.6508     0.1772     4.7022     0.5427   283.5200     4.4187     0.1177
  888   17.740   3240.95     5.1674     0.0230     0.5687     0.1774     5.4076     0.4647   283.8400     5.1238     0.0770
  889   17.760   3241.96     5.5869     0.0246     0.5658     0.1776     5.8234     0.4458   284.1600     5.5392     0.0696
  890   17.780   3243.04     5.6085     0.0310     0.5694     0.1778     5.8455     0.5515   284.4800     5.5610     0.0695
  891   17.800   3243.99     5.4331     0.0355     0.6018     0.1780     5.6886     0.6502   284.8000     5.4038     0.0796
  892   17.820   3244.82     5.3481     0.0376     0.5661     0.1782     5.5875     0.7005   285.1200     5.3024     0.0739
  893   17.840   3245.75     5.1177     0.0384     0.6118     0.1784     5.3640     0.7315   285.4400     5.0785     0.0804
  894   17.860   3246.83     5.1872     0.0334     0.6605     0.1786     5.4627     0.6637   285.7600     5.1770     0.0922
  895   17.880   3247.88     5.7503     0.0328     0.6119     0.1788     6.0222     0.5908   286.0800     5.7361     0.0817
  896   17.900   3249.00     6.5394     0.0324     0.5571     0.1790     6.7760     0.4977   286.4000     6.4896     0.0593
  897   17.920   3249.93     6.8487     0.0332     0.5608     0.1792     7.0827     0.4937   286.7200     6.7960     0.0556
  898   17.940   3250.93     7.0465     0.0360     0.5472     0.1794     7.2807     0.5113   287.0400     6.9936     0.0541
  899   17.960   3252.01     7.0670     0.0415     0.5769     0.1796     7.3045     0.5852   287.3600     7.0171     0.0550
  900   17.980   3253.06     7.0008     0.0431     0.5747     0.1798     7.2441     0.6151   287.6800     6.9564     0.0574
  901   18.000   3254.13     6.9559     0.0442     0.5676     0.1800     7.1948     0.6346   288.0000     6.9068     0.0563
  902   18.020   3254.98     6.9471     0.0427     0.5885     0.1802     7.1932     0.6148   288.3200     6.9049     0.0588
  903   18.040   3255.96     7.1680     0.0403     0.5755     0.1804     7.4166     0.5727   288.6400     7.1279     0.0577
  904   18.060   3257.14     7.5436     0.0379     0.5531     0.1806     7.7748     0.5116   288.9600     7.4858     0.0494
  905   18.080   3258.35     7.7712     0.0366     0.5650     0.1808     8.0061     0.4765   289.2800     7.7168     0.0491
  906   18.100   3259.23     7.8858     0.0386     0.5528     0.1810     8.1224     0.4919   289.6000     7.8328     0.0488
  907   18.120   3260.12     7.9337     0.0446     0.5444     0.1812     8.1591     0.5618   289.9200     7.8692     0.0452
  908   18.140   3260.94     7.7932     0.0535     0.5801     0.1814     8.0278     0.6808   290.2400     7.7376     0.0487
  909   18.160   3262.18     7.5349     0.0628     0.6239     0.1816     7.7925     0.8262   290.5600     7.5020     0.0576
  910   18.180   3263.45     7.4911     0.0676     0.6666     0.1818     7.7654     0.9094   290.8800     7.4745     0.0630
  911   18.200   3264.36     7.7418     0.0728     0.6755     0.1820     8.0261     0.9587   291.2000     7.7349     0.0640
  912   18.220   3265.22     8.3454     0.0775     0.6389     0.1822     8.6219     0.9218   291.5200     8.3304     0.0572
  913   18.240   3266.17     9.5056     0.0827     0.5797     0.1824     9.7579     0.8581   291.8400     9.4661     0.0443
  914   18.260   3267.30    11.4475     0.0839     0.4847     0.1826    11.6648     0.7497   292.1600    11.3727     0.0295
  915   18.280   3268.54    13.4355     0.1043     0.4239     0.1828    13.6196     0.8340   292.4800    13.3272     0.0192
  916   18.300   3269.61    16.2221     0.0968     0.3558     0.1830    16.3835     0.6195   292.8000    16.0907     0.0126
  917   18.320   3270.92    19.3265     0.1412     0.2718     0.1832    19.4472     0.7586   293.1200    19.1541     0.0056
  918   18.340   3273.69    22.9639     0.1250     0.2265     0.1834    23.0656     0.6719   293.4400    22.7722     0.0031
  919   18.360   3276.45    26.6009     0.1313     0.1932     0.1836    26.6836     0.6994   293.7600    26.3899     0.0006
  920   18.380   3280.06    28.1205     0.1505     0.2063     0.1838    28.2295     0.6319   294.0800    27.9354     0.0028
  921   18.400   3281.17    32.6362     0.1696     0.1898     0.1840    32.7190     0.5643   294.4000    32.4246     0.0004
  922   18.420   3282.30    35.5104     0.2103     0.1980     0.1842    35.5725     0.6075   294.7200    35.2778    -0.0010
  923   18.440   3285.05    34.9577     0.1923     0.1317     0.1844    35.0474     0.5671   295.0400    34.7524     0.0009
  924   18.460   3286.09    38.6193     0.1955     0.1255     0.1846    38.6678     0.5086   295.3600    38.3725    -0.0018
  925   18.480   3287.96    39.5332     0.1926     0.0995     0.1848    39.5788     0.4981   295.6800    39.2832    -0.0019
  926   18.500   3290.35    40.3907     0.1896     0.0731     0.1850    40.4252     0.4876   296.0000    40.1292    -0.0025
  927   18.520   3292.80    41.0611     0.1844     0.1663     0.1852    41.0772     0.4648   296.3200    40.7809    -0.0036
  928   18.540   3295.22    40.7394     0.1715     0.0469     0.1854    40.7649     0.4291   296.6400    40.4683    -0.0031
  929   18.560   3296.21    40.6132     0.1631     0.0342     0.1856    40.6277     0.4015   296.9600    40.3308    -0.0037
  930   18.580   3298.19    39.8595     0.1518     0.0336     0.1858    39.8737     0.3752   297.2800    39.5764    -0.0038
  931   18.600   3300.53    39.0550     0.1474     0.0329     0.1860    39.0689     0.3643   297.6000    38.7713    -0.0039
  932   18.620   3302.63    38.1024     0.1410     0.0361     0.1862    38.1169     0.3625   297.9200    37.8190    -0.0040
  933   18.640   3303.80    36.3694     0.1363     0.0515     0.1864    36.3883     0.3712   298.2400    36.0900    -0.0039
  934   18.660   3304.89    34.9001     0.1253     0.0670     0.1866    34.9241     0.3553   298.5600    34.6255    -0.0037
  935   18.680   3305.61    33.9800     0.1191     0.0678     0.1868    34.0114     0.3463   298.8800    33.7125    -0.0033
  936   18.700   3306.45    32.9995     0.1177     0.0994     0.1870    33.0407     0.3532   299.2000    32.7415    -0.0027
  937   18.720   3307.39    31.9991     0.1133     0.1202     0.1872    32.0394     0.3512   299.5200    31.7399    -0.0029
  938   18.740   3308.55    30.9174     0.1067     0.1305     0.1874    30.9699     0.3428   299.8400    30.6701    -0.0020
  939   18.760   3309.73    29.9312     0.0974     0.1101     0.1876    29.9809     0.3209   300.1600    29.6807    -0.0023
  940   18.780   3310.48    29.2782     0.0941     0.1384     0.1878    29.3262     0.3191   300.4800    29.0257    -0.0025
  941   18.800   3311.32    28.4978     0.0921     0.0968     0.1880    28.5453     0.3209   300.8000    28.2445    -0.0027
  942   18.820   3312.21    27.5428     0.0916     0.1237     0.1882    27.5864     0.3298   301.1200    27.2853    -0.0031
  943   18.840   3313.34    26.1793     0.0957     0.1718     0.1884    26.2436     0.3616   301.4400    25.9422    -0.0014
  944   18.860   3314.49    24.8694     0.1000     0.2201     0.1886    24.9591     0.3933   301.7600    24.6573     0.0010
  945   18.880   3315.45    24.2427     0.1007     0.2415     0.1888    24.3488     0.4150   302.0800    24.0467     0.0027
  946   18.900   3316.28    23.8393     0.0929     0.2297     0.1890    23.9347     0.3862   302.4000    23.6323     0.0016
  947   18.920   3317.13    23.5901     0.0846     0.2454     0.1892    23.6921     0.3578   302.7200    23.3894     0.0023
  948   18.940   3318.19    23.3686     0.0790     0.2195     0.1894    23.4631     0.3369   303.0400    23.1600     0.0015
  949   18.960   3319.17    23.3324     0.0782     0.2238     0.1896    23.4270     0.3352   303.3600    23.1236     0.0015
  950   18.980   3320.03    23.1860     0.0771     0.1945     0.1898    23.2676     0.3316   303.6800    22.9639     0.0002
  951   19.000   3320.98    22.8359     0.0767     0.2167     0.1900    22.9218     0.3334   304.0000    22.6178     0.0006
  952   19.020   3322.00    22.1718     0.0792     0.2482     0.1902    22.2683     0.3567   304.3200    21.9639     0.0018
  953   19.040   3323.00    21.6169     0.0828     0.2682     0.1904    21.7260     0.3778   304.6400    21.4214     0.0032
  954   19.060   3323.96    21.2218     0.0854     0.2775     0.1906    21.3393     0.3995   304.9600    21.0343     0.0042
  955   19.080   3324.92    20.8413     0.0856     0.2808     0.1908    20.9586     0.4070   305.2800    20.6533     0.0043
  956   19.100   3325.74    20.5865     0.0830     0.2976     0.1910    20.7093     0.4005   305.6000    20.4037     0.0050
  957   19.120   3326.59    20.4610     0.1107     0.2987     0.1912    20.5866     0.5393   305.9200    20.2807     0.0053
  958   19.140   3327.61    20.4958     0.1011     0.2925     0.1914    20.6178     0.4925   306.2400    20.3115     0.0049
  959   19.160   3328.65    20.8365     0.0912     0.2832     0.1916    20.9573     0.4400   306.5600    20.6507     0.0047
  960   19.180   3329.63    21.3979     0.0849     0.2601     0.1918    21.5097     0.4014   306.8800    21.2029     0.0035
  961   19.200   3330.59    22.0565     0.0842     0.2409     0.1920    22.1601     0.3851   307.2000    21.8529     0.0025
  962   19.220   3332.97    21.2624     0.0871     0.2463     0.1922    21.3732     0.4070   307.5200    21.0657     0.0034
  963   19.240   3355.95    22.7451     0.0861     0.1685     0.1924    22.8271     0.4126   307.8400    22.5193     0.0004
  964   19.260   3377.02    24.5884     0.0799     0.1399     0.1926    24.6424     0.3535   308.1600    24.3343    -0.0026
  965   19.280   3377.89    24.8424     0.0713     0.1740     0.1928    24.9113     0.2882   308.4800    24.6029    -0.0012
  966   19.300   3378.82    25.3109     0.0644     0.1396     0.1930    25.3798     0.2556   308.8000    25.0710    -0.0012
  967   19.320   3380.12    26.1135     0.0564     0.0659     0.1932    26.1470     0.2180   309.1200    25.8379    -0.0044
  968   19.340   3381.26    26.6119     0.0449    -0.0032     0.1934    26.6193     0.1689   309.4400    26.3099    -0.0067
  969   19.360   3381.88    26.7628     0.0438    -0.0058     0.1936    26.7614     0.1641   309.7600    26.4517    -0.0074
  970   19.380   3382.72    26.9928     0.0465    -0.0333     0.1938    26.9826     0.1728   310.0800    26.6725    -0.0082
  971   19.400   3383.62    27.3990     0.0549    -0.0114     0.1940    27.3900     0.2012   310.4000    27.0796    -0.0080
  972   19.420   3384.87    28.0753     0.0649     0.0575     0.1942    28.0904     0.2340   310.7200    27.7797    -0.0057
  973   19.440   3386.17    28.8145     0.0691     0.0658     0.1944    28.8440     0.2417   311.0400    28.5330    -0.0044
  974   19.460   3386.90    29.4253     0.0689     0.0797     0.1946    29.4586     0.2369   311.3600    29.1473    -0.0040
  975   19.480   3387.58    29.8917     0.0699     0.0946     0.1948    29.9269     0.2347   311.6800    29.6152    -0.0038
  976   19.500   3388.60    30.8791     0.0704     0.0862     0.1950    30.9199     0.2315   312.0000    30.6079    -0.0032
  977   19.520   3389.87    32.1234     0.0752     0.0560     0.1952    32.1581     0.2359   312.3200    31.8458    -0.0035
  978   19.540   3391.02    33.1843     0.0786     0.0393     0.1954    33.2003     0.2377   312.6400    32.8877    -0.0048
  979   19.560   3391.77    34.2923     0.0824     0.0427     0.1956    34.3103     0.2439   312.9600    33.9973    -0.0045
  980   19.580   3392.59    35.5803     0.0892     0.0521     0.1958    35.5980     0.2540   313.2800    35.2847    -0.0044
  981   19.600   3393.62    37.7864                0.0125     0.1960    37.8004              313.6000    37.4868    -0.0043
  982   19.620   3395.05    41.1834               -0.0100     0.1962    41.1796              313.9200    40.8656    -0.0050
  983   19.640   3396.07    44.0292               -0.0425     0.1964    44.0172              314.2400    43.7029    -0.0051
  984   19.660   3397.01    46.8791               -0.0367     0.1966    46.8654              314.5600    46.5508    -0.0049
  985   19.680   3397.94    49.5099               -0.0335     0.1968    49.4974              314.8800    49.1825    -0.0046
  986   19.698   3398.91    52.2704                           0.1970    52.2571              315.1671    51.9420    -0.0044
 
 
