

 Program UNIPLOT                         version 05.36.02
 _______________
 (c) Fugro Netherlands Marine, Nootdorp, The Netherlands


 ASCII representation of data plotted on a graph.

 This ASCII file presents data interpolated to values per fixed depth interval.
 The data are corrected for the depth-offset differences between the various 
 transducers in the penetrometer.

 The records at the start of penetration may include no values or anomalous
 values where a depth offset implies incomplete penetration of a particular
 sensor into the ground.

 The records at the end of penetration may include no values for data channels
 where the transducer did not reach this depth.

 The reference level for test values is (1) the ground surface for onshore tests and (2) the seafloor for nearshore and offshore tests.

 UNICAS data file          : CPT-2024.000                            
 Output using command file : PlotASCII.cmd

 ASCII file created at : date          :11-Dec-2021
                         time          :09:48:09
 Project number                        :20024805
 Date of testing                       :10-Dec-2021
 Location                              :Hong Kong Offshore Wind Farm Project
 Test name                             :CPT-2024
 Penetrometer                          :F7.5CKE2HAW2/B/3284
 Serial no                             :1701-3284

 Table description:
 Column ID                             :Parameter name
 ___________________________________________________________________________________
 Rec                                   :Record ID, Record ID [-]
 Depth                                 :Depth, Depth [m]
 Time                                  :Time, Time [s]
 Cone                                  :Cone Resistance, Cone Resistance [MPa]
 Friction                              :Sleeve Friction, Sleeve Friction [MPa]
 Pore 2                                :Porewater Pressure, Porewater Pressure at Shoulder [MPa]
 HydroPress                            :Hydrostatic Pressure, Hydrostatic Pressure [MPa]
 qt                                    :Total Cone Resistance, Total Cone Resistance [MPa]
 Fric_ratio                            :Friction Ratio, Friction Ratio [%]
 SigmaVert                             :Vertical stress, Vertical stress [kPa] as specified in ground model
 Qnet                                  :Net Cone Resistance, Net Cone Resistance [MPa], unit weight as specified in ground model
 Bq                                    :Porewater Pressure Ratio, Porewater Pressure Ratio [-], unit weight as specified in ground model


 Data table:
  Rec    Depth      Time       Cone   Friction     Pore 2 HydroPress         qt Fric_ratio  SigmaVert       Qnet         Bq
   No        m         s        MPa        MPa        MPa        MPa        MPa          %        kPa        MPa          -
    1    0.000   1578.69     0.0000                           0.0000     0.0000                0.0000     0.0000           
    2    0.020   1617.54     0.0226               -0.0002     0.0002     0.0228                0.3200     0.0225     0.0175
    3    0.040   1618.49     0.0239               -0.0010     0.0004     0.0236                0.6400     0.0230    -0.0484
    4    0.060   1619.43     0.0258     0.0002    -0.0015     0.0006     0.0252     0.9526     0.9600     0.0243    -0.0796
    5    0.080   1620.38     0.0268     0.0008    -0.0018     0.0008     0.0261     2.9446     1.2800     0.0248    -0.1050
    6    0.100   1621.34     0.0295     0.0009    -0.0006     0.0010     0.0292     3.2653     1.6000     0.0276    -0.0690
    7    0.120   1622.29     0.0280     0.0009    -0.0008     0.0012     0.0279     3.2894     1.9200     0.0259    -0.0591
    8    0.140   1623.24     0.0301     0.0010     0.0008     0.0014     0.0301     3.2565     2.2400     0.0278    -0.0513
    9    0.160   1624.19     0.0340     0.0012     0.0011     0.0016     0.0342     3.6957     2.5600     0.0316    -0.0355
   10    0.180   1625.15     0.0389     0.0017     0.0009     0.0018     0.0395     4.3578     2.8800     0.0367    -0.0104
   11    0.200   1626.08     0.0393     0.0018     0.0004     0.0020     0.0395     4.9999     3.2000     0.0363    -0.0466
   12    0.220   1627.03     0.0393     0.0017     0.0003     0.0022     0.0395     4.2331     3.5200     0.0360    -0.0473
   13    0.240   1628.01     0.0402     0.0017     0.0000     0.0024     0.0402     3.8443     3.8400     0.0364    -0.0676
   14    0.260   1628.94     0.0429     0.0018    -0.0001     0.0026     0.0429     4.1812     4.1600     0.0387    -0.0672
   15    0.280   1629.91     0.0390     0.0017    -0.0010     0.0028     0.0386     4.2528     4.4800     0.0341    -0.1057
   16    0.300   1630.85     0.0425     0.0017    -0.0006     0.0030     0.0422     4.1191     4.8000     0.0374    -0.1003
   17    0.320   1631.80     0.0442     0.0021    -0.0004     0.0032     0.0440     4.9188     5.1200     0.0389    -0.0911
   18    0.340   1632.78     0.0442     0.0021     0.0007     0.0034     0.0442     4.7883     5.4400     0.0388    -0.0835
   19    0.360   1633.73     0.0435     0.0021     0.0016     0.0036     0.0439     4.6634     5.7600     0.0382    -0.0683
   20    0.380   1634.69     0.0474     0.0019     0.0031     0.0038     0.0484     4.1061     6.0800     0.0423    -0.0323
   21    0.400   1635.63     0.0455     0.0020     0.0048     0.0040     0.0473     4.1197     6.4000     0.0409     0.0053
   22    0.420   1636.57     0.0451     0.0019     0.0060     0.0042     0.0475     3.9513     6.7200     0.0408     0.0379
   23    0.440   1637.51     0.0482     0.0020     0.0066     0.0044     0.0509     4.3524     7.0400     0.0438     0.0446
   24    0.460   1638.45     0.0457     0.0020     0.0076     0.0046     0.0488     4.5720     7.3600     0.0414     0.0662
   25    0.480   1639.40     0.0478     0.0019     0.0075     0.0048     0.0510     4.2093     7.6800     0.0433     0.0670
   26    0.500   1640.35     0.0507     0.0016     0.0080     0.0050     0.0540     3.1191     8.0000     0.0460     0.0614
   27    0.520   1641.31     0.0483     0.0018     0.0083     0.0052     0.0518     3.7947     8.3200     0.0435     0.0719
   28    0.540   1642.30     0.0521     0.0013     0.0088     0.0054     0.0557     2.4074     8.6400     0.0470     0.0674
   29    0.560   1643.26     0.0536     0.0018     0.0095     0.0056     0.0576     3.3508     8.9600     0.0487     0.0793
   30    0.580   1644.21     0.0531     0.0018     0.0102     0.0058     0.0573     3.5803     9.2800     0.0481     0.0883
   31    0.600   1645.13     0.0561     0.0018     0.0107     0.0060     0.0604     3.3358     9.6000     0.0508     0.0870
   32    0.620   1646.11     0.0564     0.0017     0.0109     0.0062     0.0610     2.9518     9.9200     0.0511     0.0907
   33    0.640   1647.07     0.0632     0.0013     0.0113     0.0064     0.0679     2.2197    10.2400     0.0577     0.0834
   34    0.660   1648.02     0.0595     0.0016     0.0121     0.0066     0.0644     2.6316    10.5600     0.0539     0.0976
   35    0.680   1648.99     0.0614     0.0016     0.0120     0.0068     0.0665     2.7061    10.8800     0.0556     0.0954
   36    0.700   1649.98     0.0636     0.0014     0.0118     0.0070     0.0686     2.2758    11.2000     0.0574     0.0853
   37    0.720   1650.94     0.0636     0.0017     0.0115     0.0072     0.0684     2.6401    11.5200     0.0569     0.0761
   38    0.740   1651.86     0.0676     0.0017     0.0114     0.0074     0.0724     2.5827    11.8400     0.0605     0.0651
   39    0.760   1652.84     0.0728     0.0016     0.0120     0.0076     0.0777     2.2128    12.1600     0.0656     0.0610
   40    0.780   1653.79     0.0688     0.0019     0.0127     0.0078     0.0739     2.6517    12.4800     0.0614     0.0697
   41    0.800   1654.74     0.0705     0.0018     0.0132     0.0080     0.0759     2.5325    12.8000     0.0631     0.0785
   42    0.820   1655.69     0.0730     0.0017     0.0144     0.0082     0.0789     2.2670    13.1200     0.0657     0.0884
   43    0.840   1656.65     0.0765     0.0018     0.0150     0.0084     0.0828     2.4187    13.4400     0.0694     0.0949
   44    0.860   1657.63     0.0752     0.0014     0.0152     0.0086     0.0815     1.9749    13.7600     0.0678     0.0949
   45    0.880   1658.59     0.0790     0.0014     0.0154     0.0088     0.0856     1.7961    14.0800     0.0715     0.0945
   46    0.900   1659.54     0.0808     0.0015     0.0149     0.0090     0.0871     1.8380    14.4000     0.0727     0.0828
   47    0.920   1660.49     0.0816     0.0019     0.0151     0.0092     0.0879     2.3829    14.7200     0.0732     0.0801
   48    0.940   1661.45     0.0821     0.0021     0.0159     0.0094     0.0886     2.4926    15.0400     0.0736     0.0833
   49    0.960   1662.40     0.0831     0.0020     0.0161     0.0096     0.0898     2.4984    15.3600     0.0745     0.0849
   50    0.980   1663.36     0.0827     0.0017     0.0175     0.0098     0.0898     2.1077    15.6800     0.0741     0.0954
   51    1.000   1664.31     0.0854     0.0015     0.0187     0.0100     0.0930     1.7833    16.0000     0.0770     0.1055
   52    1.020   1665.26     0.0863     0.0020     0.0199     0.0102     0.0945     2.2544    16.3200     0.0782     0.1190
   53    1.040   1666.22     0.0864     0.0019     0.0208     0.0104     0.0950     2.1423    16.6400     0.0784     0.1295
   54    1.060   1667.14     0.0911     0.0019     0.0216     0.0106     0.1001     2.1217    16.9600     0.0832     0.1309
   55    1.080   1668.09     0.0918     0.0016     0.0223     0.0108     0.1013     1.8408    17.2800     0.0840     0.1389
   56    1.100   1669.05     0.0928     0.0019     0.0201     0.0110     0.1014     2.0342    17.6000     0.0838     0.1125
   57    1.120   1670.00     0.0929     0.0012     0.0216     0.0112     0.1017     1.2316    17.9200     0.0838     0.1174
   58    1.140   1670.95     0.0946     0.0019     0.0227     0.0114     0.1040     2.0728    18.2400     0.0858     0.1287
   59    1.160   1671.95     0.0946     0.0015     0.0234     0.0116     0.1043     1.5985    18.5600     0.0857     0.1345
   60    1.180   1672.90     0.0964     0.0018     0.0251     0.0118     0.1066     1.8238    18.8800     0.0878     0.1442
   61    1.200   1673.86     0.0975     0.0022     0.0261     0.0120     0.1084     2.2228    19.2000     0.0892     0.1560
   62    1.220   1674.81     0.1072     0.0017     0.0283     0.0122     0.1188     1.6989    19.5200     0.0993     0.1550
   63    1.240   1675.77     0.1249     0.0017     0.0298     0.0124     0.1371     1.3968    19.8400     0.1173     0.1432
   64    1.260   1676.73     0.1387     0.0030     0.0192     0.0126     0.1514     2.3510    20.1600     0.1313     0.1343
   65    1.280   1677.68     0.1581     0.0039     0.0154     0.0128     0.1659     2.5605    20.4800     0.1454     0.0397
   66    1.300   1678.63     0.1561     0.0051     0.0111     0.0130     0.1620     3.1779    20.8000     0.1412     0.0079
   67    1.320   1679.57     0.2647     0.0068     0.0055     0.0132     0.2674     3.5389    21.1200     0.2463    -0.0272
   68    1.340   1680.54     0.4391     0.0074     0.0052     0.0134     0.4412     1.8964    21.4400     0.4197    -0.0205
   69    1.360   1681.51     0.5191     0.0054     0.0044     0.0136     0.5213     1.0655    21.7600     0.4995    -0.0168
   70    1.380   1682.47     0.4876     0.0040    -0.0631     0.0138     0.4760     0.7713    22.0800     0.4539    -0.0973
   71    1.400   1683.41     0.3828     0.0031    -0.1079     0.0140     0.3408     0.7276    22.4000     0.3184    -0.3664
   72    1.420   1684.37     0.2766     0.0025    -0.0740     0.0142     0.2394     0.7797    22.7200     0.2167    -0.4755
   73    1.440   1685.33     0.1932     0.0026    -0.0401     0.0144     0.1721     1.2153    23.0400     0.1491    -0.4317
   74    1.460   1686.28     0.1496     0.0018    -0.0181     0.0146     0.1388     1.1291    23.3600     0.1154    -0.3493
   75    1.480   1687.24     0.1323     0.0018     0.0002     0.0148     0.1302     1.3005    23.6800     0.1065    -0.1874
   76    1.500   1688.19     0.1287     0.0012     0.0098     0.0150     0.1317     0.9678    24.0000     0.1077    -0.0722
   77    1.520   1689.14     0.1287     0.0015     0.0141     0.0152     0.1345     1.1261    24.3200     0.1102    -0.0136
   78    1.540   1690.07     0.1243     0.0015     0.0188     0.0154     0.1311     1.2319    24.6400     0.1065     0.0067
   79    1.560   1691.04     0.1225     0.0016     0.0235     0.0156     0.1322     1.2970    24.9600     0.1072     0.0695
   80    1.580   1692.00     0.1254     0.0012     0.0265     0.0158     0.1358     0.9844    25.2800     0.1105     0.0801
   81    1.600   1692.95     0.1242     0.0018     0.0322     0.0160     0.1368     1.4352    25.6000     0.1112     0.1260
   82    1.620   1693.90     0.1196     0.0010     0.0370     0.0162     0.1348     0.8218    25.9200     0.1089     0.1823
   83    1.640   1694.88     0.1197     0.0015     0.0385     0.0164     0.1358     1.2589    26.2400     0.1095     0.1988
   84    1.660   1695.83     0.1242     0.0023     0.0406     0.0166     0.1410     1.9090    26.5600     0.1144     0.2034
   85    1.680   1696.78     0.1535     0.0029     0.0429     0.0168     0.1712     2.2725    26.8800     0.1443     0.1824
   86    1.700   1697.73     0.2849     0.0035     0.0454     0.0170     0.3035     1.5400    27.2000     0.2763     0.0990
   87    1.720   1698.70     0.3337     0.0032     0.0229     0.0172     0.3537     0.9686    27.5200     0.3262     0.0929
   88    1.740   1699.64     0.2345     0.0024     0.0139     0.0174     0.2387     0.9082    27.8400     0.2109    -0.0344
   89    1.760   1700.60     0.1939     0.0020     0.0247     0.0176     0.2031     0.9316    28.1600     0.1750     0.0258
   90    1.780   1701.55     0.1673     0.0025     0.0297     0.0178     0.1791     1.4424    28.4800     0.1506     0.0684
   91    1.800   1702.51     0.1594     0.0040     0.0381     0.0180     0.1738     2.5483    28.8000     0.1450     0.1126
   92    1.820   1703.45     0.1954     0.0044     0.0509     0.0182     0.2150     2.3432    29.1200     0.1859     0.1534
   93    1.840   1704.41     0.2175     0.0038     0.0411     0.0184     0.2382     1.9646    29.4400     0.2087     0.1472
   94    1.860   1705.37     0.1968     0.0041     0.0259     0.0186     0.2080     2.2701    29.7600     0.1782     0.0440
   95    1.880   1706.35     0.1753     0.0045     0.0298     0.0188     0.1872     2.5756    30.0800     0.1571     0.0604
   96    1.900   1707.30     0.1612     0.0047     0.0295     0.0190     0.1737     2.8079    30.4000     0.1433     0.0742
   97    1.920   1708.24     0.1420     0.0039     0.0379     0.0192     0.1564     2.7659    30.7200     0.1257     0.1205
   98    1.940   1709.74     0.1407     0.0033     0.0443     0.0194     0.1587     2.3089    31.0400     0.1276     0.1833
   99    1.960   1725.02     0.1324     0.0034     0.0488     0.0196     0.1523     2.4222    31.3600     0.1209     0.2340
  100    1.980   1740.31     0.1241     0.0033     0.0533     0.0198     0.1459     2.3285    31.6800     0.1142     0.2848
  101    2.000   1752.87     0.1157     0.0027     0.0589     0.0200     0.1395     2.1667    32.0000     0.1075     0.3415
  102    2.020   1753.83     0.1188     0.0021     0.0612     0.0202     0.1443     1.8559    32.3200     0.1119     0.3606
  103    2.040   1754.81     0.1160     0.0023     0.0625     0.0204     0.1422     1.9352    32.6400     0.1096     0.3841
  104    2.060   1755.76     0.1169     0.0034     0.0665     0.0206     0.1442     2.8931    32.9600     0.1112     0.3989
  105    2.080   1756.70     0.2892     0.0037     0.0709     0.0208     0.3185     2.4833    33.2800     0.2852     0.1814
  106    2.100   1757.67     1.1324     0.0045     0.0668     0.0210     1.1626     0.6609    33.6000     1.1290     0.0469
  107    2.120   1758.64     2.2720     0.0043     0.0034     0.0212     2.2839     0.2252    33.9200     2.2500     0.0036
  108    2.140   1759.59     2.3713     0.0049    -0.0248     0.0214     2.3613     0.1992    34.2400     2.3271    -0.0195
  109    2.160   1760.51     1.9908     0.0054    -0.0183     0.0216     1.9820     0.2500    34.5600     1.9475    -0.0218
  110    2.180   1761.47     1.6046     0.0065    -0.0075     0.0218     1.5996     0.3726    34.8800     1.5647    -0.0215
  111    2.200   1762.45     1.2007     0.0082     0.0042     0.0220     1.2010     0.6151    35.2000     1.1658    -0.0182
  112    2.220   1763.38     0.8690     0.0095     0.0126     0.0222     0.8731     0.9841    35.5200     0.8376    -0.0145
  113    2.240   1764.33     0.6209     0.0120     0.0174     0.0224     0.6276     1.7171    35.8400     0.5918    -0.0106
  114    2.260   1765.29     0.4455     0.0133     0.0218     0.0226     0.4541     2.6597    36.1600     0.4180    -0.0049
  115    2.280   1766.24     0.3215     0.0121     0.0254     0.0228     0.3317     3.3406    36.4800     0.2952     0.0054
  116    2.300   1767.19     0.2514     0.0107     0.0285     0.0230     0.2630     3.8873    36.8000     0.2262     0.0206
  117    2.320   1768.14     0.2227     0.0090     0.0320     0.0232     0.2360     3.8934    37.1200     0.1989     0.0424
  118    2.340   1769.13     0.1897     0.0070     0.0321     0.0234     0.2030     3.4119    37.4400     0.1656     0.0502
  119    2.360   1770.08     0.1560     0.0065     0.0366     0.0236     0.1702     3.9183    37.7600     0.1325     0.0778
  120    2.380   1771.03     0.1507     0.0064     0.0600     0.0238     0.1718     4.4014    38.0800     0.1337     0.1941
  121    2.400   1771.99     0.1662     0.0053     0.0763     0.0240     0.1970     3.3226    38.4000     0.1586     0.3115
  122    2.420   1772.92     0.1852     0.0045     0.0726     0.0242     0.2171     2.4896    38.7200     0.1784     0.2905
  123    2.440   1773.87     0.1836     0.0032     0.0448     0.0244     0.2057     1.7189    39.0400     0.1667     0.1697
  124    2.460   1774.82     0.1814     0.0028     0.0465     0.0246     0.2000     1.5286    39.3600     0.1606     0.1228
  125    2.480   1775.78     0.1518     0.0043     0.0577     0.0248     0.1746     2.6589    39.6800     0.1349     0.2182
  126    2.500   1776.72     0.1529     0.0042     0.0698     0.0250     0.1805     2.8882    40.0000     0.1405     0.2896
  127    2.520   1777.70     0.1573     0.0044     0.0730     0.0252     0.1881     2.8936    40.3200     0.1478     0.3253
  128    2.540   1778.66     0.1656     0.0043     0.0571     0.0254     0.1932     2.6004    40.6400     0.1526     0.2644
  129    2.560   1779.61     0.1597     0.0047     0.0510     0.0256     0.1808     2.8888    40.9600     0.1398     0.1747
  130    2.580   1780.56     0.1403     0.0044     0.0568     0.0258     0.1635     2.9365    41.2800     0.1222     0.2409
  131    2.600   1781.52     0.1294     0.0044     0.0635     0.0260     0.1549     3.4004    41.6000     0.1133     0.3053
  132    2.620   1782.47     0.1286     0.0029     0.0711     0.0262     0.1574     2.2616    41.9200     0.1155     0.3677
  133    2.640   1783.40     0.1323     0.0031     0.0742     0.0264     0.1632     2.3959    42.2400     0.1210     0.3893
  134    2.660   1784.34     0.1378     0.0037     0.0767     0.0266     0.1695     2.7647    42.5600     0.1270     0.3856
  135    2.680   1785.35     0.2078     0.0045     0.0797     0.0268     0.2410     2.5856    42.8800     0.1981     0.2649
  136    2.700   1786.31     0.2894     0.0041     0.0744     0.0270     0.3224     1.6090    43.2000     0.2792     0.1856
  137    2.720   1787.26     0.3146     0.0043     0.0480     0.0272     0.3384     1.3758    43.5200     0.2949     0.0998
  138    2.740   1788.21     0.3070     0.0041     0.0435     0.0274     0.3255     1.3167    43.8400     0.2816     0.0584
  139    2.760   1789.16     0.2725     0.0050     0.0491     0.0276     0.2914     1.7292    44.1600     0.2472     0.0699
  140    2.780   1790.12     0.2378     0.0057     0.0599     0.0278     0.2621     2.3047    44.4800     0.2177     0.1390
  141    2.800   1791.07     0.2198     0.0058     0.0595     0.0280     0.2451     2.5305    44.8000     0.2003     0.1606
  142    2.820   1792.03     0.2153     0.0058     0.0568     0.0282     0.2399     2.6603    45.1200     0.1948     0.1553
  143    2.840   1792.97     0.2137     0.0060     0.0500     0.0284     0.2354     2.7596    45.4400     0.1900     0.1224
  144    2.860   1793.94     0.1973     0.0062     0.0475     0.0286     0.2177     3.0488    45.7600     0.1719     0.1161
  145    2.880   1794.91     0.1749     0.0058     0.0482     0.0288     0.1953     3.1684    46.0800     0.1492     0.1321
  146    2.900   1795.82     0.1585     0.0061     0.0484     0.0290     0.1786     3.7009    46.4000     0.1322     0.1429
  147    2.920   1796.77     0.1445     0.0057     0.0470     0.0292     0.1639     3.8307    46.7200     0.1172     0.1450
  148    2.940   1797.77     0.1342     0.0055     0.0516     0.0294     0.1552     4.0339    47.0400     0.1081     0.1901
  149    2.960   1798.67     0.1301     0.0051     0.0628     0.0296     0.1552     3.9076    47.3600     0.1079     0.2799
  150    2.980   1799.62     0.1359     0.0051     0.0675     0.0298     0.1638     3.8302    47.6800     0.1161     0.3143
  151    3.000   1800.62     0.1537     0.0053     0.0702     0.0300     0.1831     3.6381    48.0000     0.1351     0.2956
  152    3.020   1801.58     0.1788     0.0053     0.0735     0.0302     0.2089     3.1512    48.3200     0.1605     0.2586
  153    3.040   1802.54     0.2042     0.0049     0.0704     0.0304     0.2351     2.5629    48.6400     0.1865     0.2322
  154    3.060   1803.48     0.2201     0.0052     0.0626     0.0306     0.2471     2.4107    48.9600     0.1981     0.1700
  155    3.080   1804.44     0.2299     0.0050     0.0611     0.0308     0.2560     2.1812    49.2800     0.2067     0.1517
  156    3.100   1805.42     0.2312     0.0054     0.0598     0.0310     0.2559     2.2986    49.6000     0.2063     0.1349
  157    3.120   1806.40     0.2247     0.0055     0.0603     0.0312     0.2505     2.4497    49.9200     0.2006     0.1508
  158    3.140   1807.35     0.2216     0.0054     0.0569     0.0314     0.2457     2.4320    50.2400     0.1954     0.1325
  159    3.160   1808.29     0.2183     0.0057     0.0551     0.0316     0.2421     2.5965    50.5600     0.1915     0.1309
  160    3.180   1809.26     0.2008     0.0059     0.0496     0.0318     0.2231     2.8022    50.8800     0.1722     0.1238
  161    3.200   1810.25     0.1796     0.0056     0.0409     0.0320     0.1977     2.9159    51.2000     0.1465     0.0771
  162    3.220   1811.17     0.1616     0.0052     0.0412     0.0322     0.1783     3.0595    51.5200     0.1268     0.0599
  163    3.240   1812.15     0.1417     0.0050     0.0466     0.0324     0.1606     3.3319    51.8400     0.1088     0.1164
  164    3.260   1813.12     0.1261     0.0051     0.0667     0.0326     0.1510     3.8910    52.1600     0.0988     0.2703
  165    3.280   1814.09     0.1144     0.0057     0.0759     0.0328     0.1456     4.8889    52.4800     0.0931     0.4445
  166    3.300   1815.04     0.1374     0.0063     0.0805     0.0330     0.1704     5.2262    52.8000     0.1176     0.3913
  167    3.320   1816.00     0.2261     0.0077     0.0873     0.0332     0.2620     4.0010    53.1200     0.2089     0.2536
  168    3.340   1816.97     0.3090     0.0089     0.0799     0.0334     0.3442     3.1650    53.4400     0.2908     0.1748
  169    3.360   1817.93     0.3537     0.0103     0.0858     0.0336     0.3875     3.0024    53.7600     0.3337     0.1398
  170    3.380   1818.88     0.3815     0.0114     0.1115     0.0338     0.4234     3.0804    54.0800     0.3693     0.1784
  171    3.400   1819.82     0.3908     0.0122     0.1425     0.0340     0.4492     3.1442    54.4000     0.3948     0.2659
  172    3.420   1820.79     0.4040     0.0125     0.1647     0.0342     0.4709     3.1211    54.7200     0.4162     0.3002
  173    3.440   1821.74     0.4197     0.0127     0.1756     0.0344     0.4914     3.0711    55.0400     0.4364     0.3124
  174    3.460   1822.70     0.4323     0.0129     0.1892     0.0346     0.5091     2.9963    55.3600     0.4537     0.3266
  175    3.480   1823.65     0.4365     0.0129     0.1999     0.0348     0.5189     2.9621    55.6800     0.4632     0.3482
  176    3.500   1824.60     0.4507     0.0133     0.2091     0.0350     0.5380     2.9868    56.0000     0.4820     0.3586
  177    3.520   1825.58     0.4627     0.0133     0.2138     0.0352     0.5520     2.9024    56.3200     0.4957     0.3579
  178    3.540   1826.54     0.4792     0.0136     0.2164     0.0354     0.5697     2.8651    56.6400     0.5130     0.3510
  179    3.560   1827.49     0.4833     0.0136     0.2160     0.0356     0.5743     2.8187    56.9600     0.5173     0.3498
  180    3.580   1828.44     0.4787     0.0138     0.2147     0.0358     0.5688     2.8854    57.2800     0.5115     0.3495
  181    3.600   1829.39     0.4723     0.0135     0.2268     0.0360     0.5643     2.8367    57.6000     0.5067     0.3611
  182    3.620   1830.35     0.4538     0.0130     0.2338     0.0362     0.5517     2.7992    57.9200     0.4938     0.3987
  183    3.640   1831.30     0.4452     0.0129     0.2492     0.0364     0.5482     2.8395    58.2400     0.4899     0.4262
  184    3.660   1832.25     0.4423     0.0128     0.2603     0.0366     0.5507     2.8798    58.5600     0.4921     0.4500
  185    3.680   1833.20     0.4341     0.0122     0.2672     0.0368     0.5452     2.7959    58.8800     0.4863     0.4685
  186    3.700   1834.16     0.4276     0.0125     0.2716     0.0370     0.5415     2.9529    59.2000     0.4823     0.4858
  187    3.720   1835.14     0.4294     0.0128     0.2788     0.0372     0.5453     2.9934    59.5200     0.4858     0.4918
  188    3.740   1851.89     0.4351     0.0117     0.2860     0.0374     0.5542     2.7131    59.8400     0.4944     0.4978
  189    3.760   1870.01     0.4408     0.0110     0.2932     0.0376     0.5630     2.5658    60.1600     0.5028     0.5034
  190    3.780   1883.44     0.4471     0.0111     0.2943     0.0378     0.5709     2.5090    60.4800     0.5104     0.5035
  191    3.800   1884.41     0.4598     0.0112     0.3053     0.0380     0.5858     2.4635    60.8000     0.5250     0.4993
  192    3.820   1885.34     0.4793     0.0115     0.3059     0.0382     0.6092     2.4363    61.1200     0.5480     0.4944
  193    3.840   1886.29     0.5131     0.0118     0.2943     0.0384     0.6386     2.3560    61.4400     0.5771     0.4511
  194    3.860   1887.26     0.5238     0.0129     0.2813     0.0386     0.6429     2.4633    61.7600     0.5811     0.4214
  195    3.880   1888.22     0.5326     0.0127     0.2902     0.0388     0.6498     2.3905    62.0800     0.5877     0.4086
  196    3.900   1889.20     0.5404     0.0131     0.3024     0.0390     0.6679     2.4305    62.4000     0.6055     0.4368
  197    3.920   1890.11     0.5569     0.0129     0.2958     0.0392     0.6826     2.3598    62.7200     0.6199     0.4195
  198    3.940   1891.06     0.5716     0.0123     0.2518     0.0394     0.6919     2.0660    63.0400     0.6289     0.3931
  199    3.960   1892.03     0.5326     0.0121     0.2430     0.0396     0.6247     2.2344    63.3600     0.5613     0.3197
  200    3.980   1892.98     0.5187     0.0125     0.2847     0.0398     0.6343     2.3941    63.6800     0.5706     0.4124
  201    4.000   1893.91     0.5174     0.0127     0.2913     0.0400     0.6387     2.4448    64.0000     0.5747     0.4330
  202    4.020   1894.90     0.5063     0.0128     0.3003     0.0402     0.6327     2.5267    64.3200     0.5683     0.4588
  203    4.040   1895.82     0.5040     0.0127     0.2992     0.0404     0.6301     2.5119    64.6400     0.5655     0.4596
  204    4.060   1896.82     0.5082     0.0123     0.3021     0.0406     0.6343     2.4375    64.9600     0.5694     0.4560
  205    4.080   1897.77     0.5073     0.0121     0.3077     0.0408     0.6350     2.3795    65.2800     0.5697     0.4623
  206    4.100   1898.72     0.5026     0.0126     0.3132     0.0410     0.6329     2.5164    65.6000     0.5673     0.4746
  207    4.120   1899.68     0.5072     0.0127     0.3140     0.0412     0.6401     2.5282    65.9200     0.5742     0.4794
  208    4.140   1900.63     0.5199     0.0133     0.3089     0.0414     0.6501     2.5831    66.2400     0.5839     0.4603
  209    4.160   1901.58     0.5322     0.0135     0.3008     0.0416     0.6593     2.5585    66.5600     0.5928     0.4404
  210    4.180   1902.58     0.5467     0.0135     0.3013     0.0418     0.6728     2.4957    66.8800     0.6060     0.4267
  211    4.200   1903.54     0.5539     0.0140     0.2943     0.0420     0.6789     2.5344    67.2000     0.6117     0.4180
  212    4.220   1904.46     0.5588     0.0141     0.2948     0.0422     0.6814     2.5328    67.5200     0.6138     0.4067
  213    4.240   1905.47     0.5539     0.0140     0.3081     0.0424     0.6821     2.5152    67.8400     0.6143     0.4282
  214    4.260   1906.43     0.5509     0.0140     0.3043     0.0426     0.6797     2.5421    68.1600     0.6116     0.4319
  215    4.280   1907.38     0.5495     0.0138     0.2997     0.0428     0.6747     2.5078    68.4800     0.6062     0.4209
  216    4.300   1908.30     0.5427     0.0134     0.3011     0.0430     0.6695     2.4537    68.8000     0.6007     0.4309
  217    4.320   1909.26     0.5362     0.0134     0.3135     0.0432     0.6652     2.4838    69.1200     0.5961     0.4431
  218    4.340   1910.20     0.5339     0.0136     0.3136     0.0434     0.6653     2.5458    69.4400     0.5959     0.4522
  219    4.360   1911.17     0.5354     0.0133     0.3136     0.0436     0.6666     2.4858    69.7600     0.5968     0.4503
  220    4.380   1912.11     0.5444     0.0135     0.3155     0.0438     0.6767     2.4823    70.0800     0.6066     0.4471
  221    4.400   1913.13     0.5507     0.0135     0.3097     0.0440     0.6828     2.4572    70.4000     0.6124     0.4420
  222    4.420   1914.10     0.5671     0.0144     0.3064     0.0442     0.6952     2.5702    70.7200     0.6245     0.4176
  223    4.440   1915.05     0.5661     0.0142     0.3138     0.0444     0.6969     2.5105    71.0400     0.6259     0.4269
  224    4.460   1916.01     0.5671     0.0151     0.3149     0.0446     0.6995     2.6671    71.3600     0.6282     0.4309
  225    4.480   1916.94     0.5805     0.0152     0.3169     0.0448     0.7128     2.6416    71.6800     0.6412     0.4217
  226    4.500   1917.88     0.5843     0.0153     0.3146     0.0450     0.7171     2.6190    72.0000     0.6451     0.4205
  227    4.520   1918.87     0.5810     0.0148     0.3233     0.0452     0.7147     2.5305    72.3200     0.6424     0.4252
  228    4.540   1919.77     0.5665     0.0144     0.3345     0.0454     0.7057     2.5097    72.6400     0.6331     0.4517
  229    4.560   1920.75     0.5611     0.0139     0.3472     0.0456     0.7045     2.4790    72.9600     0.6315     0.4682
  230    4.580   1921.70     0.5567     0.0135     0.3537     0.0458     0.7050     2.4261    73.2800     0.6317     0.4866
  231    4.600   1922.65     0.5621     0.0136     0.3576     0.0460     0.7121     2.4340    73.6000     0.6385     0.4875
  232    4.620   1923.61     0.5699     0.0144     0.3559     0.0462     0.7194     2.5514    73.9200     0.6455     0.4797
  233    4.640   1924.56     0.5839     0.0147     0.3572     0.0464     0.7340     2.5311    74.2400     0.6598     0.4713
  234    4.660   1925.51     0.5921     0.0152     0.3539     0.0466     0.7412     2.5854    74.5600     0.6667     0.4625
  235    4.680   1926.47     0.5956     0.0156     0.3544     0.0468     0.7444     2.6253    74.8800     0.6695     0.4590
  236    4.700   1927.44     0.5998     0.0159     0.3544     0.0470     0.7486     2.6589    75.2000     0.6734     0.4564
  237    4.720   1928.40     0.6074     0.0158     0.3592     0.0472     0.7578     2.5965    75.5200     0.6823     0.4556
  238    4.740   1929.35     0.6023     0.0160     0.3694     0.0474     0.7556     2.6528    75.8400     0.6797     0.4672
  239    4.760   1930.29     0.6042     0.0157     0.3757     0.0476     0.7617     2.5909    76.1600     0.6856     0.4776
  240    4.780   1931.24     0.6116     0.0159     0.3764     0.0478     0.7684     2.6076    76.4800     0.6919     0.4706
  241    4.800   1932.19     0.6135     0.0158     0.3790     0.0480     0.7720     2.5957    76.8000     0.6952     0.4739
  242    4.820   1933.14     0.6194     0.0161     0.3822     0.0482     0.7796     2.5856    77.1200     0.7025     0.4744
  243    4.840   1934.14     0.6225     0.0156     0.3898     0.0484     0.7852     2.4925    77.4400     0.7078     0.4791
  244    4.860   1935.06     0.6329     0.0157     0.3909     0.0486     0.7969     2.5125    77.7600     0.7191     0.4753
  245    4.880   1936.02     0.6381     0.0158     0.3952     0.0488     0.8037     2.4874    78.0800     0.7256     0.4758
  246    4.900   1936.92     0.6464     0.0167     0.3963     0.0490     0.8126     2.6061    78.4000     0.7342     0.4722
  247    4.920   1937.90     0.6534     0.0166     0.4007     0.0492     0.8215     2.5468    78.7200     0.7428     0.4729
  248    4.940   1938.88     0.6610     0.0169     0.3907     0.0494     0.8268     2.5846    79.0400     0.7478     0.4618
  249    4.960   1939.80     0.6642     0.0170     0.3908     0.0496     0.8279     2.5607    79.3600     0.7485     0.4543
  250    4.980   1940.76     0.6622     0.0178     0.3900     0.0498     0.8262     2.6891    79.6800     0.7465     0.4563
  251    5.000   1941.72     0.6641     0.0176     0.3914     0.0500     0.8286     2.6568    80.0000     0.7486     0.4563
  252    5.020   1942.67     0.6638     0.0179     0.3943     0.0502     0.8283     2.7015    80.3200     0.7480     0.4567
  253    5.040   1943.61     0.6584     0.0172     0.3904     0.0504     0.8226     2.6029    80.6400     0.7419     0.4589
  254    5.060   1944.57     0.6583     0.0169     0.3850     0.0506     0.8214     2.5756    80.9600     0.7404     0.4561
  255    5.080   1945.50     0.6622     0.0175     0.3867     0.0508     0.8234     2.6330    81.2800     0.7422     0.4487
  256    5.100   1946.49     0.6626     0.0174     0.3949     0.0510     0.8278     2.6270    81.6000     0.7462     0.4586
  257    5.120   1947.46     0.6723     0.0177     0.3927     0.0512     0.8372     2.6353    81.9200     0.7553     0.4522
  258    5.140   1948.42     0.6674     0.0177     0.3872     0.0514     0.8310     2.6408    82.2400     0.7487     0.4516
  259    5.160   1949.34     0.6683     0.0176     0.3821     0.0516     0.8303     2.6294    82.5600     0.7478     0.4468
  260    5.180   1950.21     0.6658     0.0174     0.3833     0.0518     0.8271     2.6126    82.8800     0.7442     0.4463
  261    5.200   1951.16     0.6627     0.0172     0.3821     0.0520     0.8235     2.5972    83.2000     0.7403     0.4471
  262    5.220   1952.12     0.6585     0.0166     0.3863     0.0522     0.8199     2.5211    83.5200     0.7364     0.4510
  263    5.240   1953.11     0.6423     0.0166     0.3873     0.0524     0.8043     2.5824    83.8400     0.7205     0.4628
  264    5.260   1954.07     0.6382     0.0161     0.3856     0.0526     0.8008     2.5247    84.1600     0.7167     0.4667
  265    5.280   1955.01     0.6321     0.0162     0.3850     0.0528     0.7941     2.5511    84.4800     0.7096     0.4690
  266    5.300   1955.97     0.6355     0.0159     0.3824     0.0530     0.7962     2.4928    84.8000     0.7114     0.4634
  267    5.320   1956.97     0.6360     0.0158     0.3883     0.0532     0.7982     2.4922    85.1200     0.7130     0.4668
  268    5.340   1957.92     0.6357     0.0159     0.3831     0.0534     0.7972     2.4989    85.4400     0.7118     0.4654
  269    5.360   1958.88     0.6247     0.0154     0.3785     0.0536     0.7848     2.4649    85.7600     0.6991     0.4689
  270    5.380   1959.84     0.6230     0.0156     0.3714     0.0538     0.7801     2.4931    86.0800     0.6941     0.4617
  271    5.400   1960.82     0.6267     0.0152     0.3612     0.0540     0.7792     2.4285    86.4000     0.6928     0.4462
  272    5.420   1961.69     0.6180     0.0153     0.3613     0.0542     0.7700     2.4661    86.7200     0.6833     0.4503
  273    5.440   1962.46     0.6092     0.0146     0.3605     0.0544     0.7607     2.3894    87.0400     0.6736     0.4545
  274    5.460   1963.27     0.6014     0.0146     0.3601     0.0546     0.7531     2.4072    87.3600     0.6658     0.4604
  275    5.480   1964.14     0.5925     0.0143     0.3562     0.0548     0.7438     2.3985    87.6800     0.6561     0.4653
  276    5.500   1965.10     0.5918     0.0138     0.3505     0.0550     0.7393     2.3322    88.0000     0.6513     0.4547
  277    5.520   1966.05     0.5703     0.0143     0.3540     0.0552     0.7187     2.4819    88.3200     0.6304     0.4731
  278    5.540   1966.98     0.5734     0.0134     0.3481     0.0554     0.7204     2.3472    88.6400     0.6318     0.4666
  279    5.560   1967.98     0.5658     0.0140     0.3442     0.0556     0.7110     2.4441    88.9600     0.6220     0.4665
  280    5.580   1968.94     0.5649     0.0143     0.3414     0.0558     0.7086     2.5271    89.2800     0.6194     0.4626
  281    5.600   1969.89     0.5614     0.0144     0.3305     0.0560     0.7030     2.5655    89.6000     0.6134     0.4585
  282    5.620   1970.84     0.5580     0.0143     0.3282     0.0562     0.6958     2.5973    89.9200     0.6058     0.4485
  283    5.640   1971.79     0.5440     0.0141     0.3303     0.0564     0.6826     2.6223    90.2400     0.5923     0.4617
  284    5.660   1972.75     0.5266     0.0139     0.3400     0.0566     0.6679     2.6462    90.5600     0.5773     0.4845
  285    5.680   1973.73     0.5232     0.0134     0.3580     0.0568     0.6707     2.5435    90.8800     0.5798     0.5078
  286    5.700   1974.68     0.5196     0.0130     0.3706     0.0570     0.6737     2.5193    91.2000     0.5825     0.5322
  287    5.720   1982.84     0.5261     0.0127     0.3506     0.0572     0.6773     2.4229    91.5200     0.5858     0.5163
  288    5.740   1999.36     0.5308     0.0132     0.3235     0.0574     0.6705     2.5119    91.8400     0.5787     0.4749
  289    5.760   2015.88     0.5354     0.0131     0.2963     0.0576     0.6638     2.4961    92.1600     0.5716     0.4335
  290    5.780   2022.85     0.5259     0.0129     0.3093     0.0578     0.6539     2.4206    92.4800     0.5614     0.4400
  291    5.800   2023.80     0.5173     0.0121     0.3165     0.0580     0.6494     2.3258    92.8000     0.5566     0.4609
  292    5.820   2024.75     0.5141     0.0115     0.3216     0.0582     0.6484     2.2295    93.1200     0.5553     0.4709
  293    5.840   2025.71     0.5151     0.0119     0.3307     0.0584     0.6528     2.3119    93.4400     0.5594     0.4819
  294    5.860   2026.66     0.5233     0.0112     0.3337     0.0586     0.6631     2.1770    93.7600     0.5694     0.4818
  295    5.880   2027.64     0.5387     0.0109     0.3311     0.0588     0.6788     2.0510    94.0800     0.5848     0.4703
  296    5.900   2028.56     0.5745     0.0098     0.3222     0.0590     0.7107     1.7364    94.4000     0.6163     0.4306
  297    5.920   2029.51     0.6005     0.0092     0.3206     0.0592     0.7364     1.5302    94.7200     0.6417     0.4121
  298    5.940   2030.45     0.6076     0.0109     0.3221     0.0594     0.7407     1.8045    95.0400     0.6456     0.3986
  299    5.960   2031.43     0.6394     0.0099     0.3186     0.0596     0.7749     1.5971    95.3600     0.6796     0.3873
  300    5.980   2032.38     0.6676     0.0099     0.3029     0.0598     0.7983     1.4965    95.6800     0.7026     0.3578
  301    6.000   2033.34     0.6852     0.0096     0.2928     0.0600     0.8125     1.4172    96.0000     0.7165     0.3395
  302    6.020   2034.25     0.7337     0.0095     0.2857     0.0602     0.8560     1.3098    96.3200     0.7597     0.3040
  303    6.040   2035.23     0.7048     0.0087     0.2905     0.0604     0.8257     1.2037    96.6400     0.7291     0.3121
  304    6.060   2036.20     0.7168     0.0087     0.2933     0.0606     0.8409     1.2288    96.9600     0.7440     0.3158
  305    6.080   2037.15     0.7066     0.0093     0.2881     0.0608     0.8278     1.3039    97.2800     0.7305     0.3117
  306    6.100   2038.11     0.6994     0.0089     0.2917     0.0610     0.8212     1.2727    97.6000     0.7236     0.3163
  307    6.120   2039.07     0.6994     0.0086     0.2874     0.0612     0.8201     1.2423    97.9200     0.7222     0.3132
  308    6.140   2040.02     0.7110     0.0082     0.2794     0.0614     0.8310     1.1572    98.2400     0.7328     0.3062
  309    6.160   2040.99     0.6969     0.0077     0.2633     0.0616     0.8092     1.0739    98.5600     0.7106     0.2894
  310    6.180   2041.97     0.6051     0.0074     0.2679     0.0618     0.7169     1.1485    98.8800     0.6180     0.3313
  311    6.200   2042.94     0.5393     0.0080     0.2660     0.0620     0.6508     1.4393    99.2000     0.5516     0.3690
  312    6.220   2043.86     0.4997     0.0084     0.2725     0.0622     0.6126     1.6619    99.5200     0.5130     0.4027
  313    6.240   2044.85     0.4551     0.0090     0.2782     0.0624     0.5707     1.9296    99.8400     0.4709     0.4519
  314    6.260   2045.80     0.4293     0.0096     0.2719     0.0626     0.5466     2.1972   100.1600     0.4464     0.4851
  315    6.280   2046.76     0.4136     0.0098     0.2769     0.0628     0.5309     2.3321   100.4800     0.4304     0.5030
  316    6.300   2047.71     0.3902     0.0097     0.2784     0.0630     0.5072     2.4213   100.8000     0.4064     0.5301
  317    6.320   2057.19     0.3832     0.0094     0.2778     0.0632     0.5000     2.4537   101.1200     0.3989     0.5386
  318    6.340   2077.55     0.3836     0.0097     0.2770     0.0634     0.5000     2.5439   101.4400     0.3986     0.5366
  319    6.360   2097.92     0.3839     0.0095     0.2762     0.0636     0.5000     2.4697   101.7600     0.3983     0.5345
  320    6.380   2109.50     0.3809     0.0095     0.2947     0.0638     0.5014     2.4902   102.0800     0.3993     0.5589
  321    6.400   2110.15     0.3849     0.0098     0.2984     0.0640     0.5103     2.5406   102.4000     0.4079     0.5754
  322    6.420   2110.81     0.4177     0.0093     0.2910     0.0642     0.5418     2.3681   102.7200     0.4390     0.5273
  323    6.440   2111.44     0.4464     0.0088     0.2727     0.0644     0.5638     1.9707   103.0400     0.4608     0.4671
  324    6.460   2112.09     0.4447     0.0084     0.2436     0.0646     0.5519     1.8901   103.3600     0.4486     0.4250
  325    6.480   2112.72     0.3997     0.0082     0.2162     0.0648     0.4907     2.0488   103.6800     0.3870     0.3926
  326    6.500   2113.35     0.3803     0.0075     0.2347     0.0650     0.4737     1.9854   104.0000     0.3697     0.4257
  327    6.520   2114.02     0.3918     0.0087     0.2583     0.0652     0.4977     2.0938   104.3200     0.3934     0.4748
  328    6.540   2114.66     0.4173     0.0113     0.2638     0.0654     0.5278     2.4109   104.6400     0.4231     0.4670
  329    6.560   2115.28     0.4791     0.0140     0.2654     0.0656     0.5902     2.7279   104.9600     0.4852     0.4114
  330    6.580   2115.92     0.5939     0.0171     0.2617     0.0658     0.7048     3.0579   105.2800     0.5996     0.3338
  331    6.600   2116.57     0.7616     0.0283     0.2425     0.0660     0.8678     4.2239   105.6000     0.7622     0.2477
  332    6.620   2118.40     0.9574     0.0376     0.1844     0.0662     1.0415     4.0927   105.9200     0.9355     0.1494
  333    6.640   2130.02     1.3236     0.0415     0.1389     0.0664     1.3885     4.5215   106.2400     1.2823     0.1020
  334    6.660   2141.64     1.6898     0.0423     0.0934     0.0666     1.7356     4.6020   106.5600     1.6290     0.0546
  335    6.680   2153.27     2.0559     0.0363     0.0479     0.0668     2.0826     3.9497   106.8800     1.9758     0.0072
  336    6.700   2157.85     2.2579     0.0292    -0.0233     0.0670     2.2606     1.3157   107.2000     2.1534    -0.0281
  337    6.720   2158.82     2.3472     0.0212    -0.1161     0.0672     2.3116     0.9189   107.5200     2.2041    -0.0688
  338    6.740   2159.78     2.6069     0.0153    -0.1246     0.0674     2.5519     0.6132   107.8400     2.4441    -0.0812
  339    6.760   2160.73     3.0434     0.0141    -0.1046     0.0676     2.9962     0.4845   108.1600     2.8880    -0.0624
  340    6.780   2161.71     3.6235     0.0148    -0.0856     0.0678     3.5854     0.4329   108.4800     3.4769    -0.0456
  341    6.800   2162.64     4.1312     0.0156    -0.0774     0.0680     4.0982     0.3934   108.8000     3.9894    -0.0368
  342    6.820   2163.65     4.6266     0.0173    -0.0741     0.0682     4.5941     0.3841   109.1200     4.4850    -0.0325
  343    6.840   2164.61     5.0600     0.0213    -0.0599     0.0684     5.0324     0.4326   109.4400     4.9230    -0.0273
  344    6.860   2165.59     5.5235     0.0259    -0.0472     0.0686     5.5021     0.4814   109.7600     5.3924    -0.0222
  345    6.880   2166.54     6.0465     0.0304    -0.0366     0.0688     6.0296     0.5152   110.0800     5.9195    -0.0185
  346    6.900   2167.49     6.5379     0.0344    -0.0243     0.0690     6.5260     0.5396   110.4000     6.4156    -0.0152
  347    6.920   2168.45     6.8892     0.0379    -0.0155     0.0692     6.8813     0.5561   110.7200     6.7706    -0.0130
  348    6.940   2169.45     7.0171     0.0414    -0.0097     0.0694     7.0123     0.5914   111.0400     6.9012    -0.0117
  349    6.960   2170.40     6.9790     0.0429    -0.0059     0.0696     6.9765     0.6120   111.3600     6.8652    -0.0110
  350    6.980   2171.38     6.8544     0.0431     0.0009     0.0698     6.8532     0.6242   111.6800     6.7415    -0.0108
  351    7.000   2172.29     6.7279     0.0420     0.0095     0.0700     6.7303     0.6206   112.0000     6.6183    -0.0097
  352    7.020   2173.31     6.5590     0.0396     0.0136     0.0702     6.5641     0.5992   112.3200     6.4517    -0.0090
  353    7.040   2174.26     6.3742     0.0365     0.0150     0.0704     6.3804     0.5675   112.6400     6.2677    -0.0089
  354    7.060   2175.22     6.0942     0.0360     0.0178     0.0706     6.1014     0.5867   112.9600     5.9884    -0.0089
  355    7.080   2176.17     5.7176     0.0362     0.0202     0.0708     5.7256     0.6200   113.2800     5.6123    -0.0092
  356    7.100   2177.12     5.2466     0.0337     0.0262     0.0710     5.2565     0.6134   113.6000     5.1429    -0.0092
  357    7.120   2178.12     4.6845     0.0299     0.0327     0.0712     4.6972     0.6099   113.9200     4.5832    -0.0090
  358    7.140   2179.08     4.0786     0.0295     0.0406     0.0714     4.0945     0.6845   114.2400     3.9803    -0.0084
  359    7.160   2181.30     3.5110     0.0318     0.0487     0.0716     3.5303     0.8566   114.5600     3.4157    -0.0074
  360    7.180   2185.53     3.0953     0.0370     0.0564     0.0718     3.1179     1.0082   114.8800     3.0030    -0.0057
  361    7.200   2189.32     2.6753     0.0433     0.0700     0.0720     2.7018     1.4911   115.2000     2.5866    -0.0033
  362    7.220   2190.35     2.2513     0.0378     0.1035     0.0722     2.2894     1.6191   115.5200     2.1739     0.0086
  363    7.240   2191.31     2.1032     0.0223     0.1691     0.0724     2.1620     1.0490   115.8400     2.0462     0.0330
  364    7.260   2192.25     2.2512     0.0146     0.1888     0.0726     2.3324     0.6737   116.1600     2.2163     0.0546
  365    7.280   2193.26     2.8998     0.0115     0.1199     0.0728     2.9665     0.4306   116.4800     2.8500     0.0304
  366    7.300   2194.21     3.8769     0.0109    -0.0102     0.0730     3.8930     0.3042   116.8000     3.7762    -0.0092
  367    7.320   2195.21     4.8691     0.0113    -0.1072     0.0732     4.8317     0.2450   117.1200     4.7146    -0.0344
  368    7.340   2196.16     5.2418     0.0157    -0.1229     0.0734     5.1900     0.3025   117.4400     5.0726    -0.0388
  369    7.360   2197.12     5.2799     0.0195    -0.1237     0.0736     5.2278     0.3669   117.7600     5.1100    -0.0387
  370    7.380   2198.11     5.1346     0.0190    -0.1173     0.0738     5.0846     0.3671   118.0800     4.9665    -0.0389
  371    7.400   2199.07     5.0399     0.0219    -0.1078     0.0740     4.9928     0.4333   118.4000     4.8744    -0.0382
  372    7.420   2200.02     5.0007     0.0254    -0.0965     0.0742     4.9585     0.5073   118.7200     4.8398    -0.0361
  373    7.440   2200.97     5.0199     0.0279    -0.0839     0.0744     4.9829     0.5584   119.0400     4.8639    -0.0334
  374    7.460   2201.93     5.1188     0.0210    -0.0686     0.0746     5.0875     0.4138   119.3600     4.9682    -0.0300
  375    7.480   2202.91     5.3418     0.0174    -0.0547     0.0748     5.3168     0.3299   119.6800     5.1972    -0.0258
  376    7.500   2203.87     5.6050     0.0141    -0.0518     0.0750     5.5831     0.2547   120.0000     5.4631    -0.0233
  377    7.520   2204.86     5.9604     0.0109    -0.0727     0.0752     5.9337     0.1865   120.3200     5.8133    -0.0239
  378    7.540   2205.82     6.2776     0.0101    -0.1225     0.0754     6.2352     0.1628   120.6400     6.1145    -0.0289
  379    7.560   2206.77     6.4323     0.0112    -0.1295     0.0756     6.3772     0.1752   120.9600     6.2562    -0.0331
  380    7.580   2207.77     6.4633     0.0134    -0.1270     0.0758     6.4105     0.2067   121.2800     6.2893    -0.0320
  381    7.600   2208.72     6.4047     0.0174    -0.1204     0.0760     6.3545     0.2712   121.6000     6.2329    -0.0314
  382    7.620   2209.68     6.2247     0.0217    -0.1107     0.0762     6.1762     0.3460   121.9200     6.0543    -0.0317
  383    7.640   2210.68     6.0565     0.0250    -0.0978     0.0764     6.0136     0.4103   122.2400     5.8913    -0.0303
  384    7.660   2211.63     5.8747     0.0258    -0.0852     0.0766     5.8371     0.4354   122.5600     5.7146    -0.0291
  385    7.680   2212.59     5.7018     0.0266    -0.0730     0.0768     5.6692     0.4621   122.8800     5.5464    -0.0278
  386    7.700   2213.60     5.5837     0.0269    -0.0584     0.0770     5.5571     0.4797   123.2000     5.4339    -0.0258
  387    7.720   2214.56     5.5388     0.0256    -0.0467     0.0772     5.5177     0.4627   123.5200     5.3942    -0.0236
  388    7.740   2215.51     5.5611     0.0238    -0.0325     0.0774     5.5452     0.4294   123.8400     5.4213    -0.0213
  389    7.760   2220.66     5.6434     0.0230    -0.0035     0.0776     5.6364     0.4090   124.1600     5.5123    -0.0172
  390    7.780   2237.66     5.7551     0.0231     0.0347     0.0778     5.7641     0.4109   124.4800     5.6396    -0.0102
  391    7.800   2254.67     5.8668     0.0238     0.0689     0.0780     5.8918     0.4241   124.8000     5.7670    -0.0033
  392    7.820   2259.42     5.9962     0.0259     0.0706     0.0782     6.0256     0.4352   125.1200     5.9005    -0.0014
  393    7.840   2260.37     6.1451     0.0268     0.0720     0.0784     6.1752     0.4396   125.4400     6.0498    -0.0011
  394    7.860   2261.38     6.2789     0.0283     0.0720     0.0786     6.3090     0.4546   125.7600     6.1832    -0.0011
  395    7.880   2262.29     6.4000     0.0296     0.0697     0.0788     6.4296     0.4657   126.0800     6.3035    -0.0013
  396    7.900   2263.24     6.4908     0.0318     0.0693     0.0790     6.5198     0.4929   126.4000     6.3934    -0.0016
  397    7.920   2264.19     6.5961     0.0331     0.0698     0.0792     6.6252     0.5044   126.7200     6.4985    -0.0015
  398    7.940   2265.21     6.7621     0.0339     0.0711     0.0794     6.7918     0.5054   127.0400     6.6648    -0.0013
  399    7.960   2266.16     6.8550     0.0346     0.0722     0.0796     6.8852     0.5068   127.3600     6.7578    -0.0012
  400    7.980   2267.11     6.8957     0.0355     0.0723     0.0798     6.9260     0.5157   127.6800     6.7984    -0.0011
  401    8.000   2268.07     6.9561     0.0362     0.0725     0.0800     6.9864     0.5229   128.0000     6.8584    -0.0012
  402    8.020   2269.02     7.0581     0.0357     0.0752     0.0802     7.0894     0.5075   128.3200     6.9610    -0.0008
  403    8.040   2270.02     7.1782     0.0357     0.0760     0.0804     7.2100     0.4998   128.6400     7.0814    -0.0007
  404    8.060   2270.98     7.2810     0.0354     0.0779     0.0806     7.3134     0.4880   128.9600     7.1844    -0.0005
  405    8.080   2271.93     7.3664     0.0349     0.0792     0.0808     7.3995     0.4744   129.2800     7.2703    -0.0003
  406    8.100   2272.90     7.4543     0.0342     0.0810     0.0810     7.4879     0.4598   129.6000     7.3583    -0.0001
  407    8.120   2273.90     7.5580     0.0330     0.0807     0.0812     7.5920     0.4381   129.9200     7.4621     0.0000
  408    8.140   2274.86     7.6667     0.0313     0.0798     0.0814     7.7004     0.4101   130.2400     7.5702    -0.0002
  409    8.160   2275.86     7.8210     0.0305     0.0802     0.0816     7.8547     0.3925   130.5600     7.7241    -0.0002
  410    8.180   2276.83     8.0705     0.0295     0.0803     0.0818     8.1044     0.3698   130.8800     7.9735    -0.0001
  411    8.200   2277.80     8.4222     0.0292     0.0801     0.0820     8.4561     0.3514   131.2000     8.3249    -0.0002
  412    8.220   2278.75     8.9021     0.0289     0.0811     0.0822     8.9362     0.3297   131.5200     8.8046    -0.0001
  413    8.240   2279.77     9.4252     0.0291     0.0826     0.0824     9.4591     0.3141   131.8400     9.3272    -0.0002
  414    8.260   2280.72     9.8270     0.0293     0.0826     0.0826     9.8620     0.3020   132.1600     9.7299     0.0001
  415    8.280   2281.65    10.1424     0.0301     0.0826     0.0828    10.1766     0.2995   132.4800    10.0441    -0.0001
  416    8.300   2282.66    10.2930     0.0308     0.0829     0.0830    10.3282     0.2996   132.8000    10.1954     0.0001
  417    8.320   2283.63    10.2932     0.0314     0.0819     0.0832    10.3277     0.3054   133.1200    10.1946    -0.0001
  418    8.340   2284.58    10.3702     0.0336     0.0791     0.0834    10.4038     0.3251   133.4400    10.2704    -0.0003
  419    8.360   2285.54    10.6341     0.0368     0.0775     0.0836    10.6669     0.3498   133.7600    10.5331    -0.0005
  420    8.380   2286.51    11.0391     0.0381     0.0787     0.0838    11.0718     0.3502   134.0800    10.9377    -0.0006
  421    8.400   2287.45    11.4018     0.0381     0.0821     0.0840    11.4357     0.3384   134.4000    11.3013    -0.0003
  422    8.420   2288.42    11.5709     0.0386     0.0830     0.0842    11.6052     0.3348   134.7200    11.4705    -0.0002
  423    8.440   2289.40    11.7245     0.0407     0.0842     0.0844    11.7594     0.3502   135.0400    11.6244    -0.0001
  424    8.460   2290.35    12.1172     0.0426     0.0835     0.0846    12.1521     0.3592   135.3600    12.0167    -0.0001
  425    8.480   2291.26    12.6806     0.0445     0.0836     0.0848    12.7158     0.3591   135.6800    12.5801    -0.0001
  426    8.500   2292.17    13.0631     0.0466     0.0838     0.0850    13.0982     0.3607   136.0000    12.9622    -0.0001
  427    8.520   2293.14    13.2213     0.0481     0.0828     0.0852    13.2563     0.3654   136.3200    13.1200    -0.0001
  428    8.540   2294.07    13.3883     0.0495     0.0811     0.0854    13.4224     0.3719   136.6400    13.2858    -0.0003
  429    8.560   2295.00    13.4426     0.0515     0.0804     0.0856    13.4767     0.3840   136.9600    13.3397    -0.0003
  430    8.580   2295.93    13.4965     0.0532     0.0803     0.0858    13.5302     0.3957   137.2800    13.3929    -0.0004
  431    8.600   2296.86    13.7478     0.0526     0.0804     0.0860    13.7816     0.3866   137.6000    13.6440    -0.0004
  432    8.620   2297.78    14.0545     0.0514     0.0812     0.0862    14.0886     0.3698   137.9200    13.9507    -0.0004
  433    8.640   2298.69    14.1716     0.0502     0.0824     0.0864    14.2059     0.3544   138.2400    14.0677    -0.0003
  434    8.660   2299.64    14.0340     0.0503     0.0837     0.0866    14.0690     0.3585   138.5600    13.9304    -0.0002
  435    8.680   2300.56    13.8907     0.0519     0.0834     0.0868    13.9258     0.3712   138.8800    13.7869    -0.0002
  436    8.700   2301.50    13.9538     0.0525     0.0828     0.0870    13.9888     0.3779   139.2000    13.8496    -0.0003
  437    8.720   2302.45    14.2228     0.0529     0.0821     0.0872    14.2571     0.3745   139.5200    14.1176    -0.0004
  438    8.740   2303.37    14.4936     0.0533     0.0854     0.0874    14.5290     0.3685   139.8400    14.3892    -0.0002
  439    8.760   2304.24    14.4418     0.0529     0.0855     0.0876    14.4772     0.3643   140.1600    14.3370    -0.0002
  440    8.780   2305.19    14.1121     0.0529     0.0858     0.0878    14.1485     0.3693   140.4800    14.0080    -0.0001
  441    8.800   2306.11    13.7638     0.0504     0.0843     0.0880    13.7991     0.3615   140.8000    13.6583    -0.0003
  442    8.820   2307.08    13.5277     0.0480     0.0854     0.0882    13.5634     0.3521   141.1200    13.4222    -0.0002
  443    8.840   2307.99    13.3479     0.0443     0.0843     0.0884    13.3837     0.3297   141.4400    13.2422    -0.0002
  444    8.860   2308.92    13.1039     0.0426     0.0853     0.0886    13.1397     0.3219   141.7600    12.9980    -0.0003
  445    8.880   2309.85    12.8639     0.0410     0.0841     0.0888    12.8992     0.3162   142.0800    12.7571    -0.0004
  446    8.900   2310.79    12.8347     0.0372     0.0862     0.0890    12.8708     0.2908   142.4000    12.7284    -0.0002
  447    8.920   2311.70    12.8964     0.0354     0.0856     0.0892    12.9325     0.2745   142.7200    12.7897    -0.0003
  448    8.940   2312.65    12.7915     0.0325     0.0860     0.0894    12.8269     0.2538   143.0400    12.6839    -0.0004
  449    8.960   2313.58    12.8254     0.0314     0.0863     0.0896    12.8619     0.2457   143.3600    12.7185    -0.0002
  450    8.980   2314.51    12.8906     0.0301     0.0873     0.0898    12.9272     0.2343   143.6800    12.7835    -0.0002
  451    9.000   2315.44    12.9886     0.0298     0.0846     0.0900    13.0241     0.2306   144.0000    12.8801    -0.0004
  452    9.020   2316.38    13.2405     0.0301     0.0854     0.0902    13.2757     0.2293   144.3200    13.1314    -0.0005
  453    9.040   2317.29    13.3932     0.0316     0.0861     0.0904    13.4292     0.2371   144.6400    13.2845    -0.0004
  454    9.060   2318.21    13.4684     0.0344     0.0871     0.0906    13.5045     0.2560   144.9600    13.3596    -0.0003
  455    9.080   2319.16    13.4692     0.0350     0.0847     0.0908    13.5048     0.2596   145.2800    13.3595    -0.0004
  456    9.100   2320.07    13.3799     0.0345     0.0830     0.0910    13.4150     0.2569   145.6000    13.2694    -0.0006
  457    9.120   2321.02    13.2133     0.0350     0.0859     0.0912    13.2489     0.2642   145.9200    13.1030    -0.0005
  458    9.140   2321.97    13.1084     0.0347     0.0873     0.0914    13.1449     0.2642   146.2400    12.9987    -0.0003
  459    9.160   2322.88    12.9357     0.0356     0.0864     0.0916    12.9723     0.2730   146.5600    12.8258    -0.0003
  460    9.180   2323.80    12.7493     0.0353     0.0863     0.0918    12.7855     0.2743   146.8800    12.6387    -0.0004
  461    9.200   2324.71    12.5208     0.0345     0.0879     0.0920    12.5576     0.2734   147.2000    12.4104    -0.0004
  462    9.220   2325.66    12.2099     0.0329     0.0873     0.0922    12.2469     0.2658   147.5200    12.0994    -0.0003
  463    9.240   2326.61    11.7250     0.0315     0.0861     0.0924    11.7611     0.2636   147.8400    11.6132    -0.0006
  464    9.260   2327.54    11.1545     0.0277     0.0881     0.0926    11.1914     0.2437   148.1600    11.0432    -0.0004
  465    9.280   2328.45    10.5810     0.0247     0.0879     0.0928    10.6179     0.2287   148.4800    10.4694    -0.0005
  466    9.300   2329.41    10.1134     0.0210     0.0894     0.0930    10.1503     0.2039   148.8000    10.0015    -0.0005
  467    9.320   2330.39     9.7507     0.0180     0.0887     0.0932     9.7885     0.1820   149.1200     9.6394    -0.0003
  468    9.340   2331.36     9.4935     0.0172     0.0888     0.0934     9.5315     0.1799   149.4400     9.3821    -0.0003
  469    9.360   2332.25     9.4619     0.0170     0.0883     0.0936     9.4995     0.1795   149.7600     9.3498    -0.0004
  470    9.380   2333.20     9.6448     0.0165     0.0883     0.0938     9.6816     0.1721   150.0800     9.5315    -0.0007
  471    9.400   2334.15    10.1444     0.0162     0.0877     0.0940    10.1818     0.1639   150.4000    10.0314    -0.0005
  472    9.420   2335.12    10.6195     0.0170     0.0880     0.0942    10.6562     0.1627   150.7200    10.5055    -0.0007
  473    9.440   2336.08    10.7188     0.0174     0.0867     0.0944    10.7553     0.1621   151.0400    10.6043    -0.0007
  474    9.460   2337.00    10.6695     0.0191     0.0857     0.0946    10.7054     0.1783   151.3600    10.5540    -0.0009
  475    9.480   2337.94    10.7092     0.0211     0.0863     0.0948    10.7461     0.1976   151.6800    10.5944    -0.0006
  476    9.500   2338.91    10.7778     0.0236     0.0881     0.0950    10.8141     0.2193   152.0000    10.6621    -0.0008
  477    9.520   2339.82    10.8171     0.0247     0.0846     0.0952    10.8527     0.2291   152.3200    10.7004    -0.0010
  478    9.540   2340.77    10.8300     0.0298     0.0856     0.0954    10.8664     0.2748   152.6400    10.7138    -0.0008
  479    9.560   2341.71    10.7611     0.0312     0.0871     0.0956    10.7976     0.2894   152.9600    10.6446    -0.0008
  480    9.580   2342.66    10.7533     0.0272     0.0872     0.0958    10.7898     0.2527   153.2800    10.6365    -0.0008
  481    9.600   2343.59    10.9009     0.0267     0.0892     0.0960    10.9382     0.2471   153.6000    10.7846    -0.0007
  482    9.620   2344.56    10.9868     0.0267     0.0899     0.0962    11.0243     0.2471   153.9200    10.8704    -0.0006
  483    9.640   2345.52    10.8649     0.0267     0.0927     0.0964    10.9036     0.2471   154.2400    10.7493    -0.0004
  484    9.660   2346.47    10.5984     0.0253     0.0897     0.0966    10.6368     0.2374   154.5600    10.4823    -0.0005
  485    9.680   2347.42    10.3066     0.0286     0.0872     0.0968    10.3432     0.2738   154.8800    10.1883    -0.0009
  486    9.700   2348.35     9.5967     0.0309     0.0898     0.0970     9.6339     0.3161   155.2000     9.4787    -0.0009
  487    9.720   2364.11     8.1858     0.0385     0.0934     0.0972     8.2245     0.4172   155.5200     8.0690    -0.0005
  488    9.740   2388.14     6.5661     0.0575     0.0970     0.0974     6.6063     0.6237   155.8400     6.4505    -0.0001
  489    9.760   2408.86     4.9558     0.0717     0.0932     0.0976     4.9967     1.1643   156.1600     4.8405    -0.0001
  490    9.780   2409.82     3.4486     0.0695     0.0947     0.0978     3.4881     1.7586   156.4800     3.3316    -0.0012
  491    9.800   2410.76     2.4989     0.0610     0.0973     0.0980     2.5406     2.2063   156.8000     2.3838     0.0005
  492    9.820   2411.70     2.0076     0.0546     0.1026     0.0982     2.0502     2.5719   157.1200     1.8931     0.0018
  493    9.840   2412.68     1.7179     0.0479     0.1033     0.0984     1.7610     2.6709   157.4400     1.6035     0.0026
  494    9.860   2413.62     1.2978     0.0400     0.1070     0.0986     1.3407     2.7517   157.7600     1.1830     0.0030
  495    9.880   2414.60     1.0963     0.0294     0.1530     0.0988     1.1481     2.5712   158.0800     0.9900     0.0249
  496    9.900   2415.57     0.9134     0.0198     0.3502     0.0990     1.0322     1.9658   158.4000     0.8738     0.2135
  497    9.920   2416.50     0.7159     0.0173     0.4721     0.0992     0.8978     2.2827   158.7200     0.7391     0.4541
  498    9.940   2417.48     0.5969     0.0162     0.5286     0.0994     0.8146     2.6030   159.0400     0.6555     0.6395
  499    9.960   2418.41     0.5713     0.0149     0.5360     0.0996     0.7964     2.5899   159.3600     0.6370     0.6847
  500    9.980   2419.37     0.5604     0.0140     0.5389     0.0998     0.7866     2.4930   159.6800     0.6270     0.6998
  501   10.000   2420.37     0.5652     0.0150     0.5468     0.1000     0.7931     2.6721   160.0000     0.6331     0.6990
  502   10.020   2421.33     0.5991     0.0162     0.5524     0.1002     0.8309     2.7806   160.3200     0.6706     0.6741
  503   10.040   2422.27     0.6677     0.0148     0.5303     0.1004     0.8963     2.2970   160.6400     0.7356     0.6036
  504   10.060   2423.24     0.7622     0.0129     0.5058     0.1006     0.9784     1.7516   160.9600     0.8175     0.5072
  505   10.080   2424.22     0.8896     0.0145     0.3545     0.1008     1.0336     1.6941   161.2800     0.8723     0.2774
  506   10.100   2425.18     0.9138     0.0215     0.3411     0.1010     1.0506     2.3543   161.6000     0.8890     0.2527
  507   10.120   2426.16     1.0178     0.0229     0.3893     0.1012     1.1811     2.4036   161.9200     1.0192     0.2822
  508   10.140   2427.09     1.4430     0.0264     0.3476     0.1014     1.6002     2.0100   162.2400     1.4380     0.1907
  509   10.160   2428.09     1.7652     0.0366     0.2445     0.1016     1.8868     2.1850   162.5600     1.7242     0.1094
  510   10.180   2429.07     1.9974     0.0433     0.2337     0.1018     2.0882     2.1421   162.8800     1.9253     0.0594
  511   10.200   2430.01     2.0603     0.0413     0.2255     0.1020     2.1617     2.0431   163.2000     1.9985     0.0698
  512   10.220   2430.96     2.1731     0.0514     0.1843     0.1022     2.2526     2.3680   163.5200     2.0890     0.0416
  513   10.240   2431.94     2.1760     0.0536     0.2202     0.1024     2.2637     2.4557   163.8400     2.0998     0.0506
  514   10.260   2432.89     2.1438     0.0531     0.2246     0.1026     2.2357     2.4680   164.1600     2.0716     0.0562
  515   10.280   2433.88     2.2442     0.0521     0.2014     0.1028     2.3403     2.3822   164.4800     2.1758     0.0581
  516   10.300   2434.83     2.3131     0.0646     0.1229     0.1030     2.3726     2.7693   164.8000     2.2078     0.0174
  517   10.320   2435.74     2.1945     0.0783     0.1989     0.1032     2.2572     3.5310   165.1200     2.0920     0.0219
  518   10.340   2436.77     2.1666     0.0758     0.1891     0.1034     2.2503     3.4429   165.4400     2.0849     0.0460
  519   10.360   2437.70     2.1478     0.0651     0.1980     0.1036     2.2448     3.0505   165.7600     2.0790     0.0612
  520   10.380   2438.69     1.9783     0.0516     0.1497     0.1038     2.0328     2.5275   166.0800     1.8667     0.0138
  521   10.400   2439.64     1.6826     0.0432     0.2058     0.1040     1.7582     2.4336   166.4000     1.5918     0.0480
  522   10.420   2440.57     1.3019     0.0386     0.3645     0.1042     1.4313     2.7330   166.7200     1.2646     0.1633
  523   10.440   2441.55     1.2982     0.0316     0.4566     0.1044     1.4803     2.5236   167.0400     1.3132     0.2503
  524   10.460   2442.51     1.5365     0.0300     0.4834     0.1046     1.7378     2.1199   167.3600     1.5704     0.2393
  525   10.480   2443.47     2.2685     0.0444     0.4424     0.1048     2.4638     2.2431   167.6800     2.2961     0.1593
  526   10.500   2444.45     3.0146     0.0584     0.3083     0.1050     3.1720     2.0737   168.0000     3.0040     0.0906
  527   10.520   2445.42     3.2064     0.0674     0.0967     0.1052     3.2846     2.0974   168.3200     3.1163     0.0255
  528   10.540   2446.36     2.9203     0.0662     0.0740     0.1054     2.9522     2.1739   168.6400     2.7836    -0.0106
  529   10.560   2447.35     2.4267     0.0623     0.0574     0.1056     2.4540     2.4064   168.9600     2.2851    -0.0179
  530   10.580   2448.29     1.9013     0.0599     0.0851     0.1058     1.9306     2.9219   169.2800     1.7613    -0.0202
  531   10.600   2449.28     1.4622     0.0534     0.1582     0.1060     1.5229     3.4016   169.6000     1.3533     0.0287
  532   10.620   2450.22     1.1206     0.0392     0.2685     0.1062     1.2122     3.2850   169.9200     1.0423     0.1077
  533   10.640   2451.18     0.9985     0.0280     0.3559     0.1064     1.1378     2.7702   170.2400     0.9675     0.2327
  534   10.660   2452.17     0.9843     0.0228     0.4078     0.1066     1.1499     2.3088   170.5600     0.9794     0.2938
  535   10.680   2453.17     0.9748     0.0208     0.4515     0.1068     1.1590     2.1129   170.8800     0.9882     0.3360
  536   10.700   2454.12     0.9467     0.0202     0.4815     0.1070     1.1439     2.1216   171.2000     0.9727     0.3727
  537   10.720   2455.10     0.9474     0.0210     0.5141     0.1072     1.1596     2.2295   171.5200     0.9881     0.4029
  538   10.740   2456.03     0.9634     0.0202     0.5350     0.1074     1.1842     2.1181   171.8400     1.0124     0.4134
  539   10.760   2456.97     0.9590     0.0205     0.5611     0.1076     1.1927     2.1259   172.1600     1.0205     0.4398
  540   10.780   2457.95     0.9469     0.0205     0.5703     0.1078     1.1849     2.1641   172.4800     1.0124     0.4531
  541   10.800   2458.91     0.9451     0.0200     0.5894     0.1080     1.1884     2.1035   172.8000     1.0156     0.4641
  542   10.820   2459.86     0.9275     0.0197     0.5870     0.1082     1.1714     2.1167   173.1200     0.9983     0.4735
  543   10.840   2460.87     0.9154     0.0200     0.5970     0.1084     1.1661     2.1803   173.4400     0.9926     0.4920
  544   10.860   2461.83     0.9064     0.0199     0.6099     0.1086     1.1600     2.1871   173.7600     0.9862     0.5021
  545   10.880   2462.80     0.9051     0.0198     0.6166     0.1088     1.1631     2.1891   174.0800     0.9890     0.5111
  546   10.900   2463.76     0.9149     0.0203     0.6207     0.1090     1.1746     2.2249   174.4000     1.0002     0.5092
  547   10.920   2464.67     0.9253     0.0204     0.6279     0.1092     1.1871     2.2115   174.7200     1.0124     0.5078
  548   10.940   2465.66     0.9357     0.0211     0.6410     0.1094     1.2021     2.2639   175.0400     1.0271     0.5110
  549   10.960   2466.58     0.9270     0.0214     0.6490     0.1096     1.1983     2.3043   175.3600     1.0230     0.5244
  550   10.980   2467.58     0.9222     0.0216     0.6605     0.1098     1.1988     2.3388   175.6800     1.0231     0.5364
  551   11.000   2468.54     0.9176     0.0218     0.6597     0.1100     1.1946     2.3843   176.0000     1.0186     0.5395
  552   11.020   2469.49     0.9200     0.0228     0.6608     0.1102     1.1977     2.4674   176.3200     1.0214     0.5395
  553   11.040   2470.46     0.9234     0.0223     0.6589     0.1104     1.1999     2.4192   176.6400     1.0232     0.5354
  554   11.060   2471.40     0.9242     0.0214     0.6681     0.1106     1.2035     2.3123   176.9600     1.0265     0.5401
  555   11.080   2472.36     0.9342     0.0211     0.6826     0.1108     1.2188     2.2718   177.2800     1.0415     0.5442
  556   11.100   2473.33     0.9524     0.0217     0.6901     0.1110     1.2416     2.2923   177.6000     1.0640     0.5429
  557   11.120   2474.29     0.9542     0.0217     0.7170     0.1112     1.2495     2.2683   177.9200     1.0715     0.5522
  558   11.140   2475.26     0.9611     0.0222     0.7346     0.1114     1.2679     2.3243   178.2400     1.0897     0.5682
  559   11.160   2476.25     0.9619     0.0224     0.7410     0.1116     1.2731     2.3254   178.5600     1.0945     0.5750
  560   11.180   2477.19     0.9543     0.0226     0.7329     0.1118     1.2633     2.3637   178.8800     1.0844     0.5752
  561   11.200   2478.17     0.9361     0.0223     0.7327     0.1120     1.2438     2.3638   179.2000     1.0646     0.5829
  562   11.220   2479.12     0.9309     0.0216     0.7387     0.1122     1.2389     2.3237   179.5200     1.0594     0.5863
  563   11.240   2480.10     0.9313     0.0220     0.7532     0.1124     1.2473     2.3657   179.8400     1.0674     0.5995
  564   11.260   2481.05     0.9295     0.0217     0.7454     0.1126     1.2440     2.3432   180.1600     1.0639     0.5981
  565   11.280   2482.04     0.9143     0.0217     0.7217     0.1128     1.2215     2.3674   180.4800     1.0410     0.5941
  566   11.300   2482.98     0.8927     0.0214     0.6965     0.1130     1.1888     2.3739   180.8000     1.0080     0.5872
  567   11.320   2483.96     0.8664     0.0213     0.6739     0.1132     1.1530     2.4473   181.1200     0.9719     0.5857
  568   11.340   2484.98     0.8409     0.0211     0.6565     0.1134     1.1174     2.4770   181.4400     0.9359     0.5822
  569   11.360   2485.94     0.8083     0.0209     0.6615     0.1136     1.0844     2.5543   181.7600     0.9026     0.6026
  570   11.380   2486.87     0.8022     0.0211     0.6688     0.1138     1.0826     2.6398   182.0800     0.9005     0.6151
  571   11.400   2487.84     0.8186     0.0219     0.6676     0.1140     1.0984     2.6843   182.4000     0.9160     0.6029
  572   11.420   2488.80     0.8189     0.0218     0.6806     0.1142     1.1037     2.6543   182.7200     0.9210     0.6124
  573   11.440   2489.78     0.8223     0.0219     0.6886     0.1144     1.1100     2.6742   183.0400     0.9270     0.6157
  574   11.460   2490.73     0.8375     0.0213     0.6932     0.1146     1.1287     2.5541   183.3600     0.9453     0.6120
  575   11.480   2491.67     0.8578     0.0217     0.6950     0.1148     1.1494     2.5458   183.6800     0.9657     0.6001
  576   11.500   2492.68     0.8564     0.0224     0.7121     0.1150     1.1534     2.6079   184.0000     0.9694     0.6109
  577   11.520   2493.63     0.8607     0.0230     0.7168     0.1152     1.1627     2.6781   184.3200     0.9784     0.6173
  578   11.540   2494.59     0.8632     0.0223     0.7181     0.1154     1.1643     2.5762   184.6400     0.9797     0.6141
  579   11.560   2495.54     0.8746     0.0222     0.7213     0.1156     1.1767     2.5505   184.9600     0.9917     0.6086
  580   11.580   2496.47     0.8885     0.0225     0.7195     0.1158     1.1917     2.5441   185.2800     1.0064     0.6022
  581   11.600   2497.44     0.8830     0.0226     0.7228     0.1160     1.1861     2.5344   185.6000     1.0005     0.6055
  582   11.620   2498.39     0.8652     0.0224     0.7377     0.1162     1.1732     2.5688   185.9200     0.9873     0.6250
  583   11.640   2499.37     0.8442     0.0222     0.7394     0.1164     1.1573     2.6030   186.2400     0.9711     0.6478
  584   11.660   2500.36     0.8469     0.0220     0.7538     0.1166     1.1591     2.6074   186.5600     0.9726     0.6446
  585   11.680   2501.33     0.8502     0.0214     0.7600     0.1168     1.1690     2.5365   186.8800     0.9821     0.6539
  586   11.700   2502.30     0.8503     0.0217     0.7726     0.1170     1.1747     2.5400   187.2000     0.9875     0.6636
  587   11.720   2510.17     0.8565     0.0211     0.7653     0.1172     1.1791     2.4903   187.5200     0.9916     0.6566
  588   11.740   2523.26     0.8716     0.0210     0.7571     0.1174     1.1908     2.4825   187.8400     1.0029     0.6410
  589   11.760   2536.35     0.8867     0.0207     0.7543     0.1176     1.2024     2.4385   188.1600     1.0143     0.6254
  590   11.780   2539.47     0.8936     0.0212     0.7699     0.1178     1.2154     2.3747   188.4800     1.0269     0.6314
  591   11.800   2540.44     0.8900     0.0206     0.7770     0.1180     1.2158     2.3147   188.8000     1.0270     0.6404
  592   11.820   2541.40     0.8927     0.0200     0.7751     0.1182     1.2191     2.2376   189.1200     1.0299     0.6397
  593   11.840   2542.36     0.8820     0.0203     0.7847     0.1184     1.2099     2.2905   189.4400     1.0205     0.6490
  594   11.860   2543.34     0.8824     0.0192     0.7883     0.1186     1.2128     2.1844   189.7600     1.0230     0.6530
  595   11.880   2544.30     0.8905     0.0199     0.7961     0.1188     1.2249     2.2405   190.0800     1.0348     0.6545
  596   11.900   2545.24     0.9207     0.0198     0.7990     0.1190     1.2576     2.1803   190.4000     1.0672     0.6402
  597   11.920   2546.21     0.9339     0.0196     0.7974     0.1192     1.2673     2.0941   190.7200     1.0766     0.6266
  598   11.940   2547.20     0.9423     0.0202     0.7903     0.1194     1.2775     2.1495   191.0400     1.0865     0.6246
  599   11.960   2548.12     0.9435     0.0205     0.7502     0.1196     1.2660     2.1710   191.3600     1.0747     0.6032
  600   11.980   2549.11     0.9277     0.0205     0.7678     0.1198     1.2464     2.1755   191.6800     1.0547     0.6059
  601   12.000   2550.10     0.9228     0.0206     0.7853     0.1200     1.2514     2.2180   192.0000     1.0594     0.6253
  602   12.020   2551.03     0.9202     0.0204     0.7930     0.1202     1.2518     2.2293   192.3200     1.0595     0.6317
  603   12.040   2552.01     0.9199     0.0195     0.7945     0.1204     1.2535     2.1125   192.6400     1.0608     0.6351
  604   12.060   2552.92     0.9132     0.0202     0.7987     0.1206     1.2479     2.2102   192.9600     1.0550     0.6411
  605   12.080   2553.86     0.9082     0.0196     0.8024     0.1208     1.2443     2.1630   193.2800     1.0510     0.6465
  606   12.100   2554.86     0.9133     0.0195     0.7996     0.1210     1.2494     2.1412   193.6000     1.0558     0.6432
  607   12.120   2555.85     0.9110     0.0193     0.7908     0.1212     1.2444     2.1212   193.9200     1.0505     0.6403
  608   12.140   2556.80     0.9049     0.0197     0.7864     0.1214     1.2344     2.1674   194.2400     1.0402     0.6374
  609   12.160   2557.76     0.8995     0.0197     0.7810     0.1216     1.2268     2.1802   194.5600     1.0322     0.6372
  610   12.180   2558.77     0.9243     0.0201     0.7783     0.1218     1.2520     2.2129   194.8800     1.0571     0.6229
  611   12.200   2559.74     0.9192     0.0190     0.7520     0.1220     1.2441     2.0601   195.2000     1.0489     0.6211
  612   12.220   2560.72     0.9016     0.0194     0.6174     0.1222     1.1623     2.1168   195.5200     0.9668     0.5158
  613   12.240   2561.65     0.8770     0.0190     0.6655     0.1224     1.1490     2.1707   195.8400     0.9532     0.5510
  614   12.260   2562.61     0.8898     0.0188     0.7118     0.1226     1.1822     2.1197   196.1600     0.9860     0.5817
  615   12.280   2563.59     0.9062     0.0186     0.7364     0.1228     1.2140     2.0557   196.4800     1.0176     0.5995
  616   12.300   2564.56     0.9532     0.0189     0.6398     0.1230     1.2570     1.9850   196.8000     1.0602     0.5661
  617   12.320   2565.51     0.9215     0.0184     0.5755     0.1232     1.1496     1.9803   197.1200     0.9524     0.4406
  618   12.340   2566.46     0.9153     0.0191     0.6280     0.1234     1.1728     2.0931   197.4400     0.9753     0.5020
  619   12.360   2567.43     0.9211     0.0193     0.6614     0.1236     1.1949     2.1019   197.7600     0.9971     0.5298
  620   12.380   2568.39     0.9283     0.0192     0.6857     0.1238     1.2133     2.0702   198.0800     1.0153     0.5465
  621   12.400   2569.33     0.9243     0.0195     0.7085     0.1240     1.2197     2.1034   198.4000     1.0213     0.5671
  622   12.420   2570.31     0.9221     0.0191     0.7202     0.1242     1.2222     2.0753   198.7200     1.0235     0.5769
  623   12.440   2571.24     0.9094     0.0192     0.7324     0.1244     1.2150     2.1035   199.0400     1.0159     0.5937
  624   12.460   2572.21     0.9093     0.0194     0.7443     0.1246     1.2204     2.1369   199.3600     1.0210     0.6034
  625   12.480   2573.21     0.9334     0.0196     0.7549     0.1248     1.2485     2.1017   199.6800     1.0489     0.5963
  626   12.500   2574.17     0.9200     0.0194     0.7640     0.1250     1.2406     2.1072   200.0000     1.0406     0.6135
  627   12.520   2575.12     0.9366     0.0193     0.7519     0.1252     1.2519     2.0873   200.3200     1.0516     0.5949
  628   12.540   2576.09     0.9295     0.0197     0.7622     0.1254     1.2492     2.0974   200.6400     1.0486     0.6063
  629   12.560   2577.07     0.9284     0.0200     0.7658     0.1256     1.2493     2.1537   200.9600     1.0484     0.6090
  630   12.580   2578.05     0.9322     0.0202     0.7680     0.1258     1.2544     2.1661   201.2800     1.0531     0.6089
  631   12.600   2578.98     0.9327     0.0209     0.7710     0.1260     1.2562     2.2478   201.6000     1.0546     0.6108
  632   12.620   2579.95     0.9278     0.0204     0.7768     0.1262     1.2537     2.1924   201.9200     1.0518     0.6177
  633   12.640   2580.94     0.9391     0.0201     0.7822     0.1264     1.2654     2.1625   202.2400     1.0632     0.6119
  634   12.660   2581.91     0.9495     0.0210     0.7876     0.1266     1.2802     2.2166   202.5600     1.0777     0.6132
  635   12.680   2582.87     0.9622     0.0212     0.7986     0.1268     1.2972     2.2091   202.8800     1.0944     0.6131
  636   12.700   2583.83     0.9590     0.0212     0.7953     0.1270     1.2941     2.1980   203.2000     1.0909     0.6150
  637   12.720   2584.80     0.9564     0.0212     0.8040     0.1272     1.2927     2.2192   203.5200     1.0891     0.6183
  638   12.740   2585.77     0.9541     0.0213     0.7972     0.1274     1.2904     2.2373   203.8400     1.0865     0.6197
  639   12.760   2586.72     0.9453     0.0214     0.8028     0.1276     1.2820     2.2456   204.1600     1.0779     0.6255
  640   12.780   2587.68     0.9428     0.0212     0.7990     0.1278     1.2787     2.2426   204.4800     1.0742     0.6254
  641   12.800   2588.63     0.9387     0.0205     0.7947     0.1280     1.2727     2.1881   204.8000     1.0679     0.6248
  642   12.820   2589.63     0.9536     0.0204     0.7938     0.1282     1.2857     2.1537   205.1200     1.0806     0.6131
  643   12.840   2590.55     0.9418     0.0206     0.7961     0.1284     1.2761     2.1795   205.4400     1.0706     0.6233
  644   12.860   2591.51     0.9515     0.0202     0.8035     0.1286     1.2877     2.1396   205.7600     1.0820     0.6212
  645   12.880   2592.49     0.9418     0.0199     0.8036     0.1288     1.2804     2.1037   206.0800     1.0743     0.6305
  646   12.900   2593.48     0.9362     0.0200     0.7997     0.1290     1.2727     2.1414   206.4000     1.0663     0.6305
  647   12.920   2594.45     0.9408     0.0201     0.7740     0.1292     1.2681     2.1430   206.7200     1.0614     0.6126
  648   12.940   2595.40     0.9351     0.0198     0.7856     0.1294     1.2645     2.1085   207.0400     1.0575     0.6194
  649   12.960   2596.37     0.9412     0.0197     0.7941     0.1296     1.2730     2.1013   207.3600     1.0656     0.6196
  650   12.980   2597.32     0.9400     0.0197     0.7910     0.1298     1.2731     2.0912   207.6800     1.0654     0.6226
  651   13.000   2598.30     0.9424     0.0204     0.7970     0.1300     1.2760     2.1647   208.0000     1.0680     0.6220
  652   13.020   2599.28     0.9529     0.0207     0.7949     0.1302     1.2870     2.1814   208.3200     1.0787     0.6167
  653   13.040   2600.23     0.9530     0.0201     0.7936     0.1304     1.2861     2.1054   208.6400     1.0774     0.6151
  654   13.060   2601.15     0.9510     0.0200     0.7851     0.1306     1.2798     2.0955   208.9600     1.0709     0.6090
  655   13.080   2602.14     0.9380     0.0197     0.7764     0.1308     1.2655     2.0900   209.2800     1.0562     0.6144
  656   13.100   2603.11     0.9493     0.0195     0.7890     0.1310     1.2777     2.0505   209.6000     1.0681     0.6094
  657   13.120   2604.08     0.9491     0.0190     0.7993     0.1312     1.2835     2.0087   209.9200     1.0736     0.6194
  658   13.140   2605.03     0.9619     0.0189     0.8081     0.1314     1.3006     1.9661   210.2400     1.0904     0.6192
  659   13.160   2606.04     0.9472     0.0196     0.8002     0.1316     1.2852     2.0591   210.5600     1.0747     0.6264
  660   13.180   2607.00     0.9427     0.0202     0.7907     0.1318     1.2755     2.1425   210.8800     1.0647     0.6206
  661   13.200   2607.98     0.9307     0.0199     0.7882     0.1320     1.2622     2.1178   211.2000     1.0510     0.6254
  662   13.220   2608.95     0.9300     0.0192     0.7763     0.1322     1.2582     2.0679   211.5200     1.0467     0.6203
  663   13.240   2609.91     0.9267     0.0196     0.7663     0.1324     1.2495     2.1051   211.8400     1.0377     0.6132
  664   13.260   2610.89     0.9237     0.0194     0.7722     0.1326     1.2481     2.1017   212.1600     1.0360     0.6177
  665   13.280   2611.81     0.9124     0.0197     0.7800     0.1328     1.2395     2.1404   212.4800     1.0270     0.6291
  666   13.300   2612.79     0.9101     0.0188     0.7848     0.1330     1.2382     2.0700   212.8000     1.0254     0.6322
  667   13.320   2613.74     0.9217     0.0187     0.7739     0.1332     1.2475     2.0434   213.1200     1.0343     0.6211
  668   13.340   2614.72     0.9289     0.0184     0.7861     0.1334     1.2566     1.9885   213.4400     1.0431     0.6200
  669   13.360   2615.69     0.9206     0.0185     0.7868     0.1336     1.2519     2.0031   213.7600     1.0381     0.6312
  670   13.380   2616.67     0.9181     0.0182     0.7907     0.1338     1.2499     1.9825   214.0800     1.0358     0.6337
  671   13.400   2617.60     0.9198     0.0177     0.7895     0.1340     1.2512     1.9242   214.4000     1.0368     0.6318
  672   13.420   2618.60     0.9178     0.0187     0.7911     0.1342     1.2496     2.0445   214.7200     1.0349     0.6337
  673   13.440   2619.55     0.9281     0.0181     0.7929     0.1344     1.2611     1.9597   215.0400     1.0460     0.6294
  674   13.460   2620.50     0.9134     0.0181     0.7874     0.1346     1.2462     1.9621   215.3600     1.0308     0.6381
  675   13.480   2621.48     0.9064     0.0187     0.7581     0.1348     1.2289     2.0811   215.6800     1.0133     0.6249
  676   13.500   2622.44     0.9293     0.0188     0.7095     0.1350     1.2341     2.0330   216.0000     1.0181     0.5802
  677   13.520   2623.41     0.9041     0.0186     0.7282     0.1352     1.2048     2.0292   216.3200     0.9884     0.5877
  678   13.540   2624.38     0.8725     0.0178     0.7515     0.1354     1.1846     2.0305   216.6400     0.9680     0.6278
  679   13.560   2625.34     0.8516     0.0174     0.7653     0.1356     1.1714     2.0218   216.9600     0.9545     0.6558
  680   13.580   2626.30     0.8466     0.0164     0.7714     0.1358     1.1692     1.9431   217.2800     0.9520     0.6642
  681   13.600   2627.24     0.8390     0.0159     0.7772     0.1360     1.1639     1.8868   217.6000     0.9463     0.6738
  682   13.620   2628.25     0.8340     0.0146     0.7802     0.1362     1.1625     1.7547   217.9200     0.9445     0.6839
  683   13.640   2629.20     0.8222     0.0147     0.7819     0.1364     1.1498     1.7728   218.2400     0.9316     0.6911
  684   13.660   2630.17     0.8204     0.0149     0.7831     0.1366     1.1485     1.8005   218.5600     0.9299     0.6932
  685   13.680   2631.15     0.8257     0.0150     0.7803     0.1368     1.1538     1.8194   218.8800     0.9349     0.6894
  686   13.700   2632.12     0.8276     0.0153     0.7823     0.1370     1.1564     1.8443   219.2000     0.9372     0.6890
  687   13.720   2633.08     0.8470     0.0136     0.7710     0.1372     1.1749     1.6303   219.5200     0.9553     0.6735
  688   13.740   2645.14     0.9330     0.0116     0.7079     0.1374     1.2395     1.3059   219.8400     1.0197     0.5834
  689   13.760   2661.91     0.9952     0.0110     0.6478     0.1376     1.2752     1.2375   220.1600     1.0550     0.5029
  690   13.780   2667.93     1.0152     0.0128     0.6660     0.1378     1.2953     1.2657   220.4800     1.0748     0.4923
  691   13.800   2668.90     1.0792     0.0125     0.6735     0.1380     1.3609     1.1907   220.8000     1.1401     0.4673
  692   13.820   2669.88     1.1981     0.0109     0.6586     0.1382     1.4780     0.9506   221.1200     1.2569     0.4209
  693   13.840   2670.85     1.4083     0.0099     0.6226     0.1384     1.6768     0.7440   221.4400     1.4553     0.3450
  694   13.860   2671.79     1.6613     0.0088     0.5139     0.1386     1.8930     0.5564   221.7600     1.6712     0.2472
  695   13.880   2672.75     1.6487     0.0093     0.5324     0.1388     1.8688     0.5608   222.0800     1.6467     0.2339
  696   13.900   2673.71     1.7479     0.0141     0.5246     0.1390     1.9776     0.8322   222.4000     1.7552     0.2324
  697   13.920   2674.66     2.1943     0.0197     0.4751     0.1392     2.3955     0.9611   222.7200     2.1728     0.1570
  698   13.940   2675.65     2.8382     0.0218     0.3720     0.1394     3.0184     0.8287   223.0400     2.7954     0.1042
  699   13.960   2676.63     3.9039     0.0237     0.2309     0.1396     4.0198     0.6608   223.3600     3.7964     0.0363
  700   13.980   2677.57     4.7916     0.0214     0.1470     0.1398     4.8623     0.4718   223.6800     4.6386     0.0063
  701   14.000   2678.54     5.5399     0.0217     0.1077     0.1400     5.5899     0.4029   224.0000     5.3659    -0.0039
  702   14.020   2679.52     6.0213     0.0259     0.0726     0.1402     6.0560     0.4417   224.3200     5.8316    -0.0099
  703   14.040   2680.52     6.5386     0.0392     0.0520     0.1404     6.5639     0.6161   224.6400     6.3393    -0.0126
  704   14.060   2681.48     7.1984     0.0506     0.0300     0.1406     7.2140     0.7302   224.9600     6.9890    -0.0148
  705   14.080   2682.41     7.8519     0.0590     0.0131     0.1408     7.8592     0.7597   225.2800     7.6339    -0.0162
  706   14.100   2683.40     7.7551     0.0609     0.0100     0.1410     7.7565     0.7744   225.6000     7.5309    -0.0183
  707   14.120   2684.36     7.2892     0.0615     0.0166     0.1412     7.2960     0.8315   225.9200     7.0701    -0.0177
  708   14.140   2685.35     6.8010     0.0649     0.0472     0.1414     6.8186     0.9449   226.2400     6.5924    -0.0151
  709   14.160   2686.34     6.9175     0.0649     0.0524     0.1416     6.9365     0.9507   226.5600     6.7099    -0.0144
  710   14.180   2687.31     7.7419     0.0596     0.1225     0.1418     7.7825     0.8101   226.8800     7.5556    -0.0060
  711   14.200   2688.24     9.0788     0.0500     0.0831     0.1420     9.1132     0.5884   227.2000     8.8860    -0.0067
  712   14.220   2689.26    11.0044     0.0391    -0.0069     0.1422    11.0265     0.3854   227.5200    10.7990    -0.0082
  713   14.240   2690.21    12.4086     0.0321    -0.1283     0.1424    12.3686     0.2728   227.8400    12.1408    -0.0196
  714   14.260   2691.18    13.3297     0.0339    -0.1820     0.1426    13.2533     0.2607   228.1600    13.0252    -0.0249
  715   14.280   2692.09    13.6619     0.0405    -0.1742     0.1428    13.5875     0.2994   228.4800    13.3590    -0.0240
  716   14.300   2693.03    13.5410     0.0531    -0.1791     0.1430    13.4670     0.3881   228.8000    13.2382    -0.0241
  717   14.320   2693.94    13.2031     0.0701    -0.1796     0.1432    13.1274     0.5255   229.1200    12.8983    -0.0251
  718   14.340   2694.88    12.7864     0.0818    -0.1754     0.1434    12.7117     0.6305   229.4400    12.4822    -0.0257
  719   14.360   2695.85    12.2752     0.0898    -0.1646     0.1436    12.2040     0.7186   229.7600    11.9743    -0.0262
  720   14.380   2696.77    11.6872     0.0954    -0.1477     0.1438    11.6222     0.7997   230.0800    11.3921    -0.0262
  721   14.400   2697.69    11.1044     0.0977    -0.1298     0.1440    11.0472     0.8599   230.4000    10.8168    -0.0259
  722   14.420   2698.67    10.6906     0.0847    -0.1069     0.1442    10.6421     0.7818   230.7200    10.4113    -0.0249
  723   14.440   2699.59    10.4225     0.0727    -0.0762     0.1444    10.3857     0.6911   231.0400    10.1547    -0.0228
  724   14.460   2700.57    10.6320     0.0656    -0.0348     0.1446    10.6109     0.6278   231.3600    10.3795    -0.0188
  725   14.480   2701.51    11.3018     0.0630     0.0188     0.1448    11.3045     0.5769   231.6800    11.0728    -0.0125
  726   14.500   2702.45    11.8927     0.0618    -0.0507     0.1450    11.8858     0.5301   232.0000    11.6538    -0.0138
  727   14.520   2703.39    11.8335     0.0665    -0.0779     0.1452    11.8008     0.5562   232.3200    11.5684    -0.0193
  728   14.540   2704.30    11.2920     0.0718    -0.0878     0.1454    11.2564     0.6234   232.6400    11.0238    -0.0209
  729   14.560   2705.24    10.5332     0.0810    -0.0806     0.1456    10.4979     0.7521   232.9600    10.2650    -0.0224
  730   14.580   2706.17    10.0426     0.0913    -0.0692     0.1458    10.0115     0.8958   233.2800     9.7782    -0.0225
  731   14.600   2707.13     9.6781     0.0842    -0.0467     0.1460     9.6538     0.8604   233.6000     9.4202    -0.0216
  732   14.620   2708.07     9.5374     0.0744    -0.0108     0.1462     9.5271     0.7785   233.9200     9.2932    -0.0184
  733   14.640   2709.05     9.7873     0.0695     0.0262     0.1464     9.7927     0.7204   234.2400     9.5585    -0.0140
  734   14.660   2710.02    10.3504     0.0676     0.0891     0.1466    10.3822     0.6716   234.5600    10.1477    -0.0070
  735   14.680   2710.98    10.8374     0.0687    -0.0251     0.1468    10.8463     0.6418   234.8800    10.6115    -0.0118
  736   14.700   2711.95    10.8479     0.0734    -0.0361     0.1470    10.8297     0.6740   235.2000    10.5945    -0.0180
  737   14.720   2712.87    10.5862     0.0769    -0.0367     0.1472    10.5724     0.7163   235.5200    10.3368    -0.0174
  738   14.740   2713.81    10.1447     0.0744    -0.0188     0.1474    10.1330     0.7207   235.8400     9.8971    -0.0177
  739   14.760   2714.73    10.0064     0.0727     0.0000     0.1476    10.0030     0.7236   236.1600     9.7668    -0.0159
  740   14.780   2715.70     9.9540     0.0654     0.0397     0.1478     9.9636     0.6552   236.4800     9.7271    -0.0128
  741   14.800   2716.63     9.9823     0.0614     0.0519     0.1480    10.0065     0.6182   236.8000     9.7697    -0.0093
  742   14.820   2717.58    10.2624     0.0557    -0.0722     0.1482    10.2538     0.5503   237.1200    10.0167    -0.0168
  743   14.840   2718.54    10.3508     0.0462    -0.1267     0.1484    10.2996     0.4448   237.4400    10.0622    -0.0269
  744   14.860   2719.49    10.2138     0.0429    -0.1182     0.1486    10.1639     0.4176   237.7600     9.9262    -0.0269
  745   14.880   2720.43    10.0797     0.0434    -0.1189     0.1488    10.0302     0.4281   238.0800     9.7921    -0.0272
  746   14.900   2721.38    10.1742     0.0363    -0.1213     0.1490    10.1247     0.3594   238.4000     9.8863    -0.0270
  747   14.920   2722.29    10.3090     0.0316    -0.1124     0.1492    10.2612     0.3082   238.7200    10.0225    -0.0262
  748   14.940   2723.23    10.5198     0.0393    -0.1100     0.1494    10.4734     0.3764   239.0400    10.2344    -0.0254
  749   14.960   2724.21    10.7125     0.0485    -0.1402     0.1496    10.6597     0.4547   239.3600    10.4203    -0.0264
  750   14.980   2725.14    10.3913     0.0543    -0.1554     0.1498    10.3259     0.5147   239.6800    10.0862    -0.0303
  751   15.000   2726.10     9.8974     0.0599    -0.1506     0.1500     9.8334     0.5962   240.0000     9.5934    -0.0315
  752   15.020   2727.04     9.6318     0.0623    -0.1448     0.1502     9.5700     0.6407   240.3200     9.3296    -0.0319
  753   15.040   2727.97     9.5555     0.0676    -0.1342     0.1504     9.4973     0.7079   240.6400     9.2566    -0.0312
  754   15.060   2728.93     9.6148     0.0648    -0.1147     0.1506     9.5636     0.6742   240.9600     9.3227    -0.0292
  755   15.080   2729.92     9.5568     0.0649    -0.0930     0.1508     9.5143     0.6787   241.2800     9.2731    -0.0272
  756   15.100   2730.85     9.7710     0.0612    -0.0801     0.1510     9.7358     0.6342   241.6000     9.4942    -0.0247
  757   15.120   2731.79    10.3227     0.0518    -0.0664     0.1512    10.2926     0.5174   241.9200    10.0507    -0.0222
  758   15.140   2732.76    11.5215     0.0510    -0.0521     0.1514    11.4994     0.4674   242.2400    11.2572    -0.0181
  759   15.160   2733.69    12.8943     0.0530    -0.0939     0.1516    12.8620     0.4338   242.5600    12.6195    -0.0181
  760   15.180   2734.67    14.0981     0.0606    -0.1078     0.1518    14.0537     0.4469   242.8800    13.8108    -0.0186
  761   15.200   2735.61    15.3017     0.0684    -0.1213     0.1520    15.2515     0.4679   243.2000    15.0083    -0.0181
  762   15.220   2736.52    16.3842     0.0761    -0.1191     0.1522    16.3339     0.4803   243.5200    16.0903    -0.0169
  763   15.240   2737.47    17.1764     0.0815    -0.1112     0.1524    17.1280     0.4814   243.8400    16.8842    -0.0158
  764   15.260   2738.36    17.4633     0.0851    -0.1057     0.1526    17.4189     0.4901   244.1600    17.1748    -0.0150
  765   15.280   2739.32    17.7495     0.0895    -0.0972     0.1528    17.7070     0.5093   244.4800    17.4625    -0.0145
  766   15.300   2740.27    18.1792     0.0931    -0.0829     0.1530    18.1412     0.5182   244.8000    17.8964    -0.0136
  767   15.320   2741.18    18.6990     0.0960    -0.0586     0.1532    18.6705     0.5218   245.1200    18.4253    -0.0120
  768   15.340   2742.10    19.1966     0.0949    -0.0375     0.1534    19.1785     0.4969   245.4400    18.9331    -0.0104
  769   15.360   2743.02    19.4954     0.0929    -0.0222     0.1536    19.4836     0.4768   245.7600    19.2379    -0.0094
  770   15.380   2743.94    19.1517     0.0928    -0.0068     0.1538    19.1468     0.4813   246.0800    18.9008    -0.0087
  771   15.400   2744.88    18.2889     0.0945     0.0040     0.1540    18.2893     0.5063   246.4000    18.0429    -0.0085
  772   15.420   2745.79    17.3668     0.0939     0.0245     0.1542    17.3764     0.5248   246.7200    17.1297    -0.0077
  773   15.440   2746.71    16.4769     0.0910     0.0552     0.1544    16.4950     0.5387   247.0400    16.2480    -0.0069
  774   15.460   2747.64    15.8498     0.0856     0.0839     0.1546    15.8813     0.5293   247.3600    15.6340    -0.0051
  775   15.480   2748.56    15.2272     0.0816     0.1010     0.1548    15.2671     0.5350   247.6800    15.0194    -0.0040
  776   15.500   2749.48    14.7896     0.0789     0.1242     0.1550    14.8390     0.5260   248.0000    14.5910    -0.0026
  777   15.520   2750.39    14.5310     0.0763     0.1354     0.1552    14.5852     0.5213   248.3200    14.3369    -0.0018
  778   15.540   2751.34    14.4974     0.0785     0.1349     0.1554    14.5537     0.5424   248.6400    14.3051    -0.0015
  779   15.560   2752.24    14.8850     0.0766     0.1483     0.1556    14.9478     0.5227   248.9600    14.6988    -0.0004
  780   15.580   2753.17    15.7438     0.0678     0.1421     0.1558    15.8042     0.4428   249.2800    15.5550    -0.0008
  781   15.600   2754.11    17.2083     0.0667     0.1252     0.1560    17.2635     0.4039   249.6000    17.0139    -0.0014
  782   15.620   2755.07    18.6064     0.0681     0.1331     0.1562    18.6571     0.3797   249.9200    18.4072    -0.0019
  783   15.640   2756.01    19.6178     0.0689     0.1417     0.1564    19.6808     0.3572   250.2400    19.4306    -0.0003
  784   15.660   2756.98    20.7600     0.0682     0.0913     0.1566    20.8049     0.3294   250.5600    20.5544    -0.0024
  785   15.680   2757.89    21.5527     0.0607     0.0818     0.1568    21.5886     0.2870   250.8800    21.3377    -0.0034
  786   15.700   2758.84    21.8444     0.0566     0.0784     0.1570    21.8759     0.2599   251.2000    21.6247    -0.0038
  787   15.720   2761.18    21.8723     0.0545     0.1056     0.1572    21.9128     0.2497   251.5200    21.6613    -0.0028
  788   15.740   2779.63    22.2995     0.0510     0.1323     0.1574    22.3512     0.2334   251.8400    22.0993    -0.0016
  789   15.760   2798.08    22.7266     0.0466     0.1552     0.1576    22.7895     0.2134   252.1600    22.5373    -0.0004
  790   15.780   2802.05    23.5669     0.0466     0.1532     0.1578    23.6311     0.2008   252.4800    23.3786    -0.0002
  791   15.800   2803.02    24.6632     0.0501     0.1546     0.1580    24.7288     0.2071   252.8000    24.4760    -0.0001
  792   15.820   2803.97    25.5706     0.0530     0.1553     0.1582    25.6358     0.2101   253.1200    25.3827    -0.0001
  793   15.840   2804.94    26.5204     0.0554     0.1603     0.1584    26.5859     0.2123   253.4400    26.3324    -0.0001
  794   15.860   2805.86    27.3321     0.0569     0.1596     0.1586    27.3985     0.2108   253.7600    27.1448     0.0000
  795   15.880   2806.79    28.0447     0.0614     0.1525     0.1588    28.1097     0.2217   254.0800    27.8556    -0.0001
  796   15.900   2807.72    28.4246     0.0669     0.1557     0.1590    28.4880     0.2365   254.4000    28.2336    -0.0003
  797   15.920   2808.72    28.7855     0.0724     0.1537     0.1592    28.8511     0.2534   254.7200    28.5963    -0.0001
  798   15.940   2809.62    29.1248     0.0786     0.1530     0.1594    29.1891     0.2711   255.0400    28.9341    -0.0002
  799   15.960   2810.57    29.4035     0.0782     0.1559     0.1596    29.4683     0.2664   255.3600    29.2129    -0.0002
  800   15.980   2811.51    29.4998     0.0716     0.1489     0.1598    29.5634     0.2426   255.6800    29.3077    -0.0003
  801   16.000   2812.44    29.1219     0.0661     0.1570     0.1600    29.1871     0.2254   256.0000    28.9311    -0.0002
  802   16.020   2813.40    28.3727     0.0614     0.1500     0.1602    28.4376     0.2142   256.3200    28.1813    -0.0002
  803   16.040   2814.37    27.9348     0.0568     0.1542     0.1604    27.9989     0.2025   256.6400    27.7423    -0.0003
  804   16.060   2815.33    28.2912     0.0505     0.1602     0.1606    28.3590     0.1800   256.9600    28.1021     0.0000
  805   16.080   2816.28    29.2392     0.0524     0.1571     0.1608    29.3055     0.1809   257.2800    29.0482    -0.0001
  806   16.100   2817.21    29.9063     0.0569     0.1571     0.1610    29.9705     0.1911   257.6000    29.7129    -0.0003
  807   16.120   2818.21    30.4150     0.0593     0.1618     0.1612    30.4822     0.1959   257.9200    30.2243     0.0000
  808   16.140   2819.11    30.4890     0.0624     0.1603     0.1614    30.5569     0.2043   258.2400    30.2987     0.0000
  809   16.160   2820.10    30.4061     0.0645     0.1550     0.1616    30.4708     0.2116   258.5600    30.2123    -0.0002
  810   16.180   2821.11    30.5811     0.0665     0.1545     0.1618    30.6457     0.2182   258.8800    30.3868    -0.0003
  811   16.200   2822.05    30.5838     0.0682     0.1610     0.1620    30.6504     0.2228   259.2000    30.3912    -0.0001
  812   16.220   2823.01    30.4386     0.0683     0.1582     0.1622    30.5062     0.2236   259.5200    30.2466     0.0000
  813   16.240   2823.93    30.1082     0.0680     0.1634     0.1624    30.1755     0.2247   259.8400    29.9157    -0.0001
  814   16.260   2824.86    29.4747     0.0651     0.1617     0.1626    29.5420     0.2192   260.1600    29.2819    -0.0001
  815   16.280   2825.83    28.7904     0.0611     0.1575     0.1628    28.8579     0.2108   260.4800    28.5974    -0.0001
  816   16.300   2826.81    28.2419     0.0577     0.1524     0.1630    28.3059     0.2030   260.8000    28.0451    -0.0004
  817   16.320   2827.76    27.9713     0.0563     0.1563     0.1632    28.0362     0.2003   261.1200    27.7751    -0.0003
  818   16.340   2828.67    27.9333     0.0530     0.1618     0.1634    28.0027     0.1895   261.4400    27.7413     0.0001
  819   16.360   2829.68    27.8417     0.0578     0.1617     0.1636    27.9088     0.2067   261.7600    27.6471    -0.0001
  820   16.380   2830.61    27.9439     0.0594     0.1557     0.1638    28.0087     0.2131   262.0800    27.7466    -0.0003
  821   16.400   2831.57    27.8805     0.0587     0.1599     0.1640    27.9475     0.2102   262.4000    27.6851    -0.0002
  822   16.420   2832.49    27.7359     0.0577     0.1496     0.1642    27.8003     0.2074   262.7200    27.5375    -0.0004
  823   16.440   2833.47    27.3324     0.0538     0.1595     0.1644    27.3985     0.1957   263.0400    27.1355    -0.0003
  824   16.460   2834.43    26.9569     0.0525     0.1633     0.1646    27.0242     0.1933   263.3600    26.7609    -0.0002
  825   16.480   2835.36    26.8013     0.0508     0.1570     0.1648    26.8686     0.1898   263.6800    26.6050    -0.0002
  826   16.500   2836.30    26.9546     0.0502     0.1598     0.1650    27.0199     0.1866   264.0000    26.7559    -0.0004
  827   16.520   2837.24    26.9805     0.0526     0.1654     0.1652    27.0512     0.1955   264.3200    26.7869     0.0001
  828   16.540   2838.19    26.7698     0.0538     0.1603     0.1654    26.8383     0.2005   264.6400    26.5736    -0.0001
  829   16.560   2839.16    26.5919     0.0553     0.1607     0.1656    26.6601     0.2080   264.9600    26.3951    -0.0001
  830   16.580   2840.12    26.6123     0.0564     0.1612     0.1658    26.6805     0.2116   265.2800    26.4152    -0.0001
  831   16.600   2841.06    26.5121     0.0575     0.1595     0.1660    26.5787     0.2163   265.6000    26.3131    -0.0003
  832   16.620   2842.01    26.3427     0.0562     0.1638     0.1662    26.4109     0.2129   265.9200    26.1450    -0.0001
  833   16.640   2842.97    26.2134     0.0551     0.1646     0.1664    26.2825     0.2103   266.2400    26.0163    -0.0001
  834   16.660   2843.91    26.3138     0.0563     0.1653     0.1666    26.3831     0.2143   266.5600    26.1166    -0.0001
  835   16.680   2844.89    26.6143     0.0563     0.1665     0.1668    26.6835     0.2127   266.8800    26.4167    -0.0001
  836   16.700   2845.83    26.9133     0.0579     0.1625     0.1670    26.9816     0.2160   267.2000    26.7144    -0.0002
  837   16.720   2846.78    27.2141     0.0619     0.1649     0.1672    27.2825     0.2287   267.5200    27.0150    -0.0002
  838   16.740   2847.76    27.4431     0.0636     0.1673     0.1674    27.5127     0.2323   267.8400    27.2448    -0.0001
  839   16.760   2848.72    27.5138     0.0647     0.1653     0.1676    27.5835     0.2352   268.1600    27.3154    -0.0001
  840   16.780   2849.64    27.3266     0.0650     0.1639     0.1678    27.3947     0.2367   268.4800    27.1262    -0.0002
  841   16.800   2850.59    26.9599     0.0659     0.1647     0.1680    27.0291     0.2435   268.8000    26.7603    -0.0001
  842   16.820   2851.54    26.6545     0.0644     0.1681     0.1682    26.7243     0.2405   269.1200    26.4552    -0.0001
  843   16.840   2852.51    26.3921     0.0630     0.1635     0.1684    26.4622     0.2376   269.4400    26.1927    -0.0001
  844   16.860   2853.45    26.1159     0.0641     0.1681     0.1686    26.1859     0.2443   269.7600    25.9161    -0.0001
  845   16.880   2854.40    25.7447     0.0636     0.1693     0.1688    25.8151     0.2453   270.0800    25.5450    -0.0001
  846   16.900   2855.32    25.3688     0.0636     0.1653     0.1690    25.4388     0.2487   270.4000    25.1684    -0.0001
  847   16.920   2856.27    24.9673     0.0635     0.1684     0.1692    25.0386     0.2527   270.7200    24.7679     0.0000
  848   16.940   2857.23    24.6220     0.0621     0.1698     0.1694    24.6939     0.2507   271.0400    24.4229     0.0001
  849   16.960   2858.20    24.3255     0.0610     0.1689     0.1696    24.3963     0.2495   271.3600    24.1249     0.0000
  850   16.980   2859.11    23.9090     0.0603     0.1662     0.1698    23.9787     0.2507   271.6800    23.7070    -0.0002
  851   17.000   2860.03    23.4801     0.0591     0.1681     0.1700    23.5504     0.2501   272.0000    23.2784    -0.0001
  852   17.020   2860.98    23.2126     0.0567     0.1689     0.1702    23.2844     0.2432   272.3200    23.0121     0.0000
  853   17.040   2861.92    23.1258     0.0532     0.1671     0.1704    23.1952     0.2294   272.6400    22.9225    -0.0002
  854   17.060   2862.89    22.9037     0.0509     0.1739     0.1706    22.9762     0.2217   272.9600    22.7033     0.0001
  855   17.080   2863.77    22.7276     0.0487     0.1676     0.1708    22.7995     0.2139   273.2800    22.5262     0.0000
  856   17.100   2864.75    22.6680     0.0468     0.1694     0.1710    22.7398     0.2068   273.6000    22.4662     0.0000
  857   17.120   2865.68    23.0337     0.0480     0.1679     0.1712    23.1034     0.2095   273.9200    22.8295    -0.0002
  858   17.140   2866.64    23.5153     0.0487     0.1680     0.1714    23.5864     0.2084   274.2400    23.3121    -0.0001
  859   17.160   2867.65    23.7417     0.0483     0.1678     0.1716    23.8113     0.2040   274.5600    23.5368    -0.0002
  860   17.180   2868.60    23.8903     0.0460     0.1700     0.1718    23.9613     0.1927   274.8800    23.6865    -0.0001
  861   17.200   2869.53    23.8191     0.0429     0.1695     0.1720    23.8907     0.1803   275.2000    23.6155    -0.0001
  862   17.220   2870.47    23.9893     0.0399     0.1761     0.1722    24.0615     0.1669   275.5200    23.7860     0.0000
  863   17.240   2871.42    23.9055     0.0376     0.1728     0.1724    23.9785     0.1568   275.8400    23.7027     0.0001
  864   17.260   2872.37    23.6615     0.0387     0.1723     0.1726    23.7342     0.1628   276.1600    23.4580     0.0000
  865   17.280   2873.32    23.3801     0.0387     0.1766     0.1728    23.4535     0.1645   276.4800    23.1770     0.0001
  866   17.300   2874.27    23.2205     0.0388     0.1763     0.1730    23.2941     0.1666   276.8000    23.0173     0.0001
  867   17.320   2875.20    23.2515     0.0410     0.1750     0.1732    23.3245     0.1773   277.1200    23.0474     0.0000
  868   17.340   2876.12    23.2608     0.0429     0.1741     0.1734    23.3340     0.1849   277.4400    23.0565     0.0000
  869   17.360   2877.05    23.3466     0.0464     0.1762     0.1736    23.4205     0.1990   277.7600    23.1427     0.0001
  870   17.380   2878.00    23.2141     0.0500     0.1753     0.1738    23.2879     0.2144   278.0800    23.0098     0.0001
  871   17.400   2878.94    22.9823     0.0493     0.1770     0.1740    23.0561     0.2135   278.4000    22.7777     0.0001
  872   17.420   2879.87    22.7294     0.0501     0.1777     0.1742    22.8044     0.2190   278.7200    22.5257     0.0002
  873   17.440   2880.80    22.3965     0.0503     0.1766     0.1744    22.4704     0.2230   279.0400    22.1914     0.0001
  874   17.460   2881.76    21.9330     0.0522     0.1792     0.1746    22.0084     0.2359   279.3600    21.7291     0.0002
  875   17.480   2882.71    21.3197     0.0512     0.1764     0.1748    21.3942     0.2356   279.6800    21.1145     0.0001
  876   17.500   2883.63    20.7573     0.0507     0.1772     0.1750    20.8323     0.2431   280.0000    20.5523     0.0002
  877   17.520   2884.54    19.9324     0.0449     0.1734     0.1752    20.0053     0.2210   280.3200    19.7250    -0.0001
  878   17.540   2885.47    18.9525     0.0396     0.1769     0.1754    19.0263     0.2029   280.6400    18.7457     0.0000
  879   17.560   2886.40    17.9566     0.0350     0.1757     0.1756    18.0293     0.1891   280.9600    17.7483    -0.0001
  880   17.580   2887.30    17.1383     0.0324     0.1785     0.1758    17.2137     0.1847   281.2800    16.9324     0.0002
  881   17.600   2888.26    16.3166     0.0306     0.1753     0.1760    16.3900     0.1867   281.6000    16.1084    -0.0001
  882   17.620   2889.13    15.4231     0.0304     0.1781     0.1762    15.4967     0.1936   281.9200    15.2148    -0.0001
  883   17.640   2890.08    14.5331     0.0315     0.1798     0.1764    14.6088     0.2163   282.2400    14.3265     0.0003
  884   17.660   2890.98    13.4743     0.0325     0.1807     0.1766    13.5501     0.2389   282.5600    13.2675     0.0003
  885   17.680   2891.93    12.4141     0.0310     0.1791     0.1768    12.4895     0.2436   282.8800    12.2066     0.0002
  886   17.700   2892.85    11.2567     0.0269     0.1816     0.1770    11.3324     0.2345   283.2000    11.0492     0.0003
  887   17.720   2894.67     9.6471     0.0234     0.1818     0.1772     9.7237     0.2376   283.5200     9.4402     0.0005
  888   17.740   2911.11     7.7946     0.0210     0.1801     0.1774     7.8705     0.2157   283.8400     7.5866     0.0003
  889   17.760   2927.56     5.9420     0.0180     0.1784     0.1776     6.0172     0.1851   284.1600     5.7331     0.0001
  890   17.780   2942.32     4.2230     0.0178     0.1772     0.1778     4.2975     0.3072   284.4800     4.0130    -0.0001
  891   17.800   2943.28     3.4968     0.0176     0.1790     0.1780     3.5719     0.4698   284.8000     3.2871     0.0003
  892   17.820   2944.27     2.6259     0.0202     0.1799     0.1782     2.7014     0.6935   285.1200     2.4163     0.0006
  893   17.840   2945.23     1.9602     0.0232     0.1789     0.1784     2.0350     1.0721   285.4400     1.7495    -0.0002
  894   17.860   2946.21     1.4672     0.0275     0.1821     0.1786     1.5430     1.7366   285.7600     1.2572     0.0016
  895   17.880   2947.13     1.2289     0.0304     0.1802     0.1788     1.3047     2.3691   286.0800     1.0186     0.0017
  896   17.900   2948.09     1.0456     0.0326     0.1824     0.1790     1.1218     3.0152   286.4000     0.8354     0.0031
  897   17.920   2949.07     0.9609     0.0358     0.1856     0.1792     1.0384     3.6706   286.7200     0.7517     0.0070
  898   17.940   2950.01     0.9762     0.0384     0.1869     0.1794     1.0546     4.0475   287.0400     0.7675     0.0093
  899   17.960   2950.96     1.0149     0.0414     0.1868     0.1796     1.0935     4.1176   287.3600     0.8062     0.0095
  900   17.980   2951.95     0.9968     0.0417     0.1871     0.1798     1.0750     4.1180   287.6800     0.7874     0.0083
  901   18.000   2952.92     0.9207     0.0426     0.1895     0.1800     0.9995     4.5056   288.0000     0.7115     0.0106
  902   18.020   2953.91     0.9560     0.0438     0.2151     0.1802     1.0405     4.9281   288.3200     0.7521     0.0268
  903   18.040   2954.85     1.9365     0.0440     0.2374     0.1804     2.0362     2.8119   288.6400     1.7476     0.0337
  904   18.060   2955.82     3.8755     0.0473     0.1884     0.1806     3.9621     1.4172   288.9600     3.6731     0.0073
  905   18.080   2956.79     5.3282     0.0498     0.1715     0.1808     5.3988     0.9915   289.2800     5.1095    -0.0025
  906   18.100   2957.78     5.7663     0.0490     0.1819     0.1810     5.8419     0.8569   289.6000     5.5523    -0.0001
  907   18.120   2958.71     5.7848     0.0479     0.1857     0.1812     5.8626     0.8279   289.9200     5.5727     0.0007
  908   18.140   2959.73     6.1559     0.0504     0.1864     0.1814     6.2339     0.8422   290.2400     5.9436     0.0007
  909   18.160   2960.73     7.5159     0.0511     0.1875     0.1816     7.5946     0.7428   290.5600     7.3040     0.0008
  910   18.180   2961.70     9.4818     0.0492     0.1800     0.1818     9.5595     0.5722   290.8800     9.2686     0.0003
  911   18.200   2962.64    11.1039     0.0617     0.1319     0.1820    11.1678     0.5945   291.2000    10.8766    -0.0027
  912   18.220   2963.62    12.0367     0.0656     0.1042     0.1822    12.0857     0.5581   291.5200    11.7942    -0.0056
  913   18.240   2964.56    12.2720     0.0654     0.0844     0.1824    12.3086     0.5378   291.8400    12.0167    -0.0079
  914   18.260   2965.48    12.3409     0.0626     0.0715     0.1826    12.3718     0.5089   292.1600    12.0796    -0.0090
  915   18.280   2966.43    12.8898     0.0584     0.1163     0.1828    12.9316     0.4637   292.4800    12.6391    -0.0066
  916   18.300   2967.35    12.6494     0.0558     0.1392     0.1830    12.7063     0.4356   292.8000    12.4135    -0.0038
  917   18.320   2968.28    12.8791     0.0538     0.1619     0.1832    12.9440     0.4213   293.1200    12.6509    -0.0023
  918   18.340   2969.25    13.0932     0.0457     0.1728     0.1834    13.1646     0.3501   293.4400    12.8712    -0.0010
  919   18.360   2970.17    12.8415     0.0399     0.1771     0.1836    12.9151     0.3075   293.7600    12.6213    -0.0007
  920   18.380   2971.07    12.1406     0.0390     0.1813     0.1838    12.2158     0.3119   294.0800    11.9217    -0.0004
  921   18.400   2972.01    11.4927     0.0390     0.1834     0.1840    11.5699     0.3334   294.4000    11.2755     0.0000
  922   18.420   2972.93    10.8891     0.0438     0.1822     0.1842    10.9662     0.3943   294.7200    10.6715    -0.0001
  923   18.440   2973.90    10.1282     0.0472     0.1862     0.1844    10.2060     0.4568   295.0400     9.9110     0.0001
  924   18.460   2974.85     9.4749     0.0502     0.1875     0.1846     9.5533     0.5190   295.3600     9.2579     0.0002
  925   18.480   2975.81     8.8247     0.0439     0.1872     0.1848     8.9038     0.4856   295.6800     8.6081     0.0004
  926   18.500   2976.78     8.4337     0.0445     0.1885     0.1850     8.5126     0.5234   296.0000     8.2166     0.0004
  927   18.520   2977.76     8.7603     0.0484     0.1889     0.1852     8.8397     0.5660   296.3200     8.5434     0.0004
  928   18.540   2978.71    10.1130     0.0366     0.1893     0.1854    10.1925     0.3821   296.6400     9.8959     0.0004
  929   18.560   2979.68    12.4564     0.0329     0.1864     0.1856    12.5357     0.2825   296.9600    12.2388     0.0003
  930   18.580   2980.64    15.2842     0.0331     0.1775     0.1858    15.3602     0.2334   297.2800    15.0629    -0.0003
  931   18.600   2981.60    18.3768     0.0317     0.0921     0.1860    18.4358     0.1872   297.6000    18.1382    -0.0025
  932   18.620   2982.56    20.9394     0.0388     0.0054     0.1862    20.9490     0.1920   297.9200    20.6511    -0.0079
  933   18.640   2983.51    22.7662     0.0440    -0.0121     0.1864    22.7621     0.1972   298.2400    22.4639    -0.0087
  934   18.660   2984.48    24.2455     0.0458    -0.0338     0.1866    24.2300     0.1927   298.5600    23.9314    -0.0093
  935   18.680   2985.41    25.4942     0.0508     0.0021     0.1868    25.4886     0.2029   298.8800    25.1898    -0.0079
  936   18.700   2986.37    26.8521     0.0553     0.0346     0.1870    26.8628     0.2101   299.2000    26.5636    -0.0061
  937   18.720   2987.30    28.0592     0.0595     0.0363     0.1872    28.0810     0.2156   299.5200    27.7814    -0.0049
  938   18.740   2988.25    28.6344     0.0639     0.0651     0.1874    28.6576     0.2245   299.8400    28.3578    -0.0047
  939   18.760   2989.20    28.9736     0.0656     0.0900     0.1876    29.0063     0.2270   300.1600    28.7061    -0.0038
  940   18.780   2990.15    29.1240     0.0654     0.1192     0.1878    29.1701     0.2250   300.4800    28.8696    -0.0027
  941   18.800   2991.14    28.9598     0.0670     0.1380     0.1880    29.0164     0.2307   300.8000    28.7156    -0.0019
  942   18.820   2992.07    29.0357     0.0681     0.1510     0.1882    29.0972     0.2342   301.1200    28.7961    -0.0014
  943   18.840   2993.04    29.0122     0.0681     0.1603     0.1884    29.0776     0.2348   301.4400    28.7762    -0.0011
  944   18.860   2994.01    29.3634     0.0677     0.1719     0.1886    29.4342     0.2323   301.7600    29.1325    -0.0007
  945   18.880   2994.94    29.8771     0.0684     0.1849     0.1888    29.9528     0.2309   302.0800    29.6507    -0.0003
  946   18.900   2995.87    30.2268     0.0687     0.1796     0.1890    30.3017     0.2278   302.4000    29.9993    -0.0004
  947   18.920   2996.81    29.9530     0.0713     0.1880     0.1892    30.0277     0.2367   302.7200    29.7250    -0.0004
  948   18.940   2997.75    29.4308     0.0736     0.1749     0.1894    29.5058     0.2482   303.0400    29.2027    -0.0004
  949   18.960   2998.69    28.8676     0.0720     0.1747     0.1896    28.9391     0.2463   303.3600    28.6357    -0.0007
  950   18.980   2999.64    28.0415     0.0730     0.1791     0.1898    28.1168     0.2562   303.6800    27.8132    -0.0004
  951   19.000   3000.57    27.4599     0.0727     0.1735     0.1900    27.5327     0.2618   304.0000    27.2287    -0.0006
  952   19.020   3001.50    26.7591     0.0753     0.1808     0.1902    26.8347     0.2778   304.3200    26.5304    -0.0004
  953   19.040   3002.44    25.8200     0.0774     0.1822     0.1904    25.8966     0.2947   304.6400    25.5920    -0.0003
  954   19.060   3003.36    24.7701     0.0786     0.1837     0.1906    24.8472     0.3102   304.9600    24.5422    -0.0003
  955   19.080   3004.29    23.4062     0.0775     0.1787     0.1908    23.4796     0.3205   305.2800    23.1743    -0.0007
  956   19.100   3005.23    21.9673     0.0721     0.1864     0.1910    22.0460     0.3198   305.6000    21.7404    -0.0002
  957   19.120   3006.15    20.7443     0.0696     0.1905     0.1912    20.8236     0.3273   305.9200    20.5176    -0.0001
  958   19.140   3007.10    19.6553     0.0666     0.1908     0.1914    19.7353     0.3307   306.2400    19.4290    -0.0001
  959   19.160   3008.01    18.9244     0.0641     0.1932     0.1916    19.0052     0.3326   306.5600    18.6987     0.0000
  960   19.180   3008.98    18.3833     0.0596     0.1941     0.1918    18.4649     0.3198   306.8800    18.1580     0.0001
  961   19.200   3009.91    18.0802     0.0556     0.1940     0.1920    18.1612     0.3055   307.2000    17.8540     0.0000
  962   19.220   3010.87    18.0760     0.0534     0.1881     0.1922    18.1555     0.2964   307.5200    17.8480    -0.0002
  963   19.240   3011.78    18.2310     0.0509     0.1917     0.1924    18.3112     0.2803   307.8400    18.0034    -0.0001
  964   19.260   3012.73    18.5018     0.0495     0.1926     0.1926    18.5827     0.2690   308.1600    18.2746     0.0000
  965   19.280   3013.64    18.5856     0.0525     0.1931     0.1928    18.6671     0.2827   308.4800    18.3586     0.0001
  966   19.300   3014.58    18.2745     0.0552     0.1909     0.1930    18.3543     0.2988   308.8000    18.0455    -0.0002
  967   19.320   3015.53    17.7519     0.0526     0.1922     0.1932    17.8326     0.2921   309.1200    17.5235    -0.0001
  968   19.340   3016.44    17.2607     0.0486     0.1938     0.1934    17.3421     0.2784   309.4400    17.0327     0.0000
  969   19.360   3017.38    16.9849     0.0468     0.1972     0.1936    17.0674     0.2742   309.7600    16.7577     0.0002
  970   19.380   3018.34    17.5116     0.0459     0.1970     0.1938    17.5940     0.2680   310.0800    17.2840     0.0001
  971   19.400   3019.25    18.6152     0.0443     0.1943     0.1940    18.6970     0.2461   310.4000    18.3866     0.0000
  972   19.420   3020.19    19.9484     0.0438     0.1946     0.1942    20.0295     0.2259   310.7200    19.7188    -0.0001
  973   19.440   3021.15    21.1028     0.0446     0.1954     0.1944    21.1849     0.2162   311.0400    20.8738     0.0001
  974   19.460   3022.09    21.7975     0.0474     0.1956     0.1946    21.8799     0.2208   311.3600    21.5685     0.0001
  975   19.480   3023.03    22.3041     0.0514     0.1958     0.1948    22.3863     0.2329   311.6800    22.0746     0.0000
  976   19.500   3023.96    22.7823     0.0562     0.2009     0.1950    22.8654     0.2492   312.0000    22.5534     0.0001
  977   19.520   3024.95    23.0143     0.0624     0.1983     0.1952    23.0966     0.2716   312.3200    22.7843     0.0000
  978   19.540   3025.86    22.9648     0.0681     0.1994     0.1954    23.0483     0.2961   312.6400    22.7357     0.0002
  979   19.560   3026.81    22.5930     0.0742     0.1994     0.1956    22.6771     0.3260   312.9600    22.3642     0.0002
  980   19.580   3027.72    22.0242     0.0767     0.1954     0.1958    22.1067     0.3438   313.2800    21.7934     0.0000
  981   19.600   3028.64    21.0908     0.0764     0.1978     0.1960    21.1740     0.3532   313.6000    20.8604     0.0001
  982   19.620   3029.56    19.8726     0.0744     0.1964     0.1962    19.9553     0.3618   313.9200    19.6413     0.0000
  983   19.640   3030.52    18.6318     0.0720     0.1951     0.1964    18.7137     0.3731   314.2400    18.3995    -0.0001
  984   19.660   3031.42    17.3025     0.0716     0.1971     0.1966    17.3851     0.4002   314.5600    17.0706     0.0000
  985   19.680   3032.36    16.1293     0.0716     0.1966     0.1968    16.2119     0.4305   314.8800    15.8970     0.0000
  986   19.700   3033.32    15.3853     0.0717     0.2004     0.1970    15.4693     0.4608   315.2000    15.1541     0.0002
  987   19.720   3034.22    15.4215     0.0736     0.1958     0.1972    15.5065     0.4788   315.5200    15.1910     0.0003
  988   19.740   3035.17    16.0183     0.0664     0.1608     0.1974    16.0967     0.4185   315.8400    15.7809    -0.0007
  989   19.760   3040.64    17.1454     0.0499     0.0826     0.1976    17.1904     0.3002   316.1600    16.8742    -0.0051
  990   19.780   3054.09    18.5542     0.0388     0.0114     0.1978    18.5693     0.2333   316.4800    18.2528    -0.0084
  991   19.800   3067.54    19.9631     0.0268    -0.0599     0.1980    19.9482     0.1614   316.8000    19.6314    -0.0116
  992   19.820   3075.17    21.3096     0.0245    -0.1475     0.1982    21.2625     0.1207   317.1200    20.9453    -0.0148
  993   19.840   3076.09    22.0624     0.0271    -0.2094     0.1984    21.9797     0.1247   317.4400    21.6622    -0.0183
  994   19.860   3077.03    22.0592     0.0358    -0.2209     0.1986    21.9666     0.1623   317.7600    21.6489    -0.0194
  995   19.880   3077.99    21.5231     0.0483    -0.2179     0.1988    21.4311     0.2218   318.0800    21.1130    -0.0198
  996   19.900   3078.89    20.5723     0.0610    -0.2098     0.1990    20.4833     0.2894   318.4000    20.1649    -0.0204
  997   19.920   3079.82    19.7093     0.0720    -0.2047     0.1992    19.6222     0.3596   318.7200    19.3035    -0.0211
  998   19.940   3080.77    19.1326     0.0800    -0.1937     0.1994    19.0490     0.4138   319.0400    18.7300    -0.0213
  999   19.960   3081.66    18.8800     0.0748    -0.1714     0.1996    18.8043     0.3957   319.3600    18.4850    -0.0205
 1000   19.980   3082.62    19.1113     0.0689    -0.1387     0.1998    19.0481     0.3628   319.6800    18.7284    -0.0187
 1001   20.000   3083.57    19.9686     0.0611    -0.0943     0.2000    19.9215     0.3118   320.0000    19.6015    -0.0159
 1002   20.020   3084.55    21.6778     0.0554    -0.0427     0.2002    21.6529     0.2635   320.3200    21.3326    -0.0122
 1003   20.040   3085.50    24.2356     0.0535    -0.0348     0.2004    24.2249     0.2306   320.6400    23.9042    -0.0095
 1004   20.060   3086.48    26.9199     0.0604    -0.1049     0.2006    26.8850     0.2311   320.9600    26.5641    -0.0107
 1005   20.080   3087.39    28.4211     0.0730    -0.1454     0.2008    28.3662     0.2606   321.2800    28.0449    -0.0118
 1006   20.100   3088.39    29.2722     0.0825    -0.1531     0.2010    29.2086     0.2849   321.6000    28.8870    -0.0122
 1007   20.120   3089.34    29.9047     0.0916    -0.1355     0.2012    29.8456     0.3082   321.9200    29.5237    -0.0116
 1008   20.140   3090.28    30.3036     0.0939    -0.1192     0.2014    30.2520     0.3118   322.2400    29.9298    -0.0108
 1009   20.160   3091.27    30.6753     0.0869    -0.0953     0.2016    30.6317     0.2844   322.5600    30.3091    -0.0101
 1010   20.180   3092.19    30.5017     0.0778    -0.0749     0.2018    30.4684     0.2543   322.8800    30.1455    -0.0093
 1011   20.200   3093.17    29.7013     0.0639    -0.0742     0.2020    29.6701     0.2113   323.2000    29.3469    -0.0094
 1012   20.220   3094.09    28.6188     0.0459    -0.0852     0.2022    28.5863     0.1574   323.5200    28.2628    -0.0099
 1013   20.240   3095.02    27.6127     0.0369    -0.0913     0.2024    27.5745     0.1322   323.8400    27.2507    -0.0108
 1014   20.260   3095.97    27.3614     0.0334    -0.1180     0.2026    27.3168     0.1220   324.1600    26.9926    -0.0114
 1015   20.280   3096.91    27.4642     0.0393    -0.1199     0.2028    27.4161     0.1432   324.4800    27.0917    -0.0117
 1016   20.300   3097.86    27.6541     0.0540    -0.1062     0.2030    27.6058     0.1959   324.8000    27.2810    -0.0117
 1017   20.320   3098.83    27.6677     0.0749    -0.0973     0.2032    27.6262     0.2713   325.1200    27.3011    -0.0111
 1018   20.340   3099.77    27.7477     0.0850    -0.0737     0.2034    27.7087     0.3069   325.4400    27.3833    -0.0108
 1019   20.360   3100.69    27.5371     0.0737    -0.0362     0.2036    27.5162     0.2655   325.7600    27.1904    -0.0093
 1020   20.380   3101.65    26.9246     0.0707    -0.0002     0.2038    26.9202     0.2592   326.0800    26.5941    -0.0081
 1021   20.400   3102.59    26.0348     0.0663     0.0330     0.2040    26.0455     0.2500   326.4000    25.7191    -0.0069
 1022   20.420   3103.53    25.0158     0.0629     0.0695     0.2042    25.0379     0.2469   326.7200    24.7111    -0.0061
 1023   20.440   3104.44    24.2964     0.0581     0.1059     0.2044    24.3364     0.2359   327.0400    24.0094    -0.0045
 1024   20.460   3105.37    23.8736     0.0539     0.1277     0.2046    23.9225     0.2239   327.3600    23.5952    -0.0037
 1025   20.480   3106.33    23.6217     0.0474     0.1519     0.2048    23.6835     0.1991   327.6800    23.3558    -0.0025
 1026   20.500   3107.22    23.0585     0.0414     0.1720     0.2050    23.1298     0.1774   328.0000    22.8018    -0.0015
 1027   20.520   3108.22    21.8764     0.0384     0.1717     0.2052    21.9493     0.1719   328.3200    21.6210    -0.0015
 1028   20.540   3109.17    21.1178     0.0339     0.1790     0.2054    21.1952     0.1580   328.6400    20.8666    -0.0010
 1029   20.560   3110.07    20.6812     0.0326     0.1800     0.2056    20.7544     0.1563   328.9600    20.4255    -0.0015
 1030   20.580   3111.01    20.4578     0.0306     0.1890     0.2058    20.5359     0.1488   329.2800    20.2066    -0.0010
 1031   20.600   3111.94    20.5139     0.0312     0.1918     0.2060    20.5957     0.1528   329.6000    20.2661    -0.0006
 1032   20.620   3112.87    20.6222     0.0307     0.2028     0.2062    20.7057     0.1489   329.9200    20.3757    -0.0004
 1033   20.640   3113.79    20.6504     0.0286     0.2002     0.2064    20.7351     0.1384   330.2400    20.4049    -0.0002
 1034   20.660   3114.77    20.4465     0.0274     0.2005     0.2066    20.5309     0.1335   330.5600    20.2003    -0.0003
 1035   20.680   3115.69    20.5356     0.0282     0.2063     0.2068    20.6229     0.1373   330.8800    20.2920     0.0000
 1036   20.700   3116.65    20.8985     0.0289     0.2086     0.2070    20.9860     0.1393   331.2000    20.6548     0.0001
 1037   20.720   3117.60    21.2125     0.0301     0.2096     0.2072    21.3007     0.1436   331.5200    20.9692     0.0001
 1038   20.740   3118.56    21.5648     0.0298     0.2098     0.2074    21.6524     0.1391   331.8400    21.3205     0.0001
 1039   20.760   3119.49    21.9299     0.0305     0.2072     0.2076    22.0177     0.1406   332.1600    21.6856     0.0001
 1040   20.780   3120.40    22.3100     0.0320     0.2110     0.2078    22.3985     0.1444   332.4800    22.0660     0.0001
 1041   20.800   3121.38    22.4705     0.0336     0.2078     0.2080    22.5583     0.1499   332.8000    22.2255     0.0000
 1042   20.820   3122.30    22.7506     0.0368     0.2107     0.2082    22.8389     0.1621   333.1200    22.5058     0.0001
 1043   20.840   3123.29    22.9976     0.0384     0.2113     0.2084    23.0873     0.1683   333.4400    22.7538     0.0002
 1044   20.860   3124.21    23.2207     0.0406     0.2128     0.2086    23.3108     0.1763   333.7600    22.9770     0.0003
 1045   20.880   3125.15    23.3336     0.0431     0.2081     0.2088    23.4218     0.1841   334.0800    23.0877     0.0001
 1046   20.900   3126.06    23.1238     0.0470     0.2107     0.2090    23.2116     0.2019   334.4000    22.8772     0.0000
 1047   20.920   3127.01    22.5796     0.0472     0.2119     0.2092    22.6685     0.2065   334.7200    22.3338     0.0001
 1048   20.940   3127.97    22.1104     0.0433     0.2142     0.2094    22.1999     0.1939   335.0400    21.8649     0.0002
 1049   20.960   3128.89    21.7395     0.0376     0.2118     0.2096    21.8284     0.1716   335.3600    21.4930     0.0001
 1050   20.980   3129.85    21.3531     0.0367     0.2128     0.2098    21.4422     0.1706   335.6800    21.1065     0.0001
 1051   21.000   3130.79    21.1198     0.0372     0.2121     0.2100    21.2090     0.1749   336.0000    20.8730     0.0001
 1052   21.020   3131.69    21.0644     0.0356     0.2135     0.2102    21.1538     0.1692   336.3200    20.8175     0.0001
 1053   21.040   3132.65    21.0586     0.0349     0.2113     0.2104    21.1478     0.1665   336.6400    20.8111     0.0001
 1054   21.060   3133.60    21.0355     0.0341     0.2130     0.2106    21.1250     0.1616   336.9600    20.7881     0.0001
 1055   21.080   3134.56    20.7707     0.0342     0.2137     0.2108    20.8601     0.1636   337.2800    20.5228     0.0001
 1056   21.100   3135.47    20.4264     0.0339     0.2150     0.2110    20.5165     0.1649   337.6000    20.1789     0.0002
 1057   21.120   3136.38    19.9760     0.0328     0.2153     0.2112    20.0663     0.1621   337.9200    19.7284     0.0002
 1058   21.140   3137.33    19.3796     0.0316     0.2137     0.2114    19.4688     0.1601   338.2400    19.1305     0.0000
 1059   21.160   3138.28    18.5233     0.0292     0.2145     0.2116    18.6133     0.1537   338.5600    18.2747     0.0001
 1060   21.180   3139.21    17.8027     0.0275     0.2118     0.2118    17.8920     0.1517   338.8800    17.5531     0.0000
 1061   21.200   3140.18    17.0611     0.0248     0.2127     0.2120    17.1504     0.1420   339.2000    16.8112     0.0000
 1062   21.220   3141.09    16.1459     0.0241     0.2148     0.2122    16.2361     0.1476   339.5200    15.8965     0.0002
 1063   21.240   3142.00    15.5107     0.0269     0.2143     0.2124    15.6005     0.1729   339.8400    15.2607     0.0001
 1064   21.260   3142.96    14.9707     0.0231     0.2154     0.2126    15.0612     0.1517   340.1600    14.7211     0.0002
 1065   21.280   3143.88    14.6076     0.0215     0.2164     0.2128    14.6983     0.1453   340.4800    14.3578     0.0002
 1066   21.300   3144.81    14.5512     0.0228     0.2164     0.2130    14.6422     0.1564   340.8000    14.3014     0.0003
 1067   21.320   3145.70    14.5370     0.0226     0.2170     0.2132    14.6283     0.1557   341.1200    14.2872     0.0003
 1068   21.340   3146.64    14.7199     0.0254     0.2180     0.2134    14.8114     0.1742   341.4400    14.4700     0.0003
 1069   21.360   3147.58    14.9286     0.0234     0.2161     0.2136    15.0197     0.1582   341.7600    14.6779     0.0002
 1070   21.380   3148.47    14.7046     0.0233     0.2166     0.2138    14.7953     0.1567   342.0800    14.4532     0.0002
 1071   21.400   3149.40    14.0865     0.0220     0.2182     0.2140    14.1780     0.1559   342.4000    13.8356     0.0003
 1072   21.420   3150.34    13.8186     0.0228     0.2169     0.2142    13.9092     0.1648   342.7200    13.5665     0.0001
 1073   21.440   3151.27    13.6814     0.0226     0.2169     0.2144    13.7719     0.1651   343.0400    13.4289     0.0001
 1074   21.460   3152.20    14.0740     0.0236     0.2178     0.2146    14.1650     0.1681   343.3600    13.8216     0.0002
 1075   21.480   3153.10    14.2054     0.0241     0.2184     0.2148    14.2972     0.1698   343.6800    13.9536     0.0003
 1076   21.500   3154.00    14.1078     0.0248     0.2186     0.2150    14.1995     0.1758   344.0000    13.8555     0.0002
 1077   21.520   3154.92    13.7501     0.0234     0.2196     0.2152    13.8419     0.1685   344.3200    13.4975     0.0002
 1078   21.540   3155.85    13.3851     0.0235     0.2183     0.2154    13.4769     0.1733   344.6400    13.1323     0.0003
 1079   21.560   3156.79    13.0929     0.0246     0.2187     0.2156    13.1850     0.1884   344.9600    12.8400     0.0003
 1080   21.580   3157.70    13.1804     0.0242     0.2183     0.2158    13.2717     0.1843   345.2800    12.9264     0.0001
 1081   21.600   3158.61    13.5344     0.0238     0.2206     0.2160    13.6273     0.1777   345.6000    13.2817     0.0004
 1082   21.620   3159.55    13.5059     0.0249     0.2186     0.2162    13.5978     0.1836   345.9200    13.2519     0.0002
 1083   21.640   3160.45    13.2387     0.0266     0.2182     0.2164    13.3303     0.2004   346.2400    12.9841     0.0001
 1084   21.660   3161.38    12.9155     0.0282     0.2223     0.2166    13.0081     0.2182   346.5600    12.6616     0.0003
 1085   21.680   3162.33    12.3023     0.0302     0.2208     0.2168    12.3950     0.2406   346.8800    12.0481     0.0003
 1086   21.700   3163.23    11.8384     0.0343     0.2206     0.2170    11.9306     0.2864   347.2000    11.5834     0.0002
 1087   21.720   3164.22    11.1032     0.0333     0.2206     0.2172    11.1959     0.2937   347.5200    10.8484     0.0003
 1088   21.740   3170.61    10.5061     0.0305     0.2208     0.2174    10.5988     0.2816   347.8400    10.2510     0.0003
 1089   21.760   3182.93     9.8088     0.0234     0.2212     0.2176     9.9016     0.2157   348.1600     9.5534     0.0004
 1090   21.780   3195.25     9.1115     0.0264     0.2213     0.2178     9.2044     0.2524   348.4800     8.8560     0.0004
 1091   21.800   3197.60     8.4311     0.0279     0.2209     0.2180     8.5235     0.3218   348.8000     8.1747     0.0002
 1092   21.820   3198.56     8.3009     0.0301     0.2227     0.2182     8.3946     0.3656   349.1200     8.0455     0.0006
 1093   21.840   3199.52     8.9030     0.0290     0.2224     0.2184     8.9964     0.3389   349.4400     8.6470     0.0005
 1094   21.860   3200.47     9.7146     0.0285     0.2228     0.2186     9.8081     0.3036   349.7600     9.4584     0.0004
 1095   21.880   3201.43    10.3690     0.0272     0.2216     0.2188    10.4620     0.2688   350.0800    10.1119     0.0002
 1096   21.900   3202.41    10.4852     0.0252     0.2202     0.2190    10.5776     0.2405   350.4000    10.2272     0.0001
 1097   21.920   3203.34    10.5180     0.0233     0.2212     0.2192    10.6106     0.2224   350.7200    10.2599     0.0001
 1098   21.940   3204.27    10.7365     0.0242     0.2221     0.2194    10.8295     0.2282   351.0400    10.4784     0.0002
 1099   21.960   3205.20    11.2393     0.0252     0.2217     0.2196    11.3322     0.2288   351.3600    10.9808     0.0001
 1100   21.980   3206.16    11.9056     0.0286     0.2221     0.2198    11.9984     0.2487   351.6800    11.6467     0.0001
 1101   22.000   3207.10    12.4256     0.0303     0.2225     0.2200    12.5191     0.2487   352.0000    12.1671     0.0002
 1102   22.020   3208.05    12.9294     0.0314     0.2220     0.2202    13.0227     0.2468   352.3200    12.6703     0.0002
 1103   22.040   3208.98    13.0392     0.0330     0.2220     0.2204    13.1324     0.2530   352.6400    12.7797     0.0001
 1104   22.060   3209.90    12.8931     0.0376     0.2232     0.2206    12.9871     0.2900   352.9600    12.6342     0.0003
 1105   22.080   3210.87    12.4889     0.0410     0.2234     0.2208    12.5828     0.3237   353.2800    12.2296     0.0002
 1106   22.100   3211.78    11.9509     0.0464     0.2246     0.2210    12.0448     0.3816   353.6000    11.6912     0.0002
 1107   22.120   3212.74    11.2936     0.0419     0.2245     0.2212    11.3875     0.3611   353.9200    11.0336     0.0002
 1108   22.140   3213.69    10.6073     0.0370     0.2247     0.2214    10.7016     0.3437   354.2400    10.3473     0.0003
 1109   22.160   3214.62    10.0525     0.0376     0.2256     0.2216    10.1473     0.3667   354.5600     9.7928     0.0004
 1110   22.180   3215.63     9.5824     0.0434     0.2266     0.2218     9.6774     0.4452   354.8800     9.3226     0.0005
 1111   22.200   3216.55     9.0739     0.0468     0.2240     0.2220     9.1684     0.5059   355.2000     8.8132     0.0003
 1112   22.220   3217.51     8.5445                0.2201     0.2222     8.6378              355.5200     8.2822     0.0000
 1113   22.240   3218.47     7.9004                0.2204     0.2224     7.9928              355.8400     7.6370    -0.0003
 1114   22.260   3219.43     7.4358                0.2210     0.2226     7.5289              356.1600     7.1727    -0.0001
 1115   22.280   3220.39     7.1461                0.2227     0.2228     7.2400              356.4800     6.8835     0.0001
 1116   22.300   3221.36     7.0199                0.2247     0.2230     7.1141              356.8000     6.7573     0.0002
 1117   22.320   3222.68     6.9266                           0.2232     7.0212              357.1200     6.6641     0.0003
 
 
