

 Program UNIPLOT                         version 05.36.02
 _______________
 (c) Fugro Netherlands Marine, Nootdorp, The Netherlands


 ASCII representation of data plotted on a graph.

 This ASCII file presents data interpolated to values per fixed depth interval.
 The data are corrected for the depth-offset differences between the various 
 transducers in the penetrometer.

 The records at the start of penetration may include no values or anomalous
 values where a depth offset implies incomplete penetration of a particular
 sensor into the ground.

 The records at the end of penetration may include no values for data channels
 where the transducer did not reach this depth.

 The reference level for test values is (1) the ground surface for onshore tests and (2) the seafloor for nearshore and offshore tests.

 UNICAS data file          : CPT-2027(S).003                         
 Output using command file : PlotASCII.cmd

 ASCII file created at : date          :05-Jan-2022
                         time          :14:09:44
 Project number                        :20024805                                                                                            
 Date of testing                       :18-Dec-2021                                                                                         
 Location                              :Hong Kong Offshore Wind Farm Project                                                                
 Test name                             :CPT-2027(S)
 Penetrometer                          :F7.5CKE2HAW2/B/2753
 Serial no                             :1701-2753

 Table description:
 Column ID                             :Parameter name
 ___________________________________________________________________________________
 Rec                                   :Record ID, Record ID [-]
 Depth                                 :Depth, Depth [m]
 Time                                  :Time, Time [s]
 Cone                                  :Cone Resistance, Cone Resistance [MPa]
 Friction                              :Sleeve Friction, Sleeve Friction [MPa]
 Pore 2                                :Porewater Pressure, Porewater Pressure at Shoulder [MPa]
 HydroPress                            :Hydrostatic Pressure, Hydrostatic Pressure [MPa]
 qt                                    :Total Cone Resistance, Total Cone Resistance [MPa]
 Fric_ratio                            :Friction Ratio, Friction Ratio [%]
 SigmaVert                             :Vertical stress, Vertical stress [kPa] as specified in ground model
 Qnet                                  :Net Cone Resistance, Net Cone Resistance [MPa], unit weight as specified in ground model
 Bq                                    :Porewater Pressure Ratio, Porewater Pressure Ratio [-], unit weight as specified in ground model


 Data table:
  Rec    Depth      Time       Cone   Friction     Pore 2 HydroPress         qt Fric_ratio  SigmaVert       Qnet         Bq
   No        m         s        MPa        MPa        MPa        MPa        MPa          %        kPa        MPa          -
    1    0.000    378.00     0.0000                           0.0000     0.0000                0.0000     0.0000           
    2    0.020    378.96     0.0012                0.0008     0.0002     0.0014                0.3200     0.0011     0.3450
    3    0.040    379.95     0.0024                0.0015     0.0004     0.0029                0.6400     0.0023     0.3826
    4    0.060    380.91     0.0031                0.0018     0.0006     0.0039                0.9600     0.0029     0.3859
    5    0.080    381.87     0.0056     0.0003     0.0021     0.0008     0.0065     6.5643     1.2800     0.0052     0.2302
    6    0.100    382.81     0.0054     0.0002     0.0027     0.0010     0.0064     4.3556     1.6000     0.0048     0.3067
    7    0.120    383.74     0.0058     0.0002     0.0032     0.0012     0.0071     3.3119     1.9200     0.0052     0.3553
    8    0.140    384.66     0.0060     0.0001     0.0038     0.0014     0.0075     1.7880     2.2400     0.0052     0.4147
    9    0.160    385.60     0.0054     0.0001     0.0041     0.0016     0.0071     1.7418     2.5600     0.0045     0.5261
   10    0.180    386.56     0.0060     0.0006     0.0045     0.0018     0.0078    10.0153     2.8800     0.0050     0.5077
   11    0.200    387.51     0.0062     0.0011     0.0049     0.0020     0.0082    18.2888     3.2000     0.0050     0.5454
   12    0.220    388.47     0.0070     0.0013     0.0055     0.0022     0.0092    17.8474     3.5200     0.0057     0.5486
   13    0.240    389.38     0.0082     0.0013     0.0060     0.0024     0.0106    16.2182     3.8400     0.0068     0.5007
   14    0.260    390.34     0.0098     0.0013     0.0065     0.0026     0.0125    13.8806     4.1600     0.0083     0.4594
   15    0.280    410.41     0.0135     0.0013     0.0064     0.0028     0.0162    12.8510     4.4800     0.0117     0.3700
   16    0.300    434.68     0.0180     0.0012     0.0063     0.0030     0.0207    12.6955     4.8000     0.0159     0.2543
   17    0.320    453.70     0.0218     0.0013     0.0061     0.0032     0.0244     8.1401     5.1200     0.0193     0.1557
   18    0.340    454.63     0.0232     0.0014     0.0066     0.0034     0.0259     6.0974     5.4400     0.0204     0.1442
   19    0.360    455.62     0.0246     0.0014     0.0074     0.0036     0.0276     5.8860     5.7600     0.0219     0.1617
   20    0.380    456.57     0.0258     0.0015     0.0081     0.0038     0.0291     5.8030     6.0800     0.0231     0.1759
   21    0.400    457.53     0.0276     0.0015     0.0087     0.0040     0.0312     5.6157     6.4000     0.0248     0.1829
   22    0.420    458.48     0.0294     0.0019     0.0093     0.0042     0.0332     6.8215     6.7200     0.0265     0.1857
   23    0.440    459.36     0.0293     0.0024     0.0099     0.0044     0.0334     8.0273     7.0400     0.0263     0.2013
   24    0.460    460.34     0.0289     0.0024     0.0105     0.0046     0.0333     8.2415     7.3600     0.0259     0.2216
   25    0.480    461.29     0.0286     0.0023     0.0106     0.0048     0.0330     8.0175     7.6800     0.0253     0.2288
   26    0.500    462.29     0.0287     0.0023     0.0110     0.0050     0.0332     7.9893     8.0000     0.0252     0.2290
   27    0.520    480.71     0.0288     0.0022     0.0120     0.0052     0.0337     7.8291     8.3200     0.0254     0.2544
   28    0.540    503.79     0.0292     0.0022     0.0131     0.0054     0.0345     7.8133     8.6400     0.0259     0.2825
   29    0.560    515.99     0.0289     0.0021     0.0136     0.0056     0.0346     7.0500     8.9600     0.0257     0.3079
   30    0.580    516.90     0.0288     0.0020     0.0142     0.0058     0.0347     6.8448     9.2800     0.0254     0.3210
   31    0.600    517.90     0.0286     0.0020     0.0146     0.0060     0.0346     6.7786     9.6000     0.0250     0.3367
   32    0.620    518.83     0.0280     0.0019     0.0152     0.0062     0.0343     6.5982     9.9200     0.0244     0.3611
   33    0.640    519.75     0.0278     0.0019     0.0161     0.0064     0.0344     6.6326    10.2400     0.0242     0.3860
   34    0.660    520.68     0.0292     0.0017     0.0169     0.0066     0.0362     5.8854    10.5600     0.0256     0.3926
   35    0.680    521.64     0.0313     0.0016     0.0177     0.0068     0.0386     5.2464    10.8800     0.0277     0.3832
   36    0.700    522.60     0.0329     0.0016     0.0185     0.0070     0.0406     5.0479    11.2000     0.0294     0.3802
   37    0.720    523.60     0.0366     0.0017     0.0192     0.0072     0.0446     4.7000    11.5200     0.0331     0.3568
   38    0.740    524.51     0.0395     0.0017     0.0196     0.0074     0.0477     4.4684    11.8400     0.0358     0.3376
   39    0.760    525.55     0.0425     0.0018     0.0203     0.0076     0.0509     4.3999    12.1600     0.0388     0.3236
   40    0.780    526.51     0.0463     0.0020     0.0207     0.0078     0.0550     4.5025    12.4800     0.0425     0.3043
   41    0.800    527.46     0.0494     0.0022     0.0212     0.0080     0.0583     4.5023    12.8000     0.0455     0.2901
   42    0.820    528.38     0.0523     0.0024     0.0221     0.0082     0.0614     4.5979    13.1200     0.0483     0.2798
   43    0.840    529.29     0.0556     0.0024     0.0232     0.0084     0.0652     4.4607    13.4400     0.0517     0.2794
   44    0.860    530.22     0.0589     0.0024     0.0241     0.0086     0.0689     4.1198    13.7600     0.0551     0.2749
   45    0.880    531.17     0.0587     0.0022     0.0250     0.0088     0.0691     3.7893    14.0800     0.0550     0.2895
   46    0.900    532.20     0.0576     0.0020     0.0194     0.0090     0.0672     3.4453    14.4000     0.0528     0.2600
   47    0.920    533.12     0.0572     0.0018     0.0191     0.0092     0.0652     3.1746    14.7200     0.0504     0.1949
   48    0.940    534.11     0.0615     0.0017     0.0197     0.0094     0.0694     2.9760    15.0400     0.0544     0.1742
   49    0.960    535.02     0.0702     0.0020     0.0224     0.0096     0.0792     3.0310    15.3600     0.0639     0.1863
   50    0.980    536.07     0.0798     0.0023     0.0243     0.0098     0.0898     3.0201    15.6800     0.0741     0.1885
   51    1.000    536.98     0.0910     0.0024     0.0260     0.0100     0.1016     2.7961    16.0000     0.0856     0.1770
   52    1.020    537.94     0.1152     0.0021     0.0233     0.0102     0.1267     2.0266    16.3200     0.1103     0.1543
   53    1.040    538.85     0.1357     0.0022     0.0032     0.0104     0.1397     1.6376    16.6400     0.1230    -0.0079
   54    1.060    539.80     0.1252     0.0022     0.0007     0.0106     0.1252     1.6862    16.9600     0.1082    -0.0976
   55    1.080    540.76     0.1070     0.0028     0.0043     0.0108     0.1083     2.5543    17.2800     0.0910    -0.0860
   56    1.100    541.76     0.1071     0.0030     0.0090     0.0110     0.1103     2.8834    17.6000     0.0927    -0.0375
   57    1.120    542.74     0.1214     0.0028     0.0120     0.0112     0.1260     2.4428    17.9200     0.1081    -0.0024
   58    1.140    543.72     0.1297     0.0026     0.0145     0.0114     0.1357     2.0525    18.2400     0.1174     0.0226
   59    1.160    544.64     0.1277     0.0026     0.0063     0.0116     0.1317     2.0018    18.5600     0.1131    -0.0202
   60    1.180    545.63     0.1120     0.0026     0.0066     0.0118     0.1142     2.1689    18.8800     0.0953    -0.0685
   61    1.200    546.58     0.1012     0.0026     0.0111     0.0120     0.1053     2.5128    19.2000     0.0861    -0.0268
   62    1.220    547.50     0.0999     0.0027     0.0147     0.0122     0.1055     2.6982    19.5200     0.0860     0.0140
   63    1.240    548.45     0.1049     0.0026     0.0181     0.0124     0.1120     2.6368    19.8400     0.0922     0.0500
   64    1.260    549.40     0.1196     0.0026     0.0214     0.0126     0.1282     2.3035    20.1600     0.1080     0.0721
   65    1.280    550.35     0.1393     0.0025     0.0193     0.0128     0.1487     1.8205    20.4800     0.1282     0.0736
   66    1.300    551.30     0.1369     0.0026     0.0149     0.0130     0.1428     1.8808    20.8000     0.1220     0.0086
   67    1.320    552.25     0.1339     0.0029     0.0191     0.0132     0.1414     2.1931    21.1200     0.1203     0.0382
   68    1.340    553.19     0.1400     0.0031     0.0210     0.0134     0.1485     2.2254    21.4400     0.1270     0.0534
   69    1.360    554.19     0.1396     0.0030     0.0243     0.0136     0.1495     2.1739    21.7600     0.1277     0.0765
   70    1.380    555.11     0.1397     0.0031     0.0260     0.0138     0.1504     2.1929    22.0800     0.1283     0.0916
   71    1.400    556.05     0.1344     0.0031     0.0280     0.0140     0.1458     2.2747    22.4000     0.1234     0.1063
   72    1.420    557.01     0.1305     0.0031     0.0298     0.0142     0.1431     2.3454    22.7200     0.1204     0.1321
   73    1.440    557.97     0.1315     0.0033     0.0339     0.0144     0.1451     2.4967    23.0400     0.1221     0.1483
   74    1.460    558.92     0.1357     0.0031     0.0370     0.0146     0.1508     2.3063    23.3600     0.1275     0.1681
   75    1.480    559.86     0.1343     0.0030     0.0393     0.0148     0.1505     2.2282    23.6800     0.1268     0.1882
   76    1.500    560.83     0.1295     0.0029     0.0407     0.0150     0.1464     2.1940    24.0000     0.1224     0.2055
   77    1.520    561.79     0.1245     0.0029     0.0430     0.0152     0.1422     2.2974    24.3200     0.1179     0.2273
   78    1.540    562.74     0.1290     0.0032     0.0467     0.0154     0.1482     2.5161    24.6400     0.1235     0.2444
   79    1.560    563.70     0.1508     0.0032     0.0491     0.0156     0.1712     2.3026    24.9600     0.1462     0.2251
   80    1.580    564.66     0.1721     0.0031     0.0511     0.0158     0.1934     1.8664    25.2800     0.1681     0.2071
   81    1.600    565.62     0.1775     0.0030     0.0471     0.0160     0.1983     1.7225    25.6000     0.1727     0.1936
   82    1.620    566.58     0.1809     0.0030     0.0472     0.0162     0.2006     1.6702    25.9200     0.1747     0.1759
   83    1.640    567.52     0.1706     0.0028     0.0432     0.0164     0.1893     1.5685    26.2400     0.1631     0.1726
   84    1.660    568.48     0.1466     0.0026     0.0421     0.0166     0.1641     1.6871    26.5600     0.1376     0.1830
   85    1.680    569.43     0.1329     0.0025     0.0362     0.0168     0.1485     1.8308    26.8800     0.1216     0.1677
   86    1.700    570.38     0.1374     0.0027     0.0381     0.0170     0.1529     2.0225    27.2000     0.1257     0.1575
   87    1.720    571.33     0.1476     0.0026     0.0430     0.0172     0.1649     1.7986    27.5200     0.1374     0.1752
   88    1.740    572.28     0.1596     0.0027     0.0471     0.0174     0.1788     1.7570    27.8400     0.1510     0.1884
   89    1.760    573.21     0.1684     0.0027     0.0496     0.0176     0.1889     1.6104    28.1600     0.1608     0.1943
   90    1.780    574.17     0.1668     0.0028     0.0512     0.0178     0.1881     1.6768    28.4800     0.1596     0.2059
   91    1.800    575.14     0.1595     0.0031     0.0540     0.0180     0.1818     1.9207    28.8000     0.1530     0.2295
   92    1.820    576.04     0.1596     0.0031     0.0516     0.0182     0.1818     1.9194    29.1200     0.1527     0.2266
   93    1.840    576.99     0.1478     0.0029     0.0515     0.0184     0.1696     1.8819    29.4400     0.1402     0.2393
   94    1.860    577.95     0.1364     0.0028     0.0508     0.0186     0.1579     1.9955    29.7600     0.1282     0.2554
   95    1.880    578.94     0.1355     0.0029     0.0514     0.0188     0.1566     2.1295    30.0800     0.1265     0.2485
   96    1.900    579.90     0.1393     0.0027     0.0555     0.0190     0.1620     2.0132    30.4000     0.1316     0.2669
   97    1.920    580.82     0.1513     0.0028     0.0587     0.0192     0.1755     1.8428    30.7200     0.1448     0.2657
   98    1.940    581.77     0.1742     0.0028     0.0606     0.0194     0.1994     1.6725    31.0400     0.1684     0.2414
   99    1.960    582.75     0.1706     0.0027     0.0623     0.0196     0.1965     1.5510    31.3600     0.1652     0.2550
  100    1.980    583.70     0.1579     0.0027     0.0640     0.0198     0.1846     1.7095    31.6800     0.1529     0.2863
  101    2.000    584.69     0.1531     0.0031     0.0662     0.0200     0.1806     2.0142    32.0000     0.1486     0.3056
  102    2.020    594.38     0.1542     0.0036     0.0605     0.0202     0.1804     2.3137    32.3200     0.1481     0.2849
  103    2.040    608.71     0.1550     0.0039     0.0549     0.0204     0.1789     2.5652    32.6400     0.1462     0.2485
  104    2.060    621.61     0.1543     0.0040     0.0526     0.0206     0.1761     2.6029    32.9600     0.1432     0.2194
  105    2.080    622.60     0.1406     0.0039     0.0535     0.0208     0.1630     2.6454    33.2800     0.1297     0.2501
  106    2.100    623.56     0.1393     0.0038     0.0533     0.0210     0.1617     2.7364    33.6000     0.1281     0.2537
  107    2.120    624.51     0.1411     0.0039     0.0529     0.0212     0.1638     2.7972    33.9200     0.1299     0.2538
  108    2.140    625.47     0.1520     0.0037     0.0543     0.0214     0.1743     2.4990    34.2400     0.1400     0.2260
  109    2.160    626.42     0.1651     0.0037     0.0579     0.0216     0.1889     2.3008    34.5600     0.1543     0.2266
  110    2.180    627.33     0.1641     0.0034     0.0617     0.0218     0.1894     2.0521    34.8800     0.1546     0.2499
  111    2.200    628.29     0.1656     0.0036     0.0657     0.0220     0.1926     2.1457    35.2000     0.1574     0.2685
  112    2.220    629.24     0.1698     0.0034     0.0695     0.0222     0.1985     2.0599    35.5200     0.1630     0.2822
  113    2.240    630.22     0.1896     0.0036     0.0716     0.0224     0.2195     1.9789    35.8400     0.1836     0.2651
  114    2.260    631.20     0.2109     0.0041     0.0706     0.0226     0.2409     2.0201    36.1600     0.2047     0.2391
  115    2.280    632.14     0.2453     0.0049     0.0555     0.0228     0.2713     2.1115    36.4800     0.2348     0.1668
  116    2.300    633.10     0.2579     0.0058     0.0400     0.0230     0.2761     2.2421    36.8000     0.2393     0.0852
  117    2.320    634.03     0.2498     0.0065     0.0229     0.0232     0.2644     2.5750    37.1200     0.2272     0.0506
  118    2.340    635.03     0.2252     0.0069     0.0168     0.0234     0.2317     2.9509    37.4400     0.1943    -0.0402
  119    2.360    635.98     0.2112     0.0076     0.0220     0.0236     0.2198     3.5379    37.7600     0.1821    -0.0176
  120    2.380    636.89     0.2043     0.0077     0.0263     0.0238     0.2147     3.6986    38.0800     0.1766     0.0059
  121    2.400    637.85     0.1912     0.0070     0.0296     0.0240     0.2032     3.6169    38.4000     0.1648     0.0278
  122    2.420    638.80     0.1835     0.0065     0.0321     0.0242     0.1967     3.4790    38.7200     0.1580     0.0453
  123    2.440    639.79     0.1704     0.0063     0.0337     0.0244     0.1843     3.6330    39.0400     0.1453     0.0600
  124    2.460    640.79     0.1589     0.0057     0.0363     0.0246     0.1737     3.5066    39.3600     0.1343     0.0794
  125    2.480    641.79     0.1506     0.0053     0.0387     0.0248     0.1666     3.4438    39.6800     0.1269     0.1040
  126    2.500    642.74     0.1502     0.0048     0.0403     0.0250     0.1669     3.2049    40.0000     0.1269     0.1161
  127    2.520    643.69     0.1468     0.0043     0.0425     0.0252     0.1643     2.9079    40.3200     0.1240     0.1329
  128    2.540    644.64     0.1406     0.0039     0.0439     0.0254     0.1589     2.7553    40.6400     0.1182     0.1537
  129    2.560    645.59     0.1349     0.0039     0.0467     0.0256     0.1540     2.8303    40.9600     0.1131     0.1761
  130    2.580    646.54     0.1322     0.0042     0.0495     0.0258     0.1524     3.1705    41.2800     0.1112     0.2023
  131    2.600    647.50     0.1314     0.0044     0.0523     0.0260     0.1529     3.3620    41.6000     0.1113     0.2264
  132    2.620    648.45     0.1407     0.0045     0.0552     0.0262     0.1635     3.3028    41.9200     0.1216     0.2302
  133    2.640    649.45     0.1552     0.0046     0.0577     0.0264     0.1792     3.0966    42.2400     0.1369     0.2237
  134    2.660    650.36     0.1658     0.0044     0.0590     0.0266     0.1904     2.7045    42.5600     0.1478     0.2167
  135    2.680    651.32     0.1642     0.0046     0.0600     0.0268     0.1892     2.7605    42.8800     0.1463     0.2248
  136    2.700    652.25     0.1605     0.0048     0.0612     0.0270     0.1860     3.0286    43.2000     0.1428     0.2360
  137    2.720    653.20     0.1652     0.0049     0.0630     0.0272     0.1913     3.0085    43.5200     0.1478     0.2371
  138    2.740    654.21     0.1678     0.0051     0.0650     0.0274     0.1948     3.0649    43.8400     0.1510     0.2448
  139    2.760    655.14     0.1675     0.0053     0.0648     0.0276     0.1948     3.1503    44.1600     0.1507     0.2484
  140    2.780    656.07     0.1641     0.0050     0.0591     0.0278     0.1907     2.9883    44.4800     0.1462     0.2424
  141    2.800    657.05     0.1562     0.0049     0.0590     0.0280     0.1805     3.1199    44.8000     0.1357     0.2210
  142    2.820    658.01     0.1545     0.0049     0.0608     0.0282     0.1799     3.1668    45.1200     0.1348     0.2398
  143    2.840    658.96     0.1497     0.0046     0.0625     0.0284     0.1756     3.0035    45.4400     0.1302     0.2555
  144    2.860    659.92     0.1410     0.0049     0.0649     0.0286     0.1679     3.3991    45.7600     0.1222     0.2905
  145    2.880    660.88     0.1402     0.0048     0.0666     0.0288     0.1680     3.4807    46.0800     0.1219     0.3064
  146    2.900    661.83     0.1526     0.0051     0.0673     0.0290     0.1807     3.4320    46.4000     0.1343     0.2830
  147    2.920    662.79     0.1664     0.0054     0.0629     0.0292     0.1945     3.3047    46.7200     0.1478     0.2544
  148    2.940    663.72     0.1785     0.0056     0.0502     0.0294     0.1995     3.2161    47.0400     0.1525     0.1360
  149    2.960    664.67     0.1801     0.0055     0.0468     0.0296     0.2010     3.0222    47.3600     0.1537     0.1317
  150    2.980    665.62     0.1716     0.0055     0.0358     0.0298     0.1866     3.1640    47.6800     0.1390     0.0429
  151    3.000    666.61     0.1593     0.0056     0.0405     0.0300     0.1756     3.4061    48.0000     0.1276     0.0698
  152    3.020    667.57     0.1538     0.0057     0.0453     0.0302     0.1721     3.6434    48.3200     0.1238     0.1083
  153    3.040    668.53     0.1467     0.0055     0.0502     0.0304     0.1670     3.6657    48.6400     0.1184     0.1515
  154    3.060    669.44     0.1392     0.0053     0.0538     0.0306     0.1613     3.7283    48.9600     0.1123     0.1964
  155    3.080    670.44     0.1421     0.0057     0.0566     0.0308     0.1656     4.0474    49.2800     0.1163     0.2159
  156    3.100    671.38     0.1453     0.0065     0.0588     0.0310     0.1697     4.5501    49.6000     0.1201     0.2248
  157    3.120    672.35     0.1428     0.0066     0.0616     0.0312     0.1683     4.5264    49.9200     0.1183     0.2482
  158    3.140    673.28     0.1431     0.0065     0.0643     0.0314     0.1697     4.6333    50.2400     0.1195     0.2679
  159    3.160    674.26     0.1525     0.0066     0.0667     0.0316     0.1802     4.3886    50.5600     0.1296     0.2638
  160    3.180    676.91     0.1596     0.0065     0.0689     0.0318     0.1884     4.1093    50.8800     0.1375     0.2666
  161    3.200    687.24     0.1567     0.0061     0.0703     0.0320     0.1861     3.8331    51.2000     0.1349     0.2804
  162    3.220    692.09     0.1760     0.0055     0.0628     0.0322     0.2029     3.2623    51.5200     0.1514     0.2107
  163    3.240    693.08     0.1749     0.0055     0.0675     0.0324     0.2024     3.1619    51.8400     0.1506     0.2204
  164    3.260    694.04     0.1804     0.0055     0.0724     0.0326     0.2101     3.0668    52.1600     0.1579     0.2405
  165    3.280    695.04     0.1994     0.0054     0.0777     0.0328     0.2315     2.8178    52.4800     0.1790     0.2430
  166    3.300    695.99     0.2150     0.0054     0.0789     0.0330     0.2486     2.5638    52.8000     0.1958     0.2401
  167    3.320    696.95     0.2179     0.0056     0.0737     0.0332     0.2488     2.5495    53.1200     0.1956     0.2057
  168    3.340    697.90     0.1959     0.0059     0.0781     0.0334     0.2281     2.8529    53.4400     0.1747     0.2485
  169    3.360    698.82     0.1841     0.0061     0.0811     0.0336     0.2177     3.2797    53.7600     0.1640     0.2833
  170    3.380    699.80     0.1758     0.0064     0.0833     0.0338     0.2105     3.5623    54.0800     0.1564     0.3121
  171    3.400    700.73     0.1668     0.0067     0.0852     0.0340     0.2023     3.9260    54.4000     0.1479     0.3425
  172    3.420    701.68     0.1569     0.0068     0.0861     0.0342     0.1929     4.2098    54.7200     0.1381     0.3719
  173    3.440    702.60     0.1464     0.0067     0.0885     0.0344     0.1834     4.5221    55.0400     0.1283     0.4168
  174    3.460    703.55     0.1405     0.0065     0.0902     0.0346     0.1781     4.5943    55.3600     0.1227     0.4470
  175    3.480    704.50     0.1350     0.0063     0.0917     0.0348     0.1734     4.6448    55.6800     0.1177     0.4811
  176    3.500    705.46     0.1306     0.0062     0.0945     0.0350     0.1698     4.5513    56.0000     0.1138     0.5141
  177    3.520    706.46     0.1306     0.0059     0.0971     0.0352     0.1710     4.5708    56.3200     0.1147     0.5321
  178    3.540    707.46     0.1363     0.0058     0.0995     0.0354     0.1778     4.3255    56.6400     0.1212     0.5226
  179    3.560    708.37     0.1383     0.0056     0.1015     0.0356     0.1807     4.0552    56.9600     0.1237     0.5271
  180    3.580    709.30     0.1321     0.0051     0.1032     0.0358     0.1752     3.7795    57.2800     0.1180     0.5668
  181    3.600    710.26     0.1284     0.0042     0.1053     0.0360     0.1723     3.2487    57.6000     0.1147     0.5972
  182    3.620    711.21     0.1298     0.0039     0.1075     0.0362     0.1745     3.0201    57.9200     0.1166     0.6037
  183    3.640    712.19     0.1319     0.0044     0.1099     0.0364     0.1777     3.3625    58.2400     0.1195     0.6083
  184    3.660    713.15     0.1384     0.0047     0.1109     0.0366     0.1849     3.4434    58.5600     0.1263     0.5867
  185    3.680    714.12     0.1456     0.0043     0.1070     0.0368     0.1918     3.0924    58.8800     0.1330     0.5523
  186    3.700    715.02     0.1539     0.0043     0.0901     0.0370     0.1952     2.8169    59.2000     0.1360     0.4515
  187    3.720    715.97     0.1582     0.0042     0.0807     0.0372     0.1933     2.6341    59.5200     0.1337     0.3462
  188    3.740    716.92     0.1542     0.0040     0.0764     0.0374     0.1855     2.5211    59.8400     0.1257     0.2950
  189    3.760    717.92     0.1306     0.0038     0.0826     0.0376     0.1648     2.8044    60.1600     0.1046     0.4193
  190    3.780    718.84     0.1328     0.0041     0.0850     0.0378     0.1681     3.0885    60.4800     0.1077     0.4308
  191    3.800    719.79     0.1388     0.0047     0.0885     0.0380     0.1755     3.5284    60.8000     0.1147     0.4290
  192    3.820    720.75     0.1351     0.0054     0.0921     0.0382     0.1733     3.9682    61.1200     0.1121     0.4705
  193    3.840    721.71     0.1316     0.0055     0.0946     0.0384     0.1710     4.1366    61.4400     0.1096     0.5063
  194    3.860    722.63     0.1352     0.0056     0.0967     0.0386     0.1754     4.1668    61.7600     0.1137     0.5035
  195    3.880    725.96     0.1395     0.0059     0.0950     0.0388     0.1796     4.2934    62.0800     0.1176     0.4842
  196    3.900    745.02     0.1506     0.0062     0.0932     0.0390     0.1900     4.5145    62.4000     0.1276     0.4359
  197    3.920    764.08     0.1616     0.0063     0.0914     0.0392     0.2003     4.5608    62.7200     0.1376     0.3876
  198    3.940    773.48     0.1724     0.0060     0.0930     0.0394     0.2111     3.5548    63.0400     0.1480     0.3556
  199    3.960    774.44     0.1767     0.0060     0.0952     0.0396     0.2164     3.4297    63.3600     0.1531     0.3599
  200    3.980    775.44     0.1761     0.0066     0.0953     0.0398     0.2169     3.7184    63.6800     0.1533     0.3740
  201    4.000    776.35     0.1690     0.0068     0.0970     0.0400     0.2090     3.9790    64.0000     0.1450     0.3809
  202    4.020    777.35     0.1710     0.0065     0.1016     0.0402     0.2131     3.8118    64.3200     0.1487     0.4038
  203    4.040    778.34     0.1748     0.0062     0.1043     0.0404     0.2183     3.6001    64.6400     0.1536     0.4100
  204    4.060    779.26     0.1769     0.0063     0.1043     0.0406     0.2210     3.5713    64.9600     0.1560     0.4124
  205    4.080    780.22     0.1767     0.0065     0.1051     0.0408     0.2205     3.7806    65.2800     0.1552     0.4095
  206    4.100    781.13     0.1703     0.0068     0.1072     0.0410     0.2150     3.9900    65.6000     0.1494     0.4383
  207    4.120    782.04     0.1694     0.0067     0.1061     0.0412     0.2146     3.9618    65.9200     0.1487     0.4468
  208    4.140    783.04     0.1578     0.0069     0.1006     0.0414     0.2012     4.3780    66.2400     0.1349     0.4587
  209    4.160    784.00     0.1582     0.0068     0.0980     0.0416     0.2004     4.2700    66.5600     0.1339     0.4410
  210    4.180    791.61     0.1623     0.0067     0.0902     0.0418     0.2013     4.2556    66.8800     0.1345     0.3805
  211    4.200    799.26     0.1665     0.0066     0.0824     0.0420     0.2023     4.1944    67.2000     0.1351     0.3197
  212    4.220    805.23     0.1682     0.0067     0.0830     0.0422     0.2022     4.0168    67.5200     0.1347     0.2869
  213    4.240    806.14     0.1666     0.0069     0.0900     0.0424     0.2034     4.1291    67.8400     0.1356     0.3346
  214    4.260    807.08     0.1717     0.0068     0.0955     0.0426     0.2111     3.9797    68.1600     0.1430     0.3577
  215    4.280    808.00     0.1731     0.0067     0.0999     0.0428     0.2146     3.8669    68.4800     0.1461     0.3833
  216    4.300    808.95     0.1728     0.0064     0.1008     0.0430     0.2154     3.6676    68.8000     0.1466     0.3985
  217    4.320    809.95     0.1645     0.0062     0.1024     0.0432     0.2070     3.6868    69.1200     0.1379     0.4205
  218    4.340    810.91     0.1572     0.0060     0.1066     0.0434     0.2013     3.6840    69.4400     0.1319     0.4683
  219    4.360    811.86     0.1522     0.0060     0.1105     0.0436     0.1981     3.9213    69.7600     0.1283     0.5107
  220    4.380    812.78     0.1556     0.0060     0.1139     0.0438     0.2030     3.8663    70.0800     0.1330     0.5200
  221    4.400    813.66     0.1606     0.0059     0.1164     0.0440     0.2091     3.7329    70.4000     0.1387     0.5149
  222    4.420    814.60     0.1639     0.0056     0.1188     0.0442     0.2134     3.4286    70.7200     0.1427     0.5170
  223    4.440    815.56     0.1716     0.0057     0.1202     0.0444     0.2219     3.3988    71.0400     0.1509     0.4996
  224    4.460    816.51     0.1744     0.0059     0.1215     0.0446     0.2254     3.3830    71.3600     0.1540     0.4983
  225    4.480    817.51     0.1717     0.0063     0.1232     0.0448     0.2231     3.6824    71.6800     0.1514     0.5126
  226    4.500    818.43     0.1782     0.0064     0.1247     0.0450     0.2303     3.6758    72.0000     0.1583     0.4993
  227    4.520    819.33     0.1872     0.0069     0.1257     0.0452     0.2399     3.8136    72.3200     0.1676     0.4798
  228    4.540    820.29     0.2000     0.0071     0.1253     0.0454     0.2526     3.5571    72.6400     0.1800     0.4434
  229    4.560    821.27     0.2073     0.0073     0.1233     0.0456     0.2598     3.5740    72.9600     0.1869     0.4256
  230    4.580    822.23     0.2109     0.0073     0.1241     0.0458     0.2625     3.4623    73.2800     0.1892     0.4078
  231    4.600    823.12     0.2148     0.0073     0.1220     0.0460     0.2660     3.4273    73.6000     0.1924     0.3949
  232    4.620    824.07     0.2102     0.0075     0.1234     0.0462     0.2615     3.5074    73.9200     0.1876     0.4056
  233    4.640    825.02     0.2037     0.0075     0.1279     0.0464     0.2571     3.6683    74.2400     0.1828     0.4419
  234    4.660    826.02     0.1999     0.0076     0.1302     0.0466     0.2544     3.7619    74.5600     0.1798     0.4627
  235    4.680    827.02     0.1925     0.0075     0.1271     0.0468     0.2471     3.8162    74.8800     0.1722     0.4832
  236    4.700    827.93     0.1843     0.0072     0.1240     0.0470     0.2363     3.8356    75.2000     0.1611     0.4759
  237    4.720    828.89     0.1805     0.0071     0.1265     0.0472     0.2332     3.9060    75.5200     0.1577     0.4962
  238    4.740    829.83     0.1828     0.0072     0.1289     0.0474     0.2365     3.9623    75.8400     0.1607     0.5018
  239    4.760    830.75     0.1876     0.0072     0.1324     0.0476     0.2427     3.8836    76.1600     0.1665     0.5016
  240    4.780    831.68     0.1914     0.0072     0.1349     0.0478     0.2478     3.8068    76.4800     0.1713     0.5050
  241    4.800    832.62     0.1916     0.0073     0.1273     0.0480     0.2469     3.8192    76.8000     0.1701     0.4917
  242    4.820    833.53     0.1901     0.0073     0.1261     0.0482     0.2430     3.7929    77.1200     0.1658     0.4678
  243    4.840    834.53     0.1834     0.0073     0.1279     0.0484     0.2374     3.8759    77.4400     0.1599     0.5009
  244    4.860    835.49     0.1798     0.0073     0.1285     0.0486     0.2337     4.0657    77.7600     0.1560     0.5111
  245    4.880    836.44     0.1758     0.0070     0.1307     0.0488     0.2304     3.9530    78.0800     0.1523     0.5335
  246    4.900    837.39     0.1734     0.0070     0.1330     0.0490     0.2288     3.9798    78.4000     0.1504     0.5522
  247    4.920    838.28     0.1742     0.0067     0.1351     0.0492     0.2306     3.8664    78.7200     0.1519     0.5609
  248    4.940    839.22     0.1780     0.0065     0.1371     0.0494     0.2354     3.6730    79.0400     0.1564     0.5587
  249    4.960    840.14     0.1761     0.0064     0.1399     0.0496     0.2344     3.6263    79.3600     0.1550     0.5761
  250    4.980    841.09     0.1742     0.0065     0.1395     0.0498     0.2331     3.7129    79.6800     0.1534     0.5890
  251    5.000    842.04     0.1689     0.0063     0.1375     0.0500     0.2266     3.6495    80.0000     0.1466     0.5959
  252    5.020    843.04     0.1639     0.0061     0.1346     0.0502     0.2212     3.7023    80.3200     0.1409     0.6122
  253    5.040    843.99     0.1606     0.0057     0.1279     0.0504     0.2149     3.5273    80.6400     0.1343     0.5883
  254    5.060    844.91     0.1530     0.0055     0.1314     0.0506     0.2073     3.5235    80.9600     0.1264     0.6231
  255    5.080    845.95     0.1566     0.0055     0.1360     0.0508     0.2132     3.4320    81.2800     0.1319     0.6370
  256    5.100    846.90     0.1664     0.0055     0.1386     0.0510     0.2244     3.3405    81.6000     0.1428     0.6104
  257    5.120    847.82     0.1686     0.0056     0.1398     0.0512     0.2270     3.3404    81.9200     0.1451     0.6059
  258    5.140    848.75     0.1688     0.0056     0.1421     0.0514     0.2283     3.3612    82.2400     0.1460     0.6180
  259    5.160    849.70     0.1778     0.0055     0.1433     0.0516     0.2379     3.1243    82.5600     0.1553     0.5885
  260    5.180    853.64     0.1852     0.0056     0.1362     0.0518     0.2434     3.1628    82.8800     0.1605     0.5462
  261    5.200    858.82     0.1967     0.0059     0.1290     0.0520     0.2519     3.3061    83.2000     0.1687     0.4772
  262    5.220    864.01     0.2082     0.0060     0.1258     0.0522     0.2604     3.2497    83.5200     0.1769     0.4083
  263    5.240    865.37     0.2121     0.0061     0.1320     0.0524     0.2668     2.8908    83.8400     0.1829     0.4249
  264    5.260    866.40     0.2235     0.0059     0.1360     0.0526     0.2803     2.6753    84.1600     0.1962     0.4212
  265    5.280    867.38     0.2351     0.0059     0.1284     0.0528     0.2914     2.5377    84.4800     0.2069     0.3924
  266    5.300    868.34     0.2245     0.0062     0.1299     0.0530     0.2778     2.6839    84.8000     0.1930     0.3826
  267    5.320    869.30     0.2231     0.0065     0.1361     0.0532     0.2794     2.9231    85.1200     0.1943     0.4160
  268    5.340    870.24     0.2257     0.0066     0.1399     0.0534     0.2841     2.8992    85.4400     0.1987     0.4315
  269    5.360    871.12     0.2256     0.0065     0.1455     0.0536     0.2857     2.9110    85.7600     0.1999     0.4475
  270    5.380    872.11     0.2371     0.0063     0.1484     0.0538     0.2991     2.6893    86.0800     0.2130     0.4409
  271    5.400    873.10     0.2306     0.0061     0.1443     0.0540     0.2922     2.5895    86.4000     0.2058     0.4504
  272    5.420    874.15     0.2191     0.0052     0.1441     0.0542     0.2790     2.3726    86.7200     0.1923     0.4602
  273    5.440    875.07     0.2109     0.0044     0.1494     0.0544     0.2728     2.0748    87.0400     0.1858     0.5009
  274    5.460    876.02     0.2073     0.0043     0.1548     0.0546     0.2715     2.0621    87.3600     0.1842     0.5344
  275    5.480    876.93     0.2087     0.0039     0.1576     0.0548     0.2746     1.9059    87.6800     0.1869     0.5465
  276    5.500    877.82     0.2074     0.0033     0.1587     0.0550     0.2740     1.5925    88.0000     0.1860     0.5563
  277    5.520    878.72     0.2017     0.0036     0.1531     0.0552     0.2674     1.7920    88.3200     0.1790     0.5654
  278    5.540    879.67     0.1964     0.0044     0.1377     0.0554     0.2564     2.2192    88.6400     0.1678     0.5216
  279    5.560    880.69     0.1967     0.0055     0.1313     0.0556     0.2523     2.8100    88.9600     0.1634     0.4701
  280    5.580    881.63     0.1937     0.0054     0.1273     0.0558     0.2478     2.7876    89.2800     0.1585     0.4606
  281    5.600    882.67     0.2001     0.0052     0.1224     0.0560     0.2534     2.6230    89.6000     0.1638     0.4327
  282    5.620    883.67     0.2090     0.0051     0.1238     0.0562     0.2604     2.4636    89.9200     0.1704     0.3881
  283    5.640    884.63     0.2119     0.0053     0.1261     0.0564     0.2647     2.5504    90.2400     0.1744     0.3972
  284    5.660    885.48     0.2139     0.0056     0.1265     0.0566     0.2669     2.5499    90.5600     0.1763     0.3938
  285    5.680    886.48     0.2190     0.0053     0.1244     0.0568     0.2721     2.5513    90.8800     0.1812     0.3832
  286    5.700    887.43     0.2270     0.0056     0.1182     0.0570     0.2773     2.4342    91.2000     0.1861     0.3368
  287    5.720    888.33     0.1992     0.0060     0.1074     0.0572     0.2467     2.7933    91.5200     0.1552     0.3608
  288    5.740    889.28     0.1641     0.0063     0.0984     0.0574     0.2057     3.5639    91.8400     0.1138     0.3665
  289    5.760    890.26     0.1717     0.0060     0.0996     0.0576     0.2131     3.7979    92.1600     0.1209     0.3425
  290    5.780    891.17     0.2278     0.0058     0.1060     0.0578     0.2711     2.8246    92.4800     0.1787     0.2545
  291    5.800    892.08     0.2379     0.0052     0.1133     0.0580     0.2846     2.1788    92.8000     0.1918     0.2775
  292    5.820    893.03     0.2277     0.0047     0.1183     0.0582     0.2766     2.0459    93.1200     0.1834     0.3177
  293    5.840    893.98     0.1905     0.0055     0.1212     0.0584     0.2414     2.6947    93.4400     0.1479     0.4250
  294    5.860    894.99     0.1672     0.0057     0.1209     0.0586     0.2178     3.0551    93.7600     0.1240     0.4986
  295    5.880    895.94     0.1800     0.0065     0.1254     0.0588     0.2318     3.5522    94.0800     0.1377     0.4693
  296    5.900    896.90     0.1725     0.0065     0.1300     0.0590     0.2266     3.6077    94.4000     0.1322     0.5285
  297    5.920    897.89     0.1626     0.0059     0.1325     0.0592     0.2178     3.6656    94.7200     0.1231     0.5855
  298    5.940    898.85     0.1560     0.0057     0.1369     0.0594     0.2129     3.6408    95.0400     0.1179     0.6452
  299    5.960    903.10     0.1465     0.0057     0.1410     0.0596     0.2063     3.8718    95.3600     0.1109     0.7515
  300    5.980    921.61     0.1690     0.0059     0.1375     0.0598     0.2273     4.1486    95.6800     0.1316     0.6199
  301    6.000    937.61     0.1889     0.0059     0.1371     0.0600     0.2460     3.1538    96.0000     0.1500     0.5074
  302    6.020    938.41     0.1941     0.0060     0.1432     0.0602     0.2532     3.1346    96.3200     0.1569     0.5139
  303    6.040    939.41     0.1942     0.0058     0.1463     0.0604     0.2551     2.9854    96.6400     0.1584     0.5338
  304    6.060    940.29     0.1959     0.0058     0.1520     0.0606     0.2589     3.0076    96.9600     0.1619     0.5515
  305    6.080    941.22     0.2015     0.0068     0.1575     0.0608     0.2669     3.4478    97.2800     0.1696     0.5596
  306    6.100    942.20     0.2032     0.0079     0.1619     0.0610     0.2706     3.9106    97.6000     0.1730     0.5754
  307    6.120    943.18     0.2032     0.0081     0.1656     0.0612     0.2722     4.0221    97.9200     0.1743     0.5921
  308    6.140    944.12     0.2072     0.0075     0.1688     0.0614     0.2777     3.6401    98.2400     0.1794     0.5932
  309    6.160    945.05     0.2095     0.0070     0.1722     0.0616     0.2812     3.3345    98.5600     0.1827     0.5972
  310    6.180    948.25     0.2110     0.0067     0.1695     0.0618     0.2827     3.2227    98.8800     0.1838     0.5935
  311    6.200    953.25     0.2170     0.0066     0.1661     0.0620     0.2873     3.1966    99.2000     0.1881     0.5607
  312    6.220    958.05     0.2226     0.0069     0.1682     0.0622     0.2917     3.2737    99.5200     0.1922     0.5324
  313    6.240    959.00     0.2194     0.0068     0.1690     0.0624     0.2914     3.1064    99.8400     0.1915     0.5694
  314    6.260    959.91     0.2218     0.0068     0.1750     0.0626     0.2945     3.0579   100.1600     0.1943     0.5678
  315    6.280    960.85     0.2240     0.0066     0.1795     0.0628     0.2987     2.9599   100.4800     0.1983     0.5808
  316    6.300    961.78     0.2302     0.0065     0.1832     0.0630     0.3067     2.8563   100.8000     0.2059     0.5786
  317    6.320    962.78     0.2342     0.0065     0.1880     0.0632     0.3122     2.8153   101.1200     0.2111     0.5806
  318    6.340    963.73     0.2353     0.0063     0.1902     0.0634     0.3151     2.6543   101.4400     0.2136     0.5925
  319    6.360    964.69     0.2345     0.0062     0.1913     0.0636     0.3145     2.6516   101.7600     0.2128     0.5971
  320    6.380    965.60     0.2317     0.0058     0.1900     0.0638     0.3120     2.4937   102.0800     0.2099     0.6060
  321    6.400    966.60     0.2336     0.0056     0.1915     0.0640     0.3139     2.3877   102.4000     0.2115     0.6015
  322    6.420    967.55     0.2391     0.0053     0.1929     0.0642     0.3199     2.2301   102.7200     0.2172     0.5900
  323    6.440    968.46     0.2462     0.0053     0.1934     0.0644     0.3275     2.1907   103.0400     0.2245     0.5751
  324    6.460    969.39     0.2498     0.0057     0.1914     0.0646     0.3308     2.3113   103.3600     0.2274     0.5632
  325    6.480    970.22     0.2582     0.0063     0.1812     0.0648     0.3362     2.4887   103.6800     0.2326     0.5207
  326    6.500    971.11     0.2640     0.0066     0.1686     0.0650     0.3365     2.4840   104.0000     0.2325     0.4624
  327    6.520    972.21     0.2583     0.0064     0.1606     0.0652     0.3255     2.4702   104.3200     0.2212     0.4285
  328    6.540    973.13     0.2554     0.0065     0.1634     0.0654     0.3236     2.5133   104.6400     0.2189     0.4425
  329    6.560    974.02     0.2487     0.0070     0.1684     0.0656     0.3186     2.7720   104.9600     0.2136     0.4712
  330    6.580    975.02     0.2474     0.0072     0.1714     0.0658     0.3189     2.9299   105.2800     0.2136     0.4887
  331    6.600    976.07     0.2451     0.0073     0.1749     0.0660     0.3181     2.9707   105.6000     0.2125     0.5076
  332    6.620    977.06     0.2465     0.0074     0.1764     0.0662     0.3206     3.0310   105.9200     0.2146     0.5129
  333    6.640    977.97     0.2565     0.0077     0.1756     0.0664     0.3303     3.0220   106.2400     0.2241     0.4884
  334    6.660    978.88     0.2519     0.0079     0.1763     0.0666     0.3258     3.1206   106.5600     0.2192     0.4986
  335    6.680    979.79     0.2389     0.0079     0.1754     0.0668     0.3128     3.3028   106.8800     0.2059     0.5300
  336    6.700    980.75     0.2374     0.0078     0.1759     0.0670     0.3112     3.2761   107.2000     0.2040     0.5322
  337    6.720    981.70     0.2342     0.0077     0.1795     0.0672     0.3092     3.2595   107.5200     0.2016     0.5516
  338    6.740    982.72     0.2256     0.0074     0.1810     0.0674     0.3017     3.2550   107.8400     0.1938     0.5863
  339    6.760    983.75     0.2159     0.0072     0.1792     0.0676     0.2913     3.2838   108.1600     0.1831     0.6116
  340    6.780    984.72     0.2032     0.0074     0.1831     0.0678     0.2797     3.5057   108.4800     0.1712     0.6683
  341    6.800    985.71     0.1970     0.0076     0.1869     0.0680     0.2750     3.7397   108.8000     0.1662     0.7089
  342    6.820    986.66     0.1997     0.0076     0.1887     0.0682     0.2787     3.8259   109.1200     0.1696     0.7069
  343    6.840    987.62     0.2017     0.0073     0.1879     0.0684     0.2805     3.6056   109.4400     0.1710     0.6961
  344    6.860    988.53     0.2027     0.0070     0.1903     0.0686     0.2823     3.4389   109.7600     0.1726     0.7010
  345    6.880   1002.83     0.2059     0.0069     0.1766     0.0688     0.2824     3.4064   110.0800     0.1723     0.6576
  346    6.900   1029.00     0.2125     0.0068     0.1607     0.0690     0.2823     3.3548   110.4000     0.1719     0.5650
  347    6.920   1055.18     0.2191     0.0065     0.1505     0.0692     0.2822     3.0334   110.7200     0.1715     0.4724
  348    6.940   1057.55     0.2160     0.0064     0.1546     0.0694     0.2805     2.9598   111.0400     0.1695     0.4966
  349    6.960   1058.18     0.2143     0.0062     0.1561     0.0696     0.2798     2.9013   111.3600     0.1684     0.5121
  350    6.980   1058.79     0.2160     0.0064     0.1530     0.0698     0.2808     2.9866   111.6800     0.1691     0.4997
  351    7.000   1059.40     0.2190     0.0064     0.1585     0.0700     0.2848     2.9463   112.0000     0.1728     0.5016
  352    7.020   1060.06     0.2217     0.0064     0.1623     0.0702     0.2895     2.8720   112.3200     0.1772     0.5156
  353    7.040   1060.72     0.2228     0.0063     0.1652     0.0704     0.2917     2.8111   112.6400     0.1791     0.5230
  354    7.060   1061.39     0.2232     0.0060     0.1688     0.0706     0.2935     2.7049   112.9600     0.1805     0.5363
  355    7.080   1062.05     0.2281     0.0063     0.1731     0.0708     0.3002     2.7596   113.2800     0.1869     0.5393
  356    7.100   1062.63     0.2365     0.0076     0.1769     0.0710     0.3103     3.2270   113.6000     0.1967     0.5328
  357    7.120   1063.23     0.2453     0.0092     0.1806     0.0712     0.3206     3.7692   113.9200     0.2067     0.5227
  358    7.140   1063.85     0.2478     0.0091     0.1818     0.0714     0.3241     3.6724   114.2400     0.2098     0.5253
  359    7.160   1064.53     0.2504     0.0089     0.1791     0.0716     0.3262     3.5706   114.5600     0.2116     0.5139
  360    7.180   1065.18     0.2429     0.0089     0.1753     0.0718     0.3170     3.6321   114.8800     0.2022     0.5186
  361    7.200   1067.51     0.2360     0.0086     0.1711     0.0720     0.3094     3.6229   115.2000     0.1942     0.5286
  362    7.220   1104.74     0.2423     0.0082     0.1634     0.0722     0.3113     3.4427   115.5200     0.1958     0.4707
  363    7.240   1113.24     0.2388     0.0079     0.1718     0.0724     0.3098     3.2832   115.8400     0.1939     0.4984
  364    7.260   1114.24     0.2377     0.0083     0.1781     0.0726     0.3117     3.5014   116.1600     0.1955     0.5301
  365    7.280   1115.19     0.2374     0.0082     0.1824     0.0728     0.3134     3.4393   116.4800     0.1969     0.5492
  366    7.300   1116.24     0.2305     0.0079     0.1858     0.0730     0.3081     3.3732   116.8000     0.1913     0.5843
  367    7.320   1117.20     0.2284     0.0076     0.1865     0.0732     0.3067     3.3269   117.1200     0.1896     0.5972
  368    7.340   1118.13     0.2293     0.0076     0.1885     0.0734     0.3080     3.3053   117.4400     0.1906     0.5981
  369    7.360   1119.10     0.2263     0.0076     0.1934     0.0736     0.3069     3.2951   117.7600     0.1892     0.6262
  370    7.380   1120.04     0.2229     0.0075     0.1975     0.0738     0.3053     3.3217   118.0800     0.1873     0.6539
  371    7.400   1120.95     0.2223     0.0071     0.2010     0.0740     0.3063     3.2019   118.4000     0.1879     0.6700
  372    7.420   1121.81     0.2249     0.0069     0.2037     0.0742     0.3101     3.0855   118.7200     0.1914     0.6724
  373    7.440   1122.68     0.2255     0.0068     0.2059     0.0744     0.3117     3.0053   119.0400     0.1926     0.6782
  374    7.460   1123.70     0.2249     0.0066     0.2102     0.0746     0.3127     2.9199   119.3600     0.1934     0.6950
  375    7.480   1124.65     0.2239     0.0064     0.2131     0.0748     0.3131     2.8414   119.6800     0.1934     0.7108
  376    7.500   1125.60     0.2290     0.0062     0.2144     0.0750     0.3188     2.7534   120.0000     0.1988     0.6980
  377    7.520   1126.55     0.2333     0.0058     0.2111     0.0752     0.3219     2.4734   120.3200     0.2015     0.6737
  378    7.540   1127.55     0.2372     0.0054     0.2147     0.0754     0.3269     2.3099   120.6400     0.2063     0.6702
  379    7.560   1128.55     0.2469     0.0054     0.2178     0.0756     0.3379     2.2139   120.9600     0.2170     0.6505
  380    7.580   1129.46     0.2544     0.0049     0.2177     0.0758     0.3461     1.9633   121.2800     0.2248     0.6342
  381    7.600   1130.37     0.2668     0.0052     0.2077     0.0760     0.3555     2.0211   121.6000     0.2339     0.5785
  382    7.620   1131.36     0.2565     0.0053     0.1983     0.0762     0.3411     2.0630   121.9200     0.2191     0.5707
  383    7.640   1132.21     0.2549     0.0056     0.1921     0.0764     0.3365     2.1901   122.2400     0.2142     0.5498
  384    7.660   1133.01     0.2501     0.0056     0.1970     0.0766     0.3315     2.2076   122.5600     0.2089     0.5606
  385    7.680   1134.06     0.2374     0.0062     0.2024     0.0768     0.3217     2.5870   122.8800     0.1988     0.6237
  386    7.700   1135.01     0.2453     0.0066     0.2068     0.0770     0.3315     2.7033   123.2000     0.2083     0.6155
  387    7.720   1135.92     0.2435     0.0070     0.2080     0.0772     0.3311     2.8720   123.5200     0.2076     0.6325
  388    7.740   1136.96     0.2406     0.0074     0.2087     0.0774     0.3285     3.0896   123.8400     0.2046     0.6443
  389    7.760   1137.91     0.2426     0.0077     0.2091     0.0776     0.3302     3.1797   124.1600     0.2060     0.6352
  390    7.780   1138.81     0.2419     0.0078     0.2112     0.0778     0.3305     3.2212   124.4800     0.2060     0.6463
  391    7.800   1139.72     0.2425     0.0080     0.2131     0.0780     0.3315     3.3006   124.8000     0.2067     0.6469
  392    7.820   1140.65     0.2449     0.0088     0.2136     0.0782     0.3342     3.6035   125.1200     0.2091     0.6432
  393    7.840   1141.60     0.2486     0.0093     0.2185     0.0784     0.3394     3.7641   125.4400     0.2140     0.6448
  394    7.860   1142.47     0.2472     0.0091     0.2221     0.0786     0.3400     3.7207   125.7600     0.2143     0.6642
  395    7.880   1143.51     0.2487     0.0089     0.2222     0.0788     0.3419     3.5973   126.0800     0.2158     0.6636
  396    7.900   1144.42     0.2427     0.0086     0.2235     0.0790     0.3364     3.5083   126.4000     0.2100     0.6867
  397    7.920   1164.20     0.2487     0.0085     0.2227     0.0792     0.3423     3.4118   126.7200     0.2156     0.6667
  398    7.940   1190.33     0.2499     0.0081     0.2234     0.0794     0.3432     3.2624   127.0400     0.2162     0.6605
  399    7.960   1193.33     0.2502     0.0079     0.2238     0.0796     0.3445     3.1406   127.3600     0.2171     0.6672
  400    7.980   1194.32     0.2479     0.0078     0.2275     0.0798     0.3428     3.1476   127.6800     0.2151     0.6787
  401    8.000   1195.35     0.2482     0.0078     0.2306     0.0800     0.3444     3.1532   128.0000     0.2164     0.6891
  402    8.020   1196.32     0.2460     0.0074     0.2332     0.0802     0.3437     2.9952   128.3200     0.2154     0.7074
  403    8.040   1197.29     0.2502     0.0070     0.2315     0.0804     0.3480     2.8255   128.6400     0.2194     0.6949
  404    8.060   1198.22     0.2565     0.0073     0.2278     0.0806     0.3522     2.8701   128.9600     0.2233     0.6600
  405    8.080   1199.19     0.2599     0.0080     0.2282     0.0808     0.3557     3.0997   129.2800     0.2265     0.6512
  406    8.100   1200.07     0.2587     0.0092     0.2262     0.0810     0.3538     3.5485   129.6000     0.2242     0.6485
  407    8.120   1201.02     0.2542     0.0100     0.2260     0.0812     0.3492     3.9417   129.9200     0.2193     0.6612
  408    8.140   1202.02     0.2575     0.0104     0.2246     0.0814     0.3516     4.0694   130.2400     0.2213     0.6446
  409    8.160   1203.02     0.2538     0.0096     0.2280     0.0816     0.3487     3.7637   130.5600     0.2182     0.6614
  410    8.180   1204.17     0.2595     0.0092     0.2177     0.0818     0.3565     3.6089   130.8800     0.2256     0.6647
  411    8.200   1210.84     0.3462     0.0088     0.1791     0.0820     0.4270     3.4394   131.2000     0.2958     0.4116
  412    8.220   1215.47     0.3808     0.0090     0.1890     0.0822     0.4561     2.2493   131.5200     0.3246     0.2989
  413    8.240   1216.39     0.2816     0.0091     0.2034     0.0824     0.3657     3.0269   131.8400     0.2338     0.5038
  414    8.260   1217.38     0.2791     0.0092     0.2109     0.0826     0.3668     3.2920   132.1600     0.2347     0.5382
  415    8.280   1218.18     0.2766     0.0086     0.2165     0.0828     0.3666     3.1115   132.4800     0.2342     0.5617
  416    8.300   1219.03     0.2734     0.0068     0.2212     0.0830     0.3656     2.4796   132.8000     0.2328     0.5861
  417    8.320   1220.10     0.2632     0.0058     0.2277     0.0832     0.3578     2.1640   133.1200     0.2247     0.6318
  418    8.340   1221.03     0.2595     0.0059     0.2324     0.0834     0.3563     2.2674   133.4400     0.2228     0.6602
  419    8.360   1221.90     0.2718     0.0062     0.2360     0.0836     0.3705     2.3688   133.7600     0.2367     0.6402
  420    8.380   1222.87     0.2784     0.0059     0.2402     0.0838     0.3788     2.1408   134.0800     0.2447     0.6343
  421    8.400   1223.93     0.2970     0.0055     0.2145     0.0840     0.3956     1.8773   134.4000     0.2612     0.5774
  422    8.420   1224.88     0.3110     0.0057     0.1878     0.0842     0.3899     1.8318   134.7200     0.2552     0.4062
  423    8.440   1225.83     0.2990     0.0062     0.1984     0.0844     0.3809     2.0159   135.0400     0.2458     0.4503
  424    8.460   1226.71     0.2841     0.0067     0.2068     0.0846     0.3697     2.2875   135.3600     0.2343     0.5082
  425    8.480   1227.60     0.2729     0.0069     0.2138     0.0848     0.3619     2.4840   135.6800     0.2262     0.5617
  426    8.500   1228.49     0.2701     0.0066     0.2188     0.0850     0.3615     2.4278   136.0000     0.2255     0.5878
  427    8.520   1229.44     0.2690     0.0063     0.2227     0.0852     0.3620     2.3247   136.3200     0.2256     0.6036
  428    8.540   1230.44     0.2746     0.0062     0.2275     0.0854     0.3694     2.2496   136.6400     0.2328     0.6033
  429    8.560   1231.49     0.2799     0.0061     0.2329     0.0856     0.3769     2.1831   136.9600     0.2400     0.6063
  430    8.580   1232.35     0.2781     0.0061     0.2393     0.0858     0.3776     2.2173   137.2800     0.2403     0.6287
  431    8.600   1233.38     0.2806     0.0058     0.2448     0.0860     0.3828     2.0640   137.6000     0.2452     0.6418
  432    8.620   1234.39     0.2878     0.0056     0.2488     0.0862     0.3920     1.9723   137.9200     0.2540     0.6369
  433    8.640   1235.26     0.2965     0.0051     0.2446     0.0864     0.4001     1.7275   138.2400     0.2619     0.6125
  434    8.660   1236.08     0.2946     0.0053     0.2445     0.0866     0.3972     1.7836   138.5600     0.2586     0.6098
  435    8.680   1236.95     0.2973     0.0052     0.2425     0.0868     0.3991     1.7720   138.8800     0.2602     0.5984
  436    8.700   1237.94     0.3270     0.0053     0.2197     0.0870     0.4268     1.6345   139.2000     0.2876     0.5239
  437    8.720   1238.95     0.3298     0.0054     0.1856     0.0872     0.4079     1.6334   139.5200     0.2684     0.3681
  438    8.740   1239.99     0.3365     0.0063     0.1881     0.0874     0.4146     1.9024   139.8400     0.2748     0.3588
  439    8.760   1240.99     0.3475     0.0068     0.1925     0.0876     0.4285     1.9576   140.1600     0.2883     0.3645
  440    8.780   1242.09     0.3647     0.0058     0.2008     0.0878     0.4480     1.6017   140.4800     0.3075     0.3595
  441    8.800   1243.00     0.3748     0.0042     0.2081     0.0880     0.4613     1.1240   140.8000     0.3205     0.3681
  442    8.820   1243.86     0.3859     0.0046     0.2124     0.0882     0.4747     1.1969   141.1200     0.3335     0.3693
  443    8.840   1244.80     0.3810     0.0023     0.2143     0.0884     0.4706     0.6061   141.4400     0.3292     0.3796
  444    8.860   1245.77     0.3636     0.0045     0.2209     0.0886     0.4553     1.2292   141.7600     0.3136     0.4140
  445    8.880   1246.61     0.3816     0.0067     0.2357     0.0888     0.4776     1.8153   142.0800     0.3356     0.4177
  446    8.900   1247.60     0.6192     0.0064     0.2093     0.0890     0.7182     1.3648   142.4000     0.5758     0.2619
  447    8.920   1248.58     1.0538     0.0061     0.1741     0.0892     1.1292     0.7436   142.7200     0.9865     0.0926
  448    8.940   1249.55     1.5386     0.0060     0.1384     0.0894     1.6041     0.4603   143.0400     1.4611     0.0457
  449    8.960   1250.62     2.2588     0.0064     0.0964     0.0896     2.3058     0.3588   143.3600     2.1625     0.0108
  450    8.980   1251.75     3.9126     0.0056     0.0545     0.0898     3.9419     0.1605   143.6800     3.7982    -0.0050
  451    9.000   1252.69     4.7204     0.0081     0.0297     0.0900     4.7354     0.1796   144.0000     4.5914    -0.0118
  452    9.020   1253.67     4.8910     0.0105     0.0270     0.0902     4.9029     0.2156   144.3200     4.7586    -0.0130
  453    9.040   1254.73     4.7406     0.0125     0.0244     0.0904     4.7506     0.2608   144.6400     4.6060    -0.0145
  454    9.060   1255.70     4.4747     0.0145     0.0229     0.0906     4.4845     0.3173   144.9600     4.3395    -0.0155
  455    9.080   1256.59     4.1667     0.0227     0.0237     0.0908     4.1768     0.5282   145.2800     4.0316    -0.0166
  456    9.100   1257.46     3.7848     0.0198     0.0254     0.0910     3.7949     0.5064   145.6000     3.6493    -0.0183
  457    9.120   1258.41     3.1951     0.0213     0.0247     0.0912     3.2054     0.6389   145.9200     3.0595    -0.0218
  458    9.140   1259.32     2.7122     0.0262     0.0272     0.0914     2.7232     0.9413   146.2400     2.5770    -0.0253
  459    9.160   1260.31     2.2056     0.0288     0.0281     0.0916     2.2171     1.2446   146.5600     2.0705    -0.0311
  460    9.180   1274.31     0.7688     0.0306     0.0919     0.0918     0.8084     3.5300   146.8800     0.6615     0.0036
  461    9.200   1275.83     1.2970     0.0320     0.0834     0.0920     1.3321     2.4805   147.2000     1.1849    -0.0071
  462    9.220   1276.76     1.1544     0.0306     0.0917     0.0922     1.1916     2.7691   147.5200     1.0441    -0.0034
  463    9.240   1277.81     0.9490     0.0291     0.1007     0.0924     0.9901     3.0578   147.8400     0.8422     0.0065
  464    9.260   1278.71     0.7928     0.0278     0.1130     0.0926     0.8380     3.1934   148.1600     0.6899     0.0223
  465    9.280   1279.61     0.6678     0.0259     0.1254     0.0928     0.7189     3.7387   148.4800     0.5704     0.0510
  466    9.300   1280.57     0.5504     0.0234     0.1385     0.0930     0.6063     3.9733   148.8000     0.4575     0.0882
  467    9.320   1283.13     0.4701     0.0196     0.1713     0.0932     0.5371     3.9705   149.1200     0.3880     0.1786
  468    9.340   1286.61     0.4305     0.0152     0.2048     0.0934     0.5116     3.0811   149.4400     0.3622     0.2840
  469    9.360   1289.31     0.3981     0.0131     0.2248     0.0936     0.4907     3.2569   149.7600     0.3409     0.3721
  470    9.380   1290.51     0.3670     0.0094     0.2354     0.0938     0.4644     2.5478   150.0800     0.3144     0.4395
  471    9.400   1291.51     0.3634     0.0087     0.2432     0.0940     0.4646     2.4088   150.4000     0.3142     0.4683
  472    9.420   1292.44     0.4043     0.0090     0.2473     0.0942     0.5083     2.3255   150.7200     0.3576     0.4297
  473    9.440   1293.41     0.4676     0.0096     0.2392     0.0944     0.5699     2.1742   151.0400     0.4189     0.3568
  474    9.460   1294.36     0.5090     0.0097     0.2305     0.0946     0.6068     1.9368   151.3600     0.4554     0.3037
  475    9.480   1295.17     0.5076     0.0098     0.2245     0.0948     0.6027     1.9093   151.6800     0.4511     0.2920
  476    9.500   1296.02     0.4840     0.0092     0.2172     0.0950     0.5764     1.8477   152.0000     0.4244     0.2948
  477    9.520   1296.93     0.4406     0.0089     0.2129     0.0952     0.5303     1.9421   152.3200     0.3780     0.3139
  478    9.540   1297.87     0.3936     0.0089     0.2170     0.0954     0.4833     2.2322   152.6400     0.3307     0.3575
  479    9.560   1298.98     0.3602     0.0089     0.2233     0.0956     0.4526     2.4249   152.9600     0.2997     0.4152
  480    9.580   1299.94     0.3333     0.0089     0.2329     0.0958     0.4298     2.5842   153.2800     0.2765     0.4848
  481    9.600   1300.77     0.3233     0.0092     0.2404     0.0960     0.4233     2.8138   153.6000     0.2697     0.5268
  482    9.620   1301.75     0.3169     0.0094     0.2479     0.0962     0.4199     2.9477   153.9200     0.2660     0.5604
  483    9.640   1302.75     0.3141     0.0096     0.2555     0.0964     0.4201     3.0439   154.2400     0.2659     0.5872
  484    9.660   1303.84     0.3113     0.0097     0.2608     0.0966     0.4203     3.1025   154.5600     0.2658     0.6133
  485    9.680   1304.73     0.3166     0.0098     0.2628     0.0968     0.4267     3.1467   154.8800     0.2718     0.6086
  486    9.700   1305.48     0.3211     0.0098     0.2657     0.0970     0.4323     3.0694   155.2000     0.2771     0.6052
  487    9.720   1306.34     0.3285     0.0099     0.2700     0.0972     0.4413     3.0243   155.5200     0.2858     0.5992
  488    9.740   1307.25     0.3247     0.0101     0.2693     0.0974     0.4383     3.0706   155.8400     0.2825     0.6127
  489    9.760   1308.34     0.3259     0.0102     0.2677     0.0976     0.4383     3.1395   156.1600     0.2821     0.6027
  490    9.780   1309.52     0.3121     0.0104     0.2699     0.0978     0.4251     3.2292   156.4800     0.2687     0.6376
  491    9.800   1310.36     0.3079     0.0101     0.2707     0.0980     0.4217     3.2874   156.8000     0.2649     0.6532
  492    9.820   1311.25     0.3113     0.0102     0.2700     0.0982     0.4246     3.2892   157.1200     0.2675     0.6411
  493    9.840   1312.20     0.3111     0.0103     0.2683     0.0984     0.4245     3.2929   157.4400     0.2670     0.6424
  494    9.860   1313.33     0.3103     0.0104     0.2736     0.0986     0.4243     3.3421   157.7600     0.2665     0.6488
  495    9.880   1314.23     0.3078     0.0104     0.2792     0.0988     0.4243     3.3618   158.0800     0.2662     0.6708
  496    9.900   1315.08     0.3095     0.0102     0.2833     0.0990     0.4281     3.3022   158.4000     0.2697     0.6794
  497    9.920   1330.13     0.3125     0.0094     0.2804     0.0992     0.4308     3.0337   158.7200     0.2721     0.6703
  498    9.940   1355.39     0.3153     0.0098     0.2770     0.0994     0.4321     3.1382   159.0400     0.2731     0.6545
  499    9.960   1368.94     0.3119     0.0089     0.2834     0.0996     0.4299     2.8153   159.3600     0.2705     0.6706
  500    9.980   1369.93     0.3016     0.0097     0.2910     0.0998     0.4229     3.1668   159.6800     0.2632     0.7177
  501   10.000   1370.88     0.2996     0.0099     0.2964     0.1000     0.4233     3.3353   160.0000     0.2633     0.7385
  502   10.020   1371.85     0.3389     0.0098     0.2966     0.1002     0.4639     3.2648   160.3200     0.3036     0.6552
  503   10.040   1372.80     0.3468     0.0098     0.2907     0.1004     0.4696     2.8154   160.6400     0.3090     0.6214
  504   10.060   1373.73     0.3653     0.0100     0.2619     0.1006     0.4826     2.7955   160.9600     0.3217     0.5558
  505   10.080   1374.71     0.3604     0.0108     0.2537     0.1008     0.4632     3.0297   161.2800     0.3019     0.4832
  506   10.100   1375.64     0.3267     0.0124     0.2623     0.1010     0.4354     3.7948   161.6000     0.2738     0.5761
  507   10.120   1376.59     0.3258     0.0128     0.2705     0.1012     0.4381     3.9183   161.9200     0.2761     0.6012
  508   10.140   1377.53     0.3236     0.0126     0.2767     0.1014     0.4391     3.8776   162.2400     0.2768     0.6268
  509   10.160   1378.53     0.3259     0.0119     0.2810     0.1016     0.4430     3.6538   162.5600     0.2805     0.6321
  510   10.180   1379.44     0.3252     0.0117     0.2856     0.1018     0.4451     3.6099   162.8800     0.2822     0.6509
  511   10.200   1389.26     0.3331     0.0116     0.2851     0.1020     0.4527     3.5788   163.2000     0.2895     0.6316
  512   10.220   1393.13     0.3337     0.0113     0.3010     0.1022     0.4581     3.3825   163.5200     0.2946     0.6592
  513   10.240   1393.95     0.3327     0.0110     0.3061     0.1024     0.4608     3.3241   163.8400     0.2969     0.6824
  514   10.260   1394.99     0.3290     0.0109     0.3094     0.1026     0.4587     3.2839   164.1600     0.2945     0.7002
  515   10.280   1396.03     0.3266     0.0110     0.3109     0.1028     0.4569     3.3687   164.4800     0.2925     0.7096
  516   10.300   1396.94     0.3240     0.0109     0.3125     0.1030     0.4552     3.3556   164.8000     0.2904     0.7210
  517   10.320   1397.79     0.3246     0.0111     0.3109     0.1032     0.4555     3.4436   165.1200     0.2903     0.7176
  518   10.340   1398.77     0.3219     0.0112     0.3083     0.1034     0.4520     3.4618   165.4400     0.2866     0.7199
  519   10.360   1399.84     0.3190     0.0112     0.3044     0.1036     0.4471     3.5024   165.7600     0.2814     0.7165
  520   10.380   1400.72     0.3191     0.0112     0.3039     0.1038     0.4467     3.5055   166.0800     0.2806     0.7125
  521   10.400   1401.67     0.3217     0.0114     0.3006     0.1040     0.4488     3.5661   166.4000     0.2824     0.7037
  522   10.420   1402.61     0.3207     0.0113     0.3052     0.1042     0.4483     3.5165   166.7200     0.2816     0.7088
  523   10.440   1403.50     0.3209     0.0110     0.3076     0.1044     0.4497     3.4298   167.0400     0.2827     0.7154
  524   10.460   1404.45     0.3133     0.0106     0.3077     0.1046     0.4428     3.3661   167.3600     0.2754     0.7398
  525   10.480   1405.44     0.3127     0.0104     0.3072     0.1048     0.4415     3.3405   167.6800     0.2738     0.7372
  526   10.500   1406.35     0.3107     0.0103     0.3121     0.1050     0.4410     3.3053   168.0000     0.2730     0.7512
  527   10.520   1407.39     0.3125     0.0103     0.3178     0.1052     0.4453     3.3083   168.3200     0.2769     0.7619
  528   10.540   1408.40     0.3197     0.0104     0.3205     0.1054     0.4541     3.2662   168.6400     0.2854     0.7516
  529   10.560   1409.25     0.3231     0.0103     0.3216     0.1056     0.4580     3.1907   168.9600     0.2891     0.7461
  530   10.580   1410.13     0.3323     0.0104     0.3192     0.1058     0.4671     3.1374   169.2800     0.2978     0.7228
  531   10.600   1411.00     0.3347     0.0105     0.3146     0.1060     0.4668     3.1260   169.6000     0.2972     0.7022
  532   10.620   1412.10     0.3362     0.0105     0.3160     0.1062     0.4686     3.1328   169.9200     0.2987     0.6994
  533   10.640   1413.14     0.3349     0.0108     0.3187     0.1064     0.4685     3.2322   170.2400     0.2982     0.7095
  534   10.660   1414.09     0.3369     0.0110     0.3201     0.1066     0.4711     3.2848   170.5600     0.3006     0.7086
  535   10.680   1415.05     0.3428     0.0110     0.3170     0.1068     0.4774     3.2301   170.8800     0.3065     0.6969
  536   10.700   1416.00     0.3541     0.0113     0.3174     0.1070     0.4868     3.2137   171.2000     0.3156     0.6618
  537   10.720   1417.00     0.3557     0.0115     0.3202     0.1072     0.4898     3.2436   171.5200     0.3183     0.6663
  538   10.740   1418.00     0.3527     0.0117     0.3201     0.1074     0.4873     3.2886   171.8400     0.3154     0.6752
  539   10.760   1418.87     0.3596     0.0117     0.3201     0.1076     0.4940     3.2930   172.1600     0.3219     0.6600
  540   10.780   1419.67     0.3582     0.0117     0.3205     0.1078     0.4928     3.2435   172.4800     0.3203     0.6637
  541   10.800   1420.62     0.3550     0.0117     0.3199     0.1080     0.4899     3.2842   172.8000     0.3171     0.6721
  542   10.820   1421.84     0.3530     0.0114     0.3192     0.1082     0.4870     3.2131   173.1200     0.3139     0.6719
  543   10.840   1422.71     0.3496     0.0114     0.3212     0.1084     0.4842     3.2585   173.4400     0.3107     0.6825
  544   10.860   1423.60     0.3496     0.0115     0.3237     0.1086     0.4853     3.2848   173.7600     0.3115     0.6879
  545   10.880   1424.59     0.3493     0.0113     0.3258     0.1088     0.4860     3.2415   174.0800     0.3119     0.6949
  546   10.900   1425.63     0.3502     0.0112     0.3269     0.1090     0.4876     3.1903   174.4000     0.3132     0.6967
  547   10.920   1426.66     0.3519     0.0112     0.3231     0.1092     0.4877     3.1884   174.7200     0.3130     0.6844
  548   10.940   1427.60     0.3531     0.0114     0.3228     0.1094     0.4885     3.2444   175.0400     0.3135     0.6794
  549   10.960   1428.47     0.3561     0.0115     0.3222     0.1096     0.4913     3.2538   175.3600     0.3159     0.6718
  550   10.980   1429.47     0.3558     0.0116     0.3222     0.1098     0.4915     3.2524   175.6800     0.3158     0.6757
  551   11.000   1430.51     0.3596     0.0114     0.3216     0.1100     0.4944     3.1715   176.0000     0.3184     0.6626
  552   11.020   1431.47     0.3628     0.0115     0.3246     0.1102     0.4986     3.1784   176.3200     0.3223     0.6611
  553   11.040   1432.38     0.3613     0.0116     0.3286     0.1104     0.4987     3.2093   176.6400     0.3221     0.6733
  554   11.060   1433.24     0.3626     0.0117     0.3309     0.1106     0.5014     3.2318   176.9600     0.3244     0.6773
  555   11.080   1434.11     0.3629     0.0121     0.3299     0.1108     0.5017     3.3511   177.2800     0.3244     0.6773
  556   11.100   1435.26     0.3637     0.0135     0.3279     0.1110     0.5015     3.7118   177.6000     0.3239     0.6705
  557   11.120   1436.24     0.3628     0.0141     0.3286     0.1112     0.5007     3.8853   177.9200     0.3228     0.6724
  558   11.140   1437.08     0.3617     0.0133     0.3306     0.1114     0.5003     3.6829   178.2400     0.3221     0.6785
  559   11.160   1438.11     0.3614     0.0128     0.3334     0.1116     0.5011     3.5548   178.5600     0.3225     0.6852
  560   11.180   1439.58     0.3666     0.0125     0.3303     0.1118     0.5064     3.7921   178.8800     0.3275     0.6748
  561   11.200   1444.33     0.3717     0.0122     0.3232     0.1120     0.5085     3.9990   179.2000     0.3293     0.6491
  562   11.220   1449.02     0.3766     0.0119     0.3245     0.1122     0.5106     3.3575   179.5200     0.3311     0.6245
  563   11.240   1450.17     0.3763     0.0120     0.3261     0.1124     0.5137     3.1816   179.8400     0.3338     0.6427
  564   11.260   1451.06     0.3752     0.0119     0.3268     0.1126     0.5125     3.1569   180.1600     0.3324     0.6451
  565   11.280   1451.93     0.3711     0.0118     0.3269     0.1128     0.5085     3.1767   180.4800     0.3280     0.6533
  566   11.300   1452.86     0.3707     0.0119     0.3255     0.1130     0.5077     3.2142   180.8000     0.3269     0.6523
  567   11.320   1454.02     0.3683     0.0116     0.3241     0.1132     0.5044     3.1436   181.1200     0.3232     0.6518
  568   11.340   1455.02     0.3699     0.0113     0.3266     0.1134     0.5067     3.0836   181.4400     0.3253     0.6530
  569   11.360   1455.92     0.3703     0.0110     0.3286     0.1136     0.5079     2.9847   181.7600     0.3261     0.6563
  570   11.380   1456.87     0.3709     0.0111     0.3311     0.1138     0.5096     2.9845   182.0800     0.3275     0.6606
  571   11.400   1457.84     0.3705     0.0105     0.3340     0.1140     0.5103     2.8450   182.4000     0.3279     0.6679
  572   11.420   1458.75     0.3724     0.0101     0.3372     0.1142     0.5135     2.7213   182.7200     0.3308     0.6708
  573   11.440   1459.77     0.3708     0.0101     0.3379     0.1144     0.5128     2.7289   183.0400     0.3298     0.6786
  574   11.460   1460.63     0.3711     0.0099     0.3337     0.1146     0.5120     2.6825   183.3600     0.3287     0.6723
  575   11.480   1461.78     0.3699     0.0097     0.3329     0.1148     0.5095     2.6082   183.6800     0.3259     0.6684
  576   11.500   1462.71     0.3604     0.0096     0.3330     0.1150     0.5005     2.6442   184.0000     0.3165     0.6902
  577   11.520   1463.65     0.3675     0.0096     0.3210     0.1152     0.5029     2.6299   184.3200     0.3186     0.6504
  578   11.540   1464.44     0.3731     0.0099     0.3157     0.1154     0.5056     2.6593   184.6400     0.3209     0.6229
  579   11.560   1465.38     0.3629     0.0103     0.3187     0.1156     0.4977     2.8235   184.9600     0.3127     0.6566
  580   11.580   1466.41     0.3727     0.0102     0.3159     0.1158     0.5061     2.7682   185.2800     0.3208     0.6289
  581   11.600   1467.39     0.3720     0.0106     0.3180     0.1160     0.5042     2.8457   185.6000     0.3186     0.6239
  582   11.620   1468.53     0.3667     0.0108     0.3198     0.1162     0.5007     2.9328   185.9200     0.3148     0.6443
  583   11.640   1469.48     0.3634     0.0111     0.3191     0.1164     0.4963     3.0644   186.2400     0.3101     0.6450
  584   11.660   1470.44     0.3628     0.0114     0.3166     0.1166     0.4968     3.1379   186.5600     0.3102     0.6524
  585   11.680   1471.43     0.3705     0.0115     0.3225     0.1168     0.5045     3.1260   186.8800     0.3177     0.6371
  586   11.700   1472.39     0.3714     0.0117     0.3270     0.1170     0.5080     3.1690   187.2000     0.3208     0.6490
  587   11.720   1473.33     0.3726     0.0118     0.3269     0.1172     0.5105     3.1807   187.5200     0.3230     0.6540
  588   11.740   1474.20     0.3714     0.0125     0.3244     0.1174     0.5077     3.3670   187.8400     0.3199     0.6476
  589   11.760   1475.04     0.3748     0.0128     0.3223     0.1176     0.5114     3.4321   188.1600     0.3232     0.6424
  590   11.780   1476.03     0.3852     0.0130     0.3269     0.1178     0.5224     3.4039   188.4800     0.3339     0.6250
  591   11.800   1477.03     0.3924     0.0133     0.3254     0.1180     0.5274     3.4028   188.8000     0.3386     0.6007
  592   11.820   1478.03     0.3959     0.0145     0.3238     0.1182     0.5317     3.6674   189.1200     0.3426     0.5984
  593   11.840   1479.08     0.3989     0.0158     0.3309     0.1184     0.5372     3.9489   189.4400     0.3477     0.6064
  594   11.860   1480.03     0.3964     0.0160     0.3373     0.1186     0.5373     4.0331   189.7600     0.3476     0.6239
  595   11.880   1480.99     0.3899     0.0154     0.3434     0.1188     0.5335     3.9499   190.0800     0.3434     0.6494
  596   11.900   1481.94     0.3934     0.0146     0.3468     0.1190     0.5387     3.7133   190.4000     0.3483     0.6515
  597   11.920   1493.27     0.3928     0.0143     0.3492     0.1192     0.5392     3.6333   190.7200     0.3484     0.6578
  598   11.940   1513.28     0.3939     0.0140     0.3517     0.1194     0.5412     3.5747   191.0400     0.3502     0.6610
  599   11.960   1523.91     0.3944     0.0138     0.3584     0.1196     0.5441     3.5050   191.3600     0.3527     0.6711
  600   11.980   1524.89     0.3908     0.0137     0.3619     0.1198     0.5425     3.5054   191.6800     0.3508     0.6882
  601   12.000   1526.17     0.3911     0.0134     0.3623     0.1200     0.5432     3.4267   192.0000     0.3512     0.6891
  602   12.020   1527.09     0.3900     0.0133     0.3622     0.1202     0.5407     3.4095   192.3200     0.3484     0.6853
  603   12.040   1527.96     0.3860     0.0132     0.3654     0.1204     0.5395     3.3816   192.6400     0.3469     0.7067
  604   12.060   1528.84     0.3863     0.0129     0.3704     0.1206     0.5408     3.3569   192.9600     0.3479     0.7106
  605   12.080   1529.88     0.3894     0.0136     0.3772     0.1208     0.5470     3.4887   193.2800     0.3537     0.7193
  606   12.100   1530.99     0.3954     0.0144     0.3833     0.1210     0.5554     3.6560   193.6000     0.3618     0.7184
  607   12.120   1531.88     0.3968     0.0144     0.3880     0.1212     0.5593     3.6347   193.9200     0.3654     0.7268
  608   12.140   1532.72     0.4011     0.0141     0.3898     0.1214     0.5646     3.5206   194.2400     0.3704     0.7236
  609   12.160   1533.55     0.4134     0.0136     0.3913     0.1216     0.5774     3.3005   194.5600     0.3828     0.7024
  610   12.180   1534.92     0.4098     0.0133     0.3848     0.1218     0.5746     3.2563   194.8800     0.3797     0.7121
  611   12.200   1537.78     0.4150     0.0130     0.3632     0.1220     0.5707     3.1883   195.2000     0.3755     0.6619
  612   12.220   1539.90     0.4182     0.0130     0.3561     0.1222     0.5673     3.0989   195.5200     0.3717     0.6259
  613   12.240   1540.75     0.4127     0.0131     0.3632     0.1224     0.5643     3.1612   195.8400     0.3684     0.6475
  614   12.260   1541.60     0.4054     0.0126     0.3675     0.1226     0.5592     3.1095   196.1600     0.3630     0.6707
  615   12.280   1542.60     0.3993     0.0123     0.3678     0.1228     0.5543     3.0893   196.4800     0.3578     0.6881
  616   12.300   1543.55     0.4028     0.0120     0.3696     0.1230     0.5574     2.9925   196.8000     0.3606     0.6799
  617   12.320   1544.63     0.3952     0.0120     0.3781     0.1232     0.5527     3.0321   197.1200     0.3556     0.7078
  618   12.340   1545.70     0.3916     0.0117     0.3837     0.1234     0.5522     2.9816   197.4400     0.3547     0.7297
  619   12.360   1546.68     0.3938     0.0113     0.3864     0.1236     0.5557     2.8759   197.7600     0.3579     0.7317
  620   12.380   1547.68     0.3935     0.0111     0.3861     0.1238     0.5560     2.8184   198.0800     0.3579     0.7350
  621   12.400   1548.65     0.3922     0.0111     0.3853     0.1240     0.5540     2.8331   198.4000     0.3556     0.7345
  622   12.420   1549.55     0.3923     0.0113     0.3904     0.1242     0.5555     2.8666   198.7200     0.3568     0.7409
  623   12.440   1550.50     0.3999     0.0114     0.3929     0.1244     0.5646     2.8589   199.0400     0.3656     0.7322
  624   12.460   1551.46     0.4069     0.0115     0.3803     0.1246     0.5712     2.8342   199.3600     0.3718     0.7171
  625   12.480   1552.37     0.4147     0.0112     0.3770     0.1248     0.5720     2.7184   199.6800     0.3724     0.6708
  626   12.500   1553.36     0.4115     0.0113     0.3809     0.1250     0.5711     2.7358   200.0000     0.3711     0.6874
  627   12.520   1554.31     0.4051     0.0115     0.3829     0.1252     0.5657     2.8237   200.3200     0.3654     0.7039
  628   12.540   1555.31     0.4049     0.0116     0.3841     0.1254     0.5657     2.8798   200.6400     0.3651     0.7056
  629   12.560   1556.31     0.4045     0.0116     0.3884     0.1256     0.5672     2.8679   200.9600     0.3663     0.7151
  630   12.580   1557.31     0.4070     0.0115     0.3872     0.1258     0.5700     2.8434   201.2800     0.3687     0.7112
  631   12.600   1558.24     0.4089     0.0116     0.3868     0.1260     0.5712     2.8528   201.6000     0.3696     0.7045
  632   12.620   1559.16     0.4078     0.0117     0.3898     0.1262     0.5710     2.8536   201.9200     0.3691     0.7107
  633   12.640   1560.15     0.4020     0.0118     0.3891     0.1264     0.5658     2.9229   202.2400     0.3636     0.7251
  634   12.660   1561.06     0.4024     0.0116     0.3872     0.1266     0.5654     2.8979   202.5600     0.3628     0.7203
  635   12.680   1562.01     0.4069     0.0112     0.3844     0.1268     0.5685     2.7563   202.8800     0.3656     0.7055
  636   12.700   1562.96     0.4058     0.0112     0.3862     0.1270     0.5679     2.7691   203.2000     0.3647     0.7102
  637   12.720   1563.92     0.4082     0.0108     0.3841     0.1272     0.5694     2.6448   203.5200     0.3658     0.7012
  638   12.740   1564.86     0.4019     0.0105     0.3886     0.1274     0.5648     2.5890   203.8400     0.3610     0.7215
  639   12.760   1565.79     0.4006     0.0102     0.3878     0.1276     0.5636     2.5500   204.1600     0.3595     0.7246
  640   12.780   1566.79     0.4027     0.0100     0.3775     0.1278     0.5631     2.4775   204.4800     0.3587     0.7088
  641   12.800   1567.77     0.3967     0.0098     0.3791     0.1280     0.5549     2.4420   204.8000     0.3501     0.7105
  642   12.820   1568.72     0.3935     0.0097     0.3824     0.1282     0.5539     2.4612   205.1200     0.3488     0.7273
  643   12.840   1569.70     0.3904     0.0095     0.3858     0.1284     0.5519     2.4181   205.4400     0.3465     0.7396
  644   12.860   1570.63     0.3901     0.0089     0.3861     0.1286     0.5522     2.2815   205.7600     0.3465     0.7432
  645   12.880   1571.56     0.4002     0.0085     0.3865     0.1288     0.5626     2.1437   206.0800     0.3565     0.7231
  646   12.900   1572.47     0.4084     0.0082     0.3830     0.1290     0.5690     2.0105   206.4000     0.3626     0.6988
  647   12.920   1573.43     0.4228     0.0086     0.3823     0.1292     0.5829     2.0426   206.7200     0.3762     0.6701
  648   12.940   1574.42     0.4493     0.0091     0.3906     0.1294     0.6120     2.0901   207.0400     0.4049     0.6372
  649   12.960   1575.34     0.4614     0.0093     0.3906     0.1296     0.6264     2.0168   207.3600     0.4190     0.6281
  650   12.980   1576.32     0.4600     0.0095     0.3665     0.1298     0.6187     2.0671   207.6800     0.4110     0.6036
  651   13.000   1577.08     0.4703     0.0085     0.3235     0.1300     0.6129     1.8207   208.0000     0.4049     0.5174
  652   13.020   1577.84     0.4656     0.0067     0.3208     0.1302     0.5983     1.4299   208.3200     0.3900     0.4763
  653   13.040   1578.97     0.4552     0.0058     0.3354     0.1304     0.5935     1.2732   208.6400     0.3849     0.5165
  654   13.060   1579.94     0.4319     0.0077     0.3512     0.1306     0.5775     1.7253   208.9600     0.3685     0.5861
  655   13.080   1580.86     0.4139     0.0209     0.3750     0.1308     0.5667     5.0355   209.2800     0.3574     0.6517
  656   13.100   1581.91     0.5177     0.0205     0.3857     0.1310     0.6808     4.2269   209.6000     0.4712     0.5487
  657   13.120   1582.90     0.6533     0.0185     0.1976     0.1312     0.7603     2.9079   209.9200     0.5504     0.2218
  658   13.140   1583.79     0.6337     0.0191     0.1667     0.1314     0.7033     2.9595   210.2400     0.4931     0.0697
  659   13.160   1584.65     0.5547     0.0201     0.1949     0.1316     0.6324     3.5315   210.5600     0.4219     0.1281
  660   13.180   1589.34     0.4984     0.0195     0.2289     0.1318     0.5896     3.7614   210.8800     0.3787     0.2267
  661   13.200   1594.38     0.4929     0.0165     0.2642     0.1320     0.5991     3.4444   211.2000     0.3879     0.3112
  662   13.220   1595.30     0.4833     0.0131     0.2895     0.1322     0.6016     2.6654   211.5200     0.3901     0.3829
  663   13.240   1596.26     0.4664     0.0123     0.3085     0.1324     0.5935     2.5892   211.8400     0.3816     0.4461
  664   13.260   1597.23     0.4461     0.0125     0.3257     0.1326     0.5808     2.7368   212.1600     0.3686     0.5103
  665   13.280   1598.21     0.4383     0.0125     0.3364     0.1328     0.5783     2.8264   212.4800     0.3658     0.5482
  666   13.300   1599.09     0.4323     0.0122     0.3444     0.1330     0.5756     2.8062   212.8000     0.3628     0.5741
  667   13.320   1600.03     0.4289     0.0117     0.3501     0.1332     0.5749     2.7334   213.1200     0.3618     0.5927
  668   13.340   1600.90     0.4265     0.0118     0.3594     0.1334     0.5761     2.7673   213.4400     0.3627     0.6143
  669   13.360   1601.87     0.4309     0.0124     0.3686     0.1336     0.5845     2.8762   213.7600     0.3708     0.6264
  670   13.380   1602.84     0.4463     0.0119     0.3746     0.1338     0.6028     2.7130   214.0800     0.3887     0.6145
  671   13.400   1603.86     0.4728     0.0112     0.3781     0.1340     0.6315     2.3953   214.4000     0.4171     0.5849
  672   13.420   1604.85     0.4831     0.0110     0.3730     0.1342     0.6414     2.2881   214.7200     0.4267     0.5689
  673   13.440   1605.88     0.4915     0.0113     0.3440     0.1344     0.6435     2.3188   215.0400     0.4285     0.5312
  674   13.460   1606.81     0.4460     0.0114     0.3369     0.1346     0.5844     2.4524   215.3600     0.3690     0.5284
  675   13.480   1607.68     0.4432     0.0115     0.3511     0.1348     0.5890     2.6229   215.6800     0.3733     0.5687
  676   13.500   1608.49     0.4606     0.0115     0.3627     0.1350     0.6110     2.5148   216.0000     0.3950     0.5646
  677   13.520   1609.45     0.4661     0.0114     0.3619     0.1352     0.6216     2.4413   216.3200     0.4053     0.5800
  678   13.540   1610.53     0.4637     0.0115     0.3522     0.1354     0.6096     2.4486   216.6400     0.3929     0.5395
  679   13.560   1611.44     0.4507     0.0119     0.3657     0.1356     0.6025     2.6268   216.9600     0.3855     0.5855
  680   13.580   1612.45     0.4506     0.0125     0.3741     0.1358     0.6065     2.7746   217.2800     0.3892     0.6049
  681   13.600   1613.49     0.4478     0.0121     0.3817     0.1360     0.6071     2.7028   217.6000     0.3895     0.6247
  682   13.620   1614.44     0.4462     0.0117     0.3882     0.1362     0.6084     2.6230   217.9200     0.3905     0.6403
  683   13.640   1615.39     0.4454     0.0102     0.3930     0.1364     0.6099     2.2731   218.2400     0.3917     0.6519
  684   13.660   1616.36     0.4445     0.0089     0.3964     0.1366     0.6105     2.0001   218.5600     0.3919     0.6596
  685   13.680   1617.25     0.4523     0.0102     0.4019     0.1368     0.6202     2.2830   218.8800     0.4014     0.6553
  686   13.700   1618.15     0.5819     0.0110     0.4064     0.1370     0.7523     1.9739   219.2000     0.5331     0.5041
  687   13.720   1619.10     0.5538     0.0109     0.3998     0.1372     0.7232     1.9592   219.5200     0.5036     0.5281
  688   13.740   1620.09     0.5669     0.0111     0.3165     0.1374     0.7193     1.9802   219.8400     0.4995     0.4508
  689   13.760   1621.10     0.5643     0.0112     0.1938     0.1376     0.6676     1.9513   220.1600     0.4474     0.2399
  690   13.780   1622.10     0.5290     0.0114     0.1647     0.1378     0.5927     2.0620   220.4800     0.3723     0.0384
  691   13.800   1623.05     0.4876     0.0115     0.1860     0.1380     0.5632     2.3042   220.8000     0.3424     0.1225
  692   13.820   1624.00     0.4833     0.0116     0.2022     0.1382     0.5662     2.4022   221.1200     0.3451     0.1711
  693   13.840   1624.95     0.4747     0.0101     0.2171     0.1384     0.5638     2.1167   221.4400     0.3424     0.2154
  694   13.860   1625.87     0.4771     0.0107     0.2312     0.1386     0.5721     2.2513   221.7600     0.3503     0.2500
  695   13.880   1626.82     0.4801     0.0122     0.2447     0.1388     0.5810     2.5506   222.0800     0.3590     0.2830
  696   13.900   1627.75     0.4777     0.0131     0.2562     0.1390     0.5836     2.7355   222.4000     0.3612     0.3132
  697   13.920   1628.73     0.4764     0.0127     0.2680     0.1392     0.5874     2.6640   222.7200     0.3646     0.3430
  698   13.940   1629.66     0.4753     0.0123     0.2792     0.1394     0.5909     2.5792   223.0400     0.3678     0.3687
  699   13.960   1633.72     0.4744     0.0123     0.3129     0.1396     0.5976     2.6029   223.3600     0.3742     0.4082
  700   13.980   1654.47     0.4874     0.0130     0.3693     0.1398     0.6343     2.7475   223.6800     0.4107     0.5028
  701   14.000   1673.10     0.4996     0.0126     0.4049     0.1400     0.6681     2.5249   224.0000     0.4441     0.5884
  702   14.020   1674.05     0.5020     0.0122     0.4064     0.1402     0.6731     2.4308   224.3200     0.4488     0.5956
  703   14.040   1674.96     0.5134     0.0120     0.3987     0.1404     0.6820     2.3682   224.6400     0.4573     0.5704
  704   14.060   1675.83     0.5038     0.0120     0.3850     0.1406     0.6675     2.3595   224.9600     0.4425     0.5631
  705   14.080   1676.74     0.4702     0.0126     0.3868     0.1408     0.6314     2.5975   225.2800     0.4061     0.5990
  706   14.100   1677.69     0.4477     0.0139     0.3944     0.1410     0.6127     3.0127   225.6000     0.3871     0.6506
  707   14.120   1678.70     0.4409     0.0140     0.4030     0.1412     0.6085     3.1365   225.9200     0.3826     0.6745
  708   14.140   1679.76     0.4284     0.0133     0.4099     0.1414     0.5996     3.0904   226.2400     0.3734     0.7130
  709   14.160   1680.66     0.4211     0.0130     0.4156     0.1416     0.5948     3.0647   226.5600     0.3682     0.7384
  710   14.180   1681.89     0.4176     0.0127     0.4042     0.1418     0.5920     3.0418   226.8800     0.3651     0.7487
  711   14.200   1685.31     0.4310     0.0123     0.3726     0.1420     0.5921     2.9468   227.2000     0.3649     0.6618
  712   14.220   1688.57     0.4434     0.0117     0.3641     0.1422     0.5927     2.7327   227.5200     0.3652     0.5840
  713   14.240   1689.56     0.4445     0.0115     0.3811     0.1424     0.6026     2.6037   227.8400     0.3748     0.6241
  714   14.260   1690.52     0.4615     0.0115     0.3938     0.1426     0.6253     2.5397   228.1600     0.3971     0.6227
  715   14.280   1691.51     0.4683     0.0119     0.4027     0.1428     0.6366     2.5330   228.4800     0.4081     0.6319
  716   14.300   1692.38     0.4754     0.0119     0.4070     0.1430     0.6458     2.5206   228.8000     0.4170     0.6302
  717   14.320   1693.37     0.4715     0.0124     0.4086     0.1432     0.6432     2.6073   229.1200     0.4140     0.6415
  718   14.340   1694.29     0.4722     0.0129     0.4104     0.1434     0.6440     2.7430   229.4400     0.4145     0.6408
  719   14.360   1695.25     0.4755     0.0130     0.4155     0.1436     0.6493     2.7466   229.7600     0.4195     0.6441
  720   14.380   1696.20     0.4758     0.0127     0.4204     0.1438     0.6515     2.6528   230.0800     0.4214     0.6515
  721   14.400   1697.16     0.4824     0.0126     0.4190     0.1440     0.6591     2.6299   230.4000     0.4287     0.6451
  722   14.420   1698.11     0.4828     0.0125     0.4170     0.1442     0.6588     2.5840   230.7200     0.4280     0.6416
  723   14.440   1699.07     0.4777     0.0124     0.4277     0.1444     0.6557     2.5726   231.0400     0.4247     0.6578
  724   14.460   1700.02     0.4787     0.0126     0.4346     0.1446     0.6602     2.6390   231.3600     0.4289     0.6708
  725   14.480   1700.98     0.4787     0.0123     0.4361     0.1448     0.6618     2.5844   231.6800     0.4301     0.6768
  726   14.500   1701.93     0.4805     0.0122     0.4374     0.1450     0.6638     2.5552   232.0000     0.4318     0.6749
  727   14.520   1702.84     0.4811     0.0116     0.4409     0.1452     0.6658     2.4277   232.3200     0.4335     0.6796
  728   14.540   1703.83     0.4849     0.0117     0.4408     0.1454     0.6702     2.4055   232.6400     0.4376     0.6760
  729   14.560   1704.80     0.4829     0.0121     0.4406     0.1456     0.6679     2.4927   232.9600     0.4350     0.6779
  730   14.580   1705.73     0.4899     0.0121     0.4436     0.1458     0.6757     2.4988   233.2800     0.4424     0.6706
  731   14.600   1706.73     0.4992     0.0123     0.4492     0.1460     0.6871     2.4613   233.6000     0.4535     0.6643
  732   14.620   1707.68     0.5109     0.0126     0.4265     0.1462     0.6946     2.4789   233.9200     0.4607     0.6320
  733   14.640   1708.63     0.4957     0.0129     0.3615     0.1464     0.6512     2.5625   234.2400     0.4169     0.5367
  734   14.660   1709.58     0.4870     0.0133     0.3741     0.1466     0.6411     2.7047   234.5600     0.4066     0.5423
  735   14.680   1710.53     0.4773     0.0140     0.3867     0.1468     0.6382     2.9225   234.8800     0.4033     0.5860
  736   14.700   1711.44     0.4781     0.0128     0.3952     0.1470     0.6431     2.6823   235.2000     0.4079     0.6023
  737   14.720   1712.40     0.4796     0.0122     0.4027     0.1472     0.6474     2.5518   235.5200     0.4119     0.6128
  738   14.740   1713.39     0.4715     0.0124     0.4116     0.1474     0.6432     2.6020   235.8400     0.4073     0.6419
  739   14.760   1714.34     0.4675     0.0125     0.4190     0.1476     0.6425     2.6708   236.1600     0.4063     0.6618
  740   14.780   1715.29     0.4694     0.0113     0.4246     0.1478     0.6471     2.4067   236.4800     0.4106     0.6703
  741   14.800   1716.22     0.4666     0.0102     0.4288     0.1480     0.6460     2.1828   236.8000     0.4092     0.6822
  742   14.820   1717.17     0.4670     0.0082     0.4321     0.1482     0.6480     1.7497   237.1200     0.4109     0.6881
  743   14.840   1718.14     0.4733     0.0079     0.4360     0.1484     0.6558     1.6814   237.4400     0.4184     0.6841
  744   14.860   1719.09     0.4755     0.0093     0.4422     0.1486     0.6605     1.9617   237.7600     0.4228     0.6903
  745   14.880   1720.04     0.5206     0.0161     0.4467     0.1488     0.7075     3.3006   238.0800     0.4695     0.6359
  746   14.900   1720.99     0.7663     0.0201     0.4394     0.1490     0.9529     2.8841   238.4000     0.7145     0.4134
  747   14.920   1721.99     0.9705     0.0212     0.3439     0.1492     1.1426     2.4026   238.7200     0.9039     0.2886
  748   14.940   1722.94     0.9424     0.0208     0.2500     0.1494     1.0513     2.0845   239.0400     0.8122     0.1345
  749   14.960   1723.90     0.8389     0.0206     0.2603     0.1496     0.9437     2.3905   239.3600     0.7043     0.1418
  750   14.980   1725.75     0.5586     0.0203     0.2392     0.1498     0.6625     3.2428   239.6800     0.4228     0.2302
  751   15.000   1726.75     0.6150     0.0207     0.2544     0.1500     0.7181     3.4434   240.0000     0.4781     0.2003
  752   15.020   1727.72     0.5686     0.0166     0.2699     0.1502     0.6803     2.8664   240.3200     0.4400     0.2631
  753   15.040   1728.73     0.5321     0.0111     0.2913     0.1504     0.6520     2.0406   240.6400     0.4114     0.3285
  754   15.060   1729.65     0.5219     0.0094     0.3079     0.1506     0.6488     1.7869   240.9600     0.4079     0.3718
  755   15.080   1730.54     0.5052     0.0098     0.3211     0.1508     0.6383     1.9059   241.2800     0.3970     0.4184
  756   15.100   1731.45     0.5004     0.0104     0.3338     0.1510     0.6388     2.0615   241.6000     0.3972     0.4494
  757   15.120   1732.45     0.4895     0.0108     0.3471     0.1512     0.6334     2.1919   241.9200     0.3915     0.4892
  758   15.140   1733.46     0.4939     0.0098     0.3558     0.1514     0.6422     1.9987   242.2400     0.3999     0.5042
  759   15.160   1734.45     0.4983     0.0086     0.3659     0.1516     0.6505     1.7462   242.5600     0.4079     0.5164
  760   15.180   1737.09     0.5102     0.0077     0.3482     0.1518     0.6619     1.5378   242.8800     0.4190     0.5016
  761   15.200   1742.35     0.5410     0.0097     0.3106     0.1520     0.6769     1.9445   243.2000     0.4337     0.3987
  762   15.220   1746.25     0.5562     0.0144     0.3157     0.1522     0.6847     2.5667   243.5200     0.4411     0.3482
  763   15.240   1747.32     0.7140     0.0171     0.3474     0.1524     0.8564     2.7373   243.8400     0.6126     0.3063
  764   15.260   1748.20     0.9006     0.0158     0.3528     0.1526     1.0490     1.9206   244.1600     0.8048     0.2508
  765   15.280   1749.18     1.0938     0.0148     0.2809     0.1528     1.2277     1.4213   244.4800     0.9832     0.1682
  766   15.300   1750.35     0.8553     0.0117     0.2631     0.1530     0.9644     1.2661   244.8000     0.7196     0.1486
  767   15.320   1751.30     0.6992     0.0104     0.2718     0.1532     0.8121     1.3251   245.1200     0.5669     0.2051
  768   15.340   1752.08     0.5740     0.0113     0.2966     0.1534     0.6946     1.7892   245.4400     0.4491     0.2989
  769   15.360   1753.05     0.5254     0.0114     0.3325     0.1536     0.6613     2.1646   245.7600     0.4155     0.4090
  770   15.380   1753.92     0.6073     0.0127     0.3562     0.1538     0.7541     2.2162   246.0800     0.5081     0.3860
  771   15.400   1754.90     0.8705     0.0120     0.3207     0.1540     1.0213     1.5088   246.4000     0.7749     0.2668
  772   15.420   1756.01     1.2462     0.0105     0.2321     0.1542     1.3523     0.8895   246.7200     1.1056     0.0891
  773   15.440   1756.80     1.3060     0.0131     0.1896     0.1544     1.3908     0.9940   247.0400     1.1438     0.0414
  774   15.460   1757.80     1.1664     0.0122     0.1802     0.1546     1.2428     1.0085   247.3600     0.9954     0.0274
  775   15.480   1758.81     0.9485     0.0149     0.1880     0.1548     1.0248     1.5693   247.6800     0.7771     0.0350
  776   15.500   1759.82     0.8062     0.0186     0.2204     0.1550     0.8948     2.2761   248.0000     0.6468     0.0870
  777   15.520   1760.80     0.9158     0.0196     0.2434     0.1552     1.0144     2.2576   248.3200     0.7661     0.1040
  778   15.540   1761.86     1.0642     0.0179     0.2388     0.1554     1.1671     1.6899   248.6400     0.9184     0.0976
  779   15.560   1762.92     0.9845     0.0151     0.2203     0.1556     1.0784     1.4724   248.9600     0.8294     0.0819
  780   15.580   1763.91     0.7999     0.0164     0.2252     0.1558     0.8925     1.8929   249.2800     0.6432     0.1010
  781   15.600   1764.82     0.6738     0.0170     0.2451     0.1560     0.7735     2.4008   249.6000     0.5239     0.1564
  782   15.620   1765.75     0.6182     0.0176     0.2654     0.1562     0.7269     2.8250   249.9200     0.4770     0.2154
  783   15.640   1766.70     0.6070     0.0114     0.2767     0.1564     0.7222     1.8576   250.2400     0.4719     0.2496
  784   15.660   1767.66     0.5615     0.0064     0.2968     0.1566     0.6832     1.1041   250.5600     0.4326     0.3080
  785   15.680   1768.68     0.5890     0.0057     0.3142     0.1568     0.7184     1.0096   250.8800     0.4675     0.3240
  786   15.700   1769.66     0.6676     0.0061     0.3256     0.1570     0.8026     0.9776   251.2000     0.5514     0.2997
  787   15.720   1770.65     0.9897     0.0058     0.3437     0.1572     1.1322     0.7291   251.5200     0.8807     0.2112
  788   15.740   1771.48     1.6508     0.0088     0.2376     0.1574     1.7756     0.6476   251.8400     1.5238     0.0926
  789   15.760   1772.48     2.3884     0.0115     0.1630     0.1576     2.4646     0.5248   252.1600     2.2125     0.0109
  790   15.780   1773.41     2.4519     0.0164     0.1312     0.1578     2.5097     0.6630   252.4800     2.2572    -0.0089
  791   15.800   1774.33     2.2418     0.0184     0.1211     0.1580     2.2939     0.8146   252.8000     2.0411    -0.0167
  792   15.820   1775.35     1.8541     0.0170     0.1133     0.1582     1.9028     0.8630   253.1200     1.6497    -0.0258
  793   15.840   1776.30     1.5144     0.0162     0.1078     0.1584     1.5598     0.9905   253.4400     1.3063    -0.0387
  794   15.860   1777.26     1.4559     0.0123     0.1272     0.1586     1.5055     0.8555   253.7600     1.2518    -0.0323
  795   15.880   1778.21     1.6246     0.0121     0.1505     0.1588     1.6851     0.7846   254.0800     1.4310    -0.0105
  796   15.900   1782.83     2.0162     0.0134     0.1433     0.1590     2.0793     0.7225   254.4000     1.8249    -0.0042
  797   15.920   1803.51     2.4376     0.0148     0.1231     0.1592     2.4922     0.7638   254.7200     2.2375    -0.0114
  798   15.940   1824.20     2.8589     0.0145     0.1055     0.1594     2.9050     0.6904   255.0400     2.6500    -0.0185
  799   15.960   1826.59     2.7972     0.0131     0.0902     0.1596     2.8376     0.4604   255.3600     2.5822    -0.0246
  800   15.980   1827.49     2.7017     0.0264     0.0845     0.1598     2.7374     0.9753   255.6800     2.4818    -0.0301
  801   16.000   1828.49     3.0716     0.0219     0.0853     0.1600     3.1069     0.7332   256.0000     2.8509    -0.0267
  802   16.020   1829.36     3.2256     0.0252     0.0888     0.1602     3.2622     0.7842   256.3200     3.0059    -0.0243
  803   16.040   1830.24     3.4807     0.0309     0.0902     0.1604     3.5191     0.8911   256.6400     3.2625    -0.0211
  804   16.060   1831.24     3.8263     0.0411     0.0724     0.1606     3.8596     1.1287   256.9600     3.6027    -0.0225
  805   16.080   1833.16     2.8768     0.0404     0.0717     0.1608     2.9070     1.3663   257.2800     2.6498    -0.0347
  806   16.100   1834.99     2.4443     0.0396     0.0702     0.1610     2.4747     1.6039   257.6000     2.2171    -0.0400
  807   16.120   1835.87     1.7849     0.0379     0.0631     0.1612     1.8125     1.8014   257.9200     1.5546    -0.0619
  808   16.140   1836.81     1.3785     0.0362     0.0638     0.1614     1.4043     2.3446   258.2400     1.1460    -0.0877
  809   16.160   1837.75     1.1795     0.0349     0.0928     0.1616     1.2134     2.7182   258.5600     0.9548    -0.0846
  810   16.180   1840.55     1.0393     0.0384     0.1485     0.1618     1.0936     3.4491   258.8800     0.8347    -0.0323
  811   16.200   1843.97     0.9411     0.0316     0.2041     0.1620     1.0187     2.8371   259.2000     0.7595     0.0354
  812   16.220   1846.05     1.0465     0.0190     0.2232     0.1622     1.1383     2.0064   259.5200     0.8787     0.0641
  813   16.240   1847.00     1.0210     0.0124     0.2102     0.1624     1.1108     1.1872   259.8400     0.8510     0.0605
  814   16.260   1847.87     0.9319     0.0095     0.2221     0.1626     1.0219     0.9932   260.1600     0.7617     0.0680
  815   16.280   1848.80     0.9393     0.0102     0.2445     0.1628     1.0385     1.1495   260.4800     0.7780     0.0943
  816   16.300   1849.76     2.3512     0.0140     0.2695     0.1630     2.4627     0.8268   260.8000     2.2019     0.0504
  817   16.320   1850.79     4.5049     0.0220     0.1545     0.1632     4.5927     0.5412   261.1200     4.3316     0.0113
  818   16.340   1851.78     3.9680     0.0338     0.1188     0.1634     4.0205     0.7507   261.4400     3.7591    -0.0105
  819   16.360   1852.71     2.8319     0.0396     0.1025     0.1636     2.8778     1.3547   261.7600     2.6161    -0.0212
  820   16.380   1853.69     1.9638     0.0407     0.0979     0.1638     2.0058     1.9909   262.0800     1.7437    -0.0369
  821   16.400   1854.65     1.5409     0.0394     0.0988     0.1640     1.5816     2.4964   262.4000     1.3192    -0.0509
  822   16.420   1855.60     1.2530     0.0376     0.1238     0.1642     1.3009     2.9628   262.7200     1.0382    -0.0480
  823   16.440   1856.47     0.9438     0.0356     0.1307     0.1644     0.9980     3.1658   263.0400     0.7349    -0.0483
  824   16.460   1857.30     0.7249     0.0335     0.1480     0.1646     0.7839     4.2346   263.3600     0.5205    -0.0456
  825   16.480   1858.19     0.6460     0.0245     0.1741     0.1648     0.7157     3.7593   263.6800     0.4521     0.0028
  826   16.500   1859.02     0.6499     0.0133     0.1961     0.1650     0.7280     2.0527   264.0000     0.4640     0.0453
  827   16.520   1860.08     0.6451     0.0091     0.2224     0.1652     0.7341     1.4114   264.3200     0.4697     0.0995
  828   16.540   1861.11     0.6133     0.0092     0.2422     0.1654     0.7119     1.4586   264.6400     0.4473     0.1555
  829   16.560   1862.14     0.5677     0.0096     0.2637     0.1656     0.6764     1.6337   264.9600     0.4115     0.2266
  830   16.580   1863.11     0.5466     0.0087     0.2817     0.1658     0.6627     1.5681   265.2800     0.3974     0.2782
  831   16.600   1864.02     0.5390     0.0074     0.2964     0.1660     0.6614     1.3575   265.6000     0.3958     0.3170
  832   16.620   1864.85     0.5360     0.0063     0.3098     0.1662     0.6640     1.1761   265.9200     0.3981     0.3484
  833   16.640   1865.82     0.5493     0.0087     0.3258     0.1664     0.6839     1.5889   266.2400     0.4177     0.3688
  834   16.660   1866.75     0.6166     0.0156     0.3439     0.1666     0.7581     2.6978   266.5600     0.4915     0.3475
  835   16.680   1867.78     0.8434     0.0155     0.3522     0.1668     0.9913     2.0172   266.8800     0.7244     0.2574
  836   16.700   1868.71     1.0213     0.0150     0.2888     0.1670     1.1578     1.5698   267.2000     0.8906     0.1770
  837   16.720   1869.63     0.9094     0.0148     0.2387     0.1672     1.0104     1.5247   267.5200     0.7429     0.0988
  838   16.740   1870.48     0.7831     0.0149     0.2506     0.1674     0.8874     1.8155   267.8400     0.6195     0.1308
  839   16.760   1871.37     0.6277     0.0158     0.2729     0.1676     0.7369     2.3361   268.1600     0.4687     0.1992
  840   16.780   1872.58     0.5466     0.0159     0.2968     0.1678     0.6688     2.8451   268.4800     0.4003     0.3074
  841   16.800   1873.45     0.5460     0.0116     0.3080     0.1680     0.6741     2.1400   268.8000     0.4053     0.3380
  842   16.820   1874.47     0.5532     0.0110     0.3247     0.1682     0.6882     1.9574   269.1200     0.4191     0.3657
  843   16.840   1875.33     0.5436     0.0109     0.3356     0.1684     0.6829     1.9933   269.4400     0.4134     0.3947
  844   16.860   1876.24     0.5391     0.0108     0.3459     0.1686     0.6829     1.9920   269.7600     0.4131     0.4206
  845   16.880   1877.24     0.5379     0.0108     0.3562     0.1688     0.6861     2.0073   270.0800     0.4160     0.4425
  846   16.900   1878.17     0.5365     0.0112     0.3658     0.1690     0.6888     2.0920   270.4000     0.4184     0.4624
  847   16.920   1879.20     0.5403     0.0115     0.3752     0.1692     0.6968     2.1271   270.7200     0.4260     0.4773
  848   16.940   1880.18     0.5402     0.0117     0.3834     0.1694     0.7004     2.1703   271.0400     0.4293     0.4936
  849   16.960   1881.19     0.5454     0.0121     0.3869     0.1696     0.7076     2.2323   271.3600     0.4363     0.4968
  850   16.980   1882.17     0.5408     0.0125     0.3917     0.1698     0.7050     2.2973   271.6800     0.4333     0.5100
  851   17.000   1883.04     0.5338     0.0119     0.3997     0.1700     0.7003     2.2123   272.0000     0.4283     0.5284
  852   17.020   1884.04     0.5265     0.0121     0.4064     0.1702     0.6964     2.2836   272.3200     0.4240     0.5523
  853   17.040   1885.00     0.5203     0.0107     0.4133     0.1704     0.6932     2.0559   272.6400     0.4205     0.5736
  854   17.060   1885.85     0.5236     0.0117     0.4197     0.1706     0.6989     2.2512   272.9600     0.4259     0.5790
  855   17.080   1886.89     0.5282     0.0164     0.4292     0.1708     0.7071     3.0550   273.2800     0.4338     0.5881
  856   17.100   1887.82     0.5797     0.0208     0.4362     0.1710     0.7620     3.8154   273.6000     0.4884     0.5401
  857   17.120   1888.72     0.6678     0.0217     0.4178     0.1712     0.8506     3.3228   273.9200     0.5767     0.4585
  858   17.140   1889.75     0.6852     0.0217     0.2839     0.1714     0.8209     3.1913   274.2400     0.5467     0.2752
  859   17.160   1890.80     0.6206     0.0227     0.2751     0.1716     0.7339     3.6328   274.5600     0.4593     0.2139
  860   17.180   1892.68     0.5451     0.0233     0.3409     0.1718     0.6776     5.0232   274.8800     0.4027     0.3541
  861   17.200   1895.39     0.5322     0.0219     0.4144     0.1720     0.6956     4.7321   275.2000     0.4204     0.5114
  862   17.220   1897.56     0.5324     0.0171     0.4567     0.1722     0.7211     3.2541   275.5200     0.4456     0.6219
  863   17.240   1898.47     0.5340     0.0147     0.4663     0.1724     0.7284     2.7548   275.8400     0.4526     0.6420
  864   17.260   1899.32     0.5284     0.0143     0.4778     0.1726     0.7272     2.6924   276.1600     0.4510     0.6668
  865   17.280   1900.31     0.5232     0.0141     0.4863     0.1728     0.7267     2.6809   276.4800     0.4503     0.6924
  866   17.300   1901.26     0.5098     0.0142     0.4917     0.1730     0.7154     2.7750   276.8000     0.4386     0.7216
  867   17.320   1902.18     0.5015     0.0143     0.4931     0.1732     0.7086     2.8558   277.1200     0.4315     0.7416
  868   17.340   1903.06     0.5084     0.0146     0.4978     0.1734     0.7167     2.8789   277.4400     0.4393     0.7341
  869   17.360   1904.26     0.5115     0.0144     0.5002     0.1736     0.7211     2.8286   277.7600     0.4434     0.7343
  870   17.380   1905.26     0.5119     0.0139     0.5046     0.1738     0.7231     2.7105   278.0800     0.4450     0.7392
  871   17.400   1906.26     0.5006     0.0135     0.5093     0.1740     0.7140     2.6650   278.4000     0.4356     0.7672
  872   17.420   1907.12     0.5031     0.0141     0.5128     0.1742     0.7178     2.8160   278.7200     0.4391     0.7679
  873   17.440   1908.06     0.5037     0.0147     0.5172     0.1744     0.7204     2.9284   279.0400     0.4414     0.7737
  874   17.460   1908.89     0.5348     0.0140     0.5195     0.1746     0.7529     2.6545   279.3600     0.4735     0.7283
  875   17.480   1909.82     0.5667     0.0107     0.5163     0.1748     0.7847     1.9303   279.6800     0.5050     0.6820
  876   17.500   1910.92     0.6026     0.0070     0.4972     0.1750     0.8145     1.1664   280.0000     0.5345     0.6168
  877   17.520   1911.82     0.5765     0.0061     0.4889     0.1752     0.7803     1.0439   280.3200     0.5000     0.6203
  878   17.540   1912.93     0.5734     0.0063     0.5157     0.1754     0.7862     1.1312   280.6400     0.5056     0.6554
  879   17.560   1913.92     1.1420     0.0117     0.5352     0.1756     1.3664     1.5531   280.9600     1.0855     0.3404
  880   17.580   1914.92     2.3647     0.0305     0.3875     0.1758     2.5643     1.7325   281.2800     2.2830     0.1339
  881   17.600   1915.88     2.6637     0.0367     0.1772     0.1760     2.7565     1.3240   281.6000     2.4749     0.0175
  882   17.620   1916.83     2.0147     0.0361     0.1474     0.1762     2.0785     1.5859   281.9200     1.7966    -0.0138
  883   17.640   1917.78     1.5761     0.0379     0.1423     0.1764     1.6354     2.2063   282.2400     1.3532    -0.0261
  884   17.660   1918.62     1.3364     0.0374     0.1761     0.1766     1.4021     2.6756   282.5600     1.1196    -0.0175
  885   17.680   1919.61     1.0177     0.0331     0.1903     0.1768     1.0994     2.9820   282.8800     0.8165     0.0213
  886   17.700   1920.59     0.7610     0.0282     0.2228     0.1770     0.8486     3.3815   283.2000     0.5654     0.0566
  887   17.720   1921.58     0.7007     0.0224     0.2479     0.1772     0.8013     3.1884   283.5200     0.5177     0.1202
  888   17.740   1922.53     0.7381     0.0176     0.2734     0.1774     0.8492     2.4411   283.8400     0.5653     0.1540
  889   17.760   1923.53     0.8648     0.0187     0.3010     0.1776     0.9877     2.3602   284.1600     0.7036     0.1637
  890   17.780   1924.44     1.0443     0.0193     0.3237     0.1778     1.1775     1.9876   284.4800     0.8930     0.1561
  891   17.800   1925.40     1.2307     0.0213     0.3296     0.1780     1.3699     1.8340   284.8000     1.0851     0.1414
  892   17.820   1926.34     1.4846     0.0235     0.3164     0.1782     1.6199     1.6619   285.1200     1.3348     0.1081
  893   17.840   1927.29     1.6619     0.0240     0.2959     0.1784     1.7892     1.5029   285.4400     1.5037     0.0830
  894   17.860   1928.27     1.8284     0.0252     0.2796     0.1786     1.9481     1.3950   285.7600     1.6623     0.0640
  895   17.880   1929.22     2.0615     0.0297     0.2538     0.1788     2.1717     1.4797   286.0800     1.8856     0.0445
  896   17.900   1930.18     2.2718     0.0313     0.2314     0.1790     2.3725     1.3805   286.4000     2.0861     0.0292
  897   17.920   1931.16     2.3443     0.0313     0.1996     0.1792     2.4331     1.3341   286.7200     2.1463     0.0150
  898   17.940   1946.93     2.2813     0.0349     0.2056     0.1794     2.3667     1.4889   287.0400     2.0797     0.0117
  899   17.960   1969.06     2.1908     0.0397     0.2094     0.1796     2.2788     1.7173   287.3600     1.9915     0.0151
  900   17.980   1974.15     2.0990     0.0347     0.2005     0.1798     2.1845     1.6456   287.6800     1.8968     0.0125
  901   18.000   1975.25     2.1804     0.0290     0.2125     0.1800     2.2674     1.3726   288.0000     1.9794     0.0137
  902   18.020   1976.17     2.5781     0.0271     0.2317     0.1802     2.6725     1.0874   288.3200     2.3842     0.0187
  903   18.040   1977.15     3.2189     0.0299     0.2023     0.1804     3.3129     0.9757   288.6400     3.0243     0.0146
  904   18.060   1978.17     3.9448     0.0367     0.1524     0.1806     4.0146     0.9794   288.9600     3.7256    -0.0038
  905   18.080   1979.19     4.3467     0.0326     0.1435     0.1808     4.4080     0.7730   289.2800     4.1187    -0.0084
  906   18.100   1980.16     4.7222     0.0304     0.1579     0.1810     4.7869     0.6676   289.6000     4.4973    -0.0060
  907   18.120   1981.11     5.5317     0.0289     0.1713     0.1812     5.6015     0.5557   289.9200     5.3116    -0.0028
  908   18.140   1982.10     6.9676     0.0273     0.1459     0.1814     7.0357     0.4184   290.2400     6.7454    -0.0028
  909   18.160   1983.01     8.2367     0.0273     0.0489     0.1816     8.2701     0.3509   290.5600     7.9795    -0.0128
  910   18.180   1986.04     7.6369     0.0301     0.0075     0.1818     7.6310     0.3717   290.8800     7.3401    -0.0267
  911   18.200   1988.54     8.5273     0.0282     0.0701     0.1820     8.5476     0.3700   291.2000     8.2564    -0.0168
  912   18.220   1990.38     9.1821     0.0226     0.0751     0.1822     9.2158     0.2478   291.5200     8.9243    -0.0114
  913   18.240   1991.47     9.5793     0.0203     0.0682     0.1824     9.6092     0.2149   291.8400     9.3174    -0.0119
  914   18.260   1992.32     9.8417     0.0212     0.0616     0.1826     9.8685     0.2177   292.1600     9.5764    -0.0124
  915   18.280   1993.28    10.1539     0.0217     0.0465     0.1828    10.1768     0.2161   292.4800     9.8843    -0.0130
  916   18.300   1994.52    10.4594     0.0229     0.0146     0.1830    10.4682     0.2217   292.8000    10.1754    -0.0159
  917   18.320   1995.32    10.5534     0.0226     0.0040     0.1832    10.5559     0.2138   293.1200    10.2628    -0.0173
  918   18.340   1996.27    10.6377     0.0240    -0.0021     0.1834    10.6380     0.2256   293.4400    10.3446    -0.0176
  919   18.360   1997.21    10.6760     0.0251    -0.0101     0.1836    10.6727     0.2352   293.7600    10.3789    -0.0185
  920   18.380   1998.12    10.7419     0.0268    -0.0069     0.1838    10.7385     0.2511   294.0800    10.4444    -0.0184
  921   18.400   1998.98    10.8948     0.0298    -0.0039     0.1840    10.8930     0.2756   294.4000    10.5986    -0.0177
  922   18.420   1999.81    11.0985     0.0300     0.0005     0.1842    11.0977     0.2721   294.7200    10.8029    -0.0172
  923   18.440   2000.88    11.4577     0.0334     0.0061     0.1844    11.4595     0.2958   295.0400    11.1644    -0.0161
  924   18.460   2001.82    11.7954     0.0350     0.0102     0.1846    11.7991     0.3012   295.3600    11.5037    -0.0153
  925   18.480   2002.80    12.0854     0.0330     0.0084     0.1848    12.0897     0.2760   295.6800    11.7940    -0.0148
  926   18.500   2003.76    12.3957     0.0318    -0.0053     0.1850    12.3956     0.2589   296.0000    12.0996    -0.0153
  927   18.520   2004.67    12.4553     0.0277    -0.0095     0.1852    12.4518     0.2229   296.3200    12.1555    -0.0159
  928   18.540   2005.49    12.4273     0.0239    -0.0206     0.1854    12.4208     0.1926   296.6400    12.1242    -0.0166
  929   18.560   2006.49    12.2084     0.0208    -0.0318     0.1856    12.1942     0.1687   296.9600    11.8973    -0.0184
  930   18.580   2007.49    12.2692     0.0209    -0.0203     0.1858    12.2596     0.1720   297.2800    11.9623    -0.0174
  931   18.600   2008.45    12.6588     0.0178    -0.0151     0.1860    12.6517     0.1412   297.6000    12.3541    -0.0164
  932   18.620   2009.36    13.4467     0.0175    -0.0104     0.1862    13.4416     0.1313   297.9200    13.1436    -0.0151
  933   18.640   2010.27    14.1723     0.0199    -0.0058     0.1864    14.1693     0.1410   298.2400    13.8711    -0.0140
  934   18.660   2011.18    14.6221     0.0208     0.0010     0.1866    14.6216     0.1421   298.5600    14.3231    -0.0131
  935   18.680   2012.14    14.6266     0.0224     0.0076     0.1868    14.6288     0.1530   298.8800    14.3299    -0.0127
  936   18.700   2013.05    14.5476     0.0240     0.0132     0.1870    14.5526     0.1648   299.2000    14.2534    -0.0123
  937   18.720   2013.92    14.4330     0.0237     0.0191     0.1872    14.4400     0.1636   299.5200    14.1405    -0.0120
  938   18.740   2014.80    14.2474     0.0208     0.0259     0.1874    14.2573     0.1447   299.8400    13.9574    -0.0117
  939   18.760   2015.71    14.4088     0.0200     0.0341     0.1876    14.4218     0.1402   300.1600    14.1217    -0.0111
  940   18.780   2016.66    14.7847     0.0213     0.0394     0.1878    14.8005     0.1458   300.4800    14.5001    -0.0103
  941   18.800   2017.66    14.7328     0.0211     0.0431     0.1880    14.7506     0.1428   300.8000    14.4498    -0.0101
  942   18.820   2018.56    14.5618     0.0208     0.0487     0.1882    14.5811     0.1424   301.1200    14.2800    -0.0100
  943   18.840   2019.47    14.4729     0.0213     0.0585     0.1884    14.4955     0.1465   301.4400    14.1941    -0.0095
  944   18.860   2020.42    14.3659     0.0205     0.0661     0.1886    14.3922     0.1429   301.7600    14.0905    -0.0089
  945   18.880   2021.33    14.2143     0.0203     0.0786     0.1888    14.2460     0.1425   302.0800    13.9439    -0.0081
  946   18.900   2022.27    13.9276     0.0207     0.0829     0.1890    13.9613     0.1483   302.4000    13.6589    -0.0080
  947   18.920   2023.18    13.6388     0.0204     0.0880     0.1892    13.6753     0.1490   302.7200    13.3726    -0.0076
  948   18.940   2024.11    13.1797     0.0211     0.0958     0.1894    13.2188     0.1573   303.0400    12.9158    -0.0075
  949   18.960   2025.02    12.6679     0.0222     0.1012     0.1896    12.7095     0.1714   303.3600    12.4061    -0.0073
  950   18.980   2025.93    12.3294     0.0210     0.1077     0.1898    12.3735     0.1684   303.6800    12.0698    -0.0070
  951   19.000   2026.82    12.1688     0.0197     0.1148     0.1900    12.2162     0.1607   304.0000    11.9122    -0.0065
  952   19.020   2027.77    12.0682     0.0193     0.1173     0.1902    12.1171     0.1595   304.3200    11.8128    -0.0062
  953   19.040   2028.75    11.9054     0.0191     0.1243     0.1904    11.9566     0.1605   304.6400    11.6519    -0.0059
  954   19.060   2029.66    11.5821     0.0182     0.1300     0.1906    11.6361     0.1572   304.9600    11.3311    -0.0055
  955   19.080   2030.57    11.1150     0.0199     0.1390     0.1908    11.1717     0.1788   305.2800    10.8665    -0.0051
  956   19.100   2031.48    10.6087     0.0215     0.1467     0.1910    10.6684     0.2004   305.6000    10.3628    -0.0047
  957   19.120   2032.39     9.9384     0.0214     0.1485     0.1912    10.0011     0.2107   305.9200     9.6952    -0.0043
  958   19.140   2033.30     9.2122     0.0208     0.1483     0.1914     9.2745     0.2202   306.2400     8.9683    -0.0048
  959   19.160   2034.26     8.6177     0.0199     0.1491     0.1916     8.6795     0.2250   306.5600     8.3730    -0.0053
  960   19.180   2036.53     8.3743     0.0192     0.1672     0.1918     8.4419     0.2258   306.8800     8.1350    -0.0037
  961   19.200   2039.28     8.2241     0.0186     0.1853     0.1920     8.2993     0.2192   307.2000     7.9921    -0.0016
  962   19.220   2041.69     8.1539     0.0183     0.1895     0.1922     8.2345     0.2249   307.5200     7.9270     0.0000
  963   19.240   2042.63     8.5422     0.0179     0.1904     0.1924     8.6233     0.2106   307.8400     8.3155     0.0001
  964   19.260   2043.54     8.9813     0.0180     0.1914     0.1926     9.0626     0.2011   308.1600     8.7545     0.0001
  965   19.280   2044.45     9.0816     0.0178     0.1915     0.1928     9.1603     0.1960   308.4800     8.8519    -0.0006
  966   19.300   2045.37     8.9209     0.0160     0.1913     0.1930     9.0022     0.1788   308.8000     8.6934     0.0001
  967   19.320   2046.27     8.6452     0.0137     0.1912     0.1932     8.7247     0.1554   309.1200     8.4155    -0.0005
  968   19.340   2047.18     8.6337     0.0139     0.1943     0.1934     8.7153     0.1621   309.4400     8.4059     0.0001
  969   19.360   2048.09     9.0584     0.0169     0.1941     0.1936     9.1399     0.1943   309.7600     8.8301     0.0000
  970   19.380   2049.00    10.3054     0.0170     0.1935     0.1938    10.3875     0.1792   310.0800    10.0775     0.0002
  971   19.400   2049.96    12.1490     0.0181     0.1936     0.1940    12.2299     0.1497   310.4000    11.9195    -0.0001
  972   19.420   2050.91    14.0398     0.0198     0.1942     0.1942    14.1227     0.1422   310.7200    13.8120     0.0002
  973   19.440   2051.83    14.8137     0.0208     0.1772     0.1944    14.8912     0.1410   311.0400    14.5801    -0.0007
  974   19.460   2052.74    14.7833     0.0223     0.1554     0.1946    14.8509     0.1493   311.3600    14.5395    -0.0023
  975   19.480   2053.65    14.1199     0.0216     0.1658     0.1948    14.1859     0.1487   311.6800    13.8742    -0.0027
  976   19.500   2054.56    13.0775     0.0229     0.1666     0.1950    13.1486     0.1679   312.0000    12.8366    -0.0020
  977   19.520   2055.47    11.7910     0.0240     0.1751     0.1952    11.8662     0.1961   312.3200    11.5539    -0.0014
  978   19.540   2056.39     9.8826     0.0262     0.1790     0.1954     9.9564     0.2463   312.6400     9.6438    -0.0020
  979   19.560   2057.34     7.6611     0.0300     0.1875     0.1956     7.7386     0.3554   312.9600     7.4256    -0.0015
  980   19.580   2058.29     5.9928     0.0344     0.1945     0.1958     6.0735     0.5289   313.2800     5.7603    -0.0006
  981   19.600   2059.25     4.9037     0.0487     0.2000     0.1960     4.9877     0.9447   313.6000     4.6741     0.0008
  982   19.620   2060.22     4.5354     0.0525     0.2014     0.1962     4.6198     1.1410   313.9200     4.3058     0.0011
  983   19.640   2061.18     4.3929     0.0464     0.1967     0.1964     4.4764     1.0371   314.2400     4.1622     0.0006
  984   19.660   2062.16     3.6688     0.0401     0.1767     0.1966     3.7449     0.9996   314.5600     3.4304    -0.0046
  985   19.680   2063.08     2.9055     0.0391     0.2086     0.1968     2.9869     1.2327   314.8800     2.6721    -0.0010
  986   19.700   2064.07     2.3230     0.0420     0.2164     0.1970     2.4128     1.6682   315.2000     2.0976     0.0081
  987   19.720   2065.03     1.7429     0.0447     0.2790     0.1972     1.8503     2.2926   315.5200     1.5348     0.0388
  988   19.740   2065.94     1.1887     0.0411     0.4159     0.1974     1.3445     3.0837   315.8400     1.0286     0.1707
  989   19.760   2066.90     1.0198     0.0335     0.4930     0.1976     1.2189     2.9998   316.1600     0.9027     0.3065
  990   19.780   2067.85     0.9649     0.0301     0.5275     0.1978     1.1827     2.9270   316.4800     0.8662     0.3704
  991   19.800   2068.84     0.9235     0.0268     0.5469     0.1980     1.1505     2.8543   316.8000     0.8337     0.4109
  992   19.820   2069.79     0.9237     0.0267     0.5679     0.1982     1.1588     2.8858   317.1200     0.8417     0.4296
  993   19.840   2070.77     0.9170     0.0261     0.5898     0.1984     1.1619     2.8426   317.4400     0.8445     0.4557
  994   19.860   2074.18     0.8992     0.0235     0.6129     0.1986     1.1509     2.5904   317.7600     0.8332     0.4812
  995   19.880   2092.71     0.8745     0.0217     0.6523     0.1988     1.1428     2.4017   318.0800     0.8247     0.5344
  996   19.900   2111.23     0.8499     0.0226     0.6917     0.1990     1.1347     2.5085   318.4000     0.8163     0.5876
  997   19.920   2121.00     0.8407     0.0245     0.7141     0.1992     1.1390     2.9231   318.7200     0.8203     0.6232
  998   19.940   2121.85     0.9167     0.0239     0.7112     0.1994     1.2178     2.6601   319.0400     0.8988     0.5760
  999   19.960   2122.80     0.9681     0.0227     0.6619     0.1996     1.2579     2.3512   319.3600     0.9386     0.5226
 1000   19.980   2123.81     0.9173     0.0213     0.5933     0.1998     1.1694     2.3104   319.6800     0.8498     0.4713
 1001   20.000   2124.78     0.8578     0.0217     0.6067     0.2000     1.1097     2.4973   320.0000     0.7897     0.5065
 1002   20.020   2125.76     0.8001     0.0214     0.6365     0.2002     1.0632     2.6166   320.3200     0.7429     0.5740
 1003   20.040   2126.74     0.7918     0.0204     0.6659     0.2004     1.0672     2.5943   320.6400     0.7466     0.6099
 1004   20.060   2127.71     0.8165     0.0208     0.6815     0.2006     1.1008     2.5848   320.9600     0.7798     0.6107
 1005   20.080   2128.65     0.8456     0.0192     0.6797     0.2008     1.1312     2.3553   321.2800     0.8099     0.5917
 1006   20.100   2129.62     0.8216     0.0172     0.6932     0.2010     1.1112     2.0833   321.6000     0.7896     0.6188
 1007   20.120   2130.57     0.7986     0.0210     0.6930     0.2012     1.0900     2.6329   321.9200     0.7681     0.6415
 1008   20.140   2131.56     0.8191     0.0229     0.7017     0.2014     1.1123     2.8089   322.2400     0.7900     0.6288
 1009   20.160   2132.52     0.8829     0.0210     0.7093     0.2016     1.1799     2.4366   322.5600     0.8574     0.5897
 1010   20.180   2134.09     1.0357     0.0210     0.6143     0.2018     1.3107     2.2914   322.8800     0.9879     0.4851
 1011   20.200   2136.40     1.2911     0.0206     0.4968     0.2020     1.5168     2.2548   323.2000     1.1936     0.3029
 1012   20.220   2138.03     1.3135     0.0194     0.5016     0.2022     1.5209     1.3935   323.5200     1.1973     0.2436
 1013   20.240   2138.98     1.1498     0.0194     0.5298     0.2024     1.3699     1.5903   323.8400     1.0460     0.3074
 1014   20.260   2139.93     1.0504     0.0223     0.5549     0.2026     1.2789     2.0133   324.1600     0.9548     0.3580
 1015   20.280   2140.85     0.9112     0.0183     0.5910     0.2028     1.1531     1.8977   324.4800     0.8286     0.4512
 1016   20.300   2141.78     0.8308     0.0189     0.6400     0.2030     1.0935     2.2412   324.8000     0.7687     0.5498
 1017   20.320   2142.74     0.8492     0.0153     0.6606     0.2032     1.1245     1.8254   325.1200     0.7994     0.5656
 1018   20.340   2143.69     0.8873     0.0115     0.6673     0.2034     1.1654     1.3121   325.4400     0.8400     0.5464
 1019   20.360   2144.64     0.9269     0.0183     0.7323     0.2036     1.2246     2.0489   325.7600     0.8989     0.5629
 1020   20.380   2145.59     1.3038     0.0225     0.5911     0.2038     1.5983     2.0003   326.0800     1.2722     0.3934
 1021   20.400   2146.59     1.4886     0.0219     0.6104     0.2040     1.7362     1.4998   326.4000     1.4098     0.2738
 1022   20.420   2147.54     1.9740     0.0249     0.4951     0.2042     2.2202     1.4478   326.7200     1.8935     0.2028
 1023   20.440   2148.50     2.5241     0.0279     0.3601     0.2044     2.6945     1.2114   327.0400     2.3675     0.0851
 1024   20.460   2149.41     2.4226     0.0279     0.3102     0.2046     2.5572     1.1548   327.3600     2.2298     0.0519
 1025   20.480   2150.40     1.9234     0.0279     0.2698     0.2048     2.0456     1.4255   327.6800     1.7179     0.0502
 1026   20.500   2151.32     1.5462     0.0277     0.2327     0.2050     1.6452     1.6880   328.0000     1.3172     0.0231
 1027   20.520   2152.25     1.3035     0.0222     0.2565     0.2052     1.4070     1.5445   328.3200     1.0786     0.0388
 1028   20.540   2153.19     1.0442     0.0208     0.3029     0.2054     1.1656     1.8735   328.6400     0.8369     0.1009
 1029   20.560   2154.08     0.8853     0.0208     0.3380     0.2056     1.0230     2.2493   328.9600     0.6941     0.1764
 1030   20.580   2154.96     0.8338     0.0172     0.3588     0.2058     0.9822     2.0475   329.2800     0.6529     0.2259
 1031   20.600   2155.91     0.8110     0.0167     0.3692     0.2060     0.9654     2.0392   329.6000     0.6358     0.2542
 1032   20.620   2156.89     0.7862     0.0161     0.3738     0.2062     0.9423     2.0361   329.9200     0.6124     0.2704
 1033   20.640   2157.88     0.7638     0.0173     0.3807     0.2064     0.9227     2.2586   330.2400     0.5925     0.2902
 1034   20.660   2158.86     0.7826     0.0177     0.3897     0.2066     0.9447     2.2789   330.5600     0.6142     0.2924
 1035   20.680   2159.88     0.8162     0.0158     0.3972     0.2068     0.9819     1.9487   330.8800     0.6511     0.2886
 1036   20.700   2160.87     0.8332     0.0135     0.4061     0.2070     1.0029     1.6250   331.2000     0.6717     0.2935
 1037   20.720   2161.84     0.8174     0.0129     0.4176     0.2072     0.9902     1.5681   331.5200     0.6587     0.3102
 1038   20.740   2162.75     0.8112     0.0124     0.4411     0.2074     0.9930     1.5343   331.8400     0.6611     0.3407
 1039   20.760   2163.58     1.0609     0.0102     0.4639     0.2076     1.2527     1.1477   332.1600     0.9205     0.2766
 1040   20.780   2164.48     2.1241     0.0108     0.4570     0.2078     2.3195     0.6536   332.4800     1.9870     0.1304
 1041   20.800   2165.38     3.8590     0.0147     0.3912     0.2080     4.0368     0.4824   332.8000     3.7040     0.0597
 1042   20.820   2166.37     5.8634     0.0118     0.3162     0.2082     6.0055     0.2268   333.1200     5.6724     0.0233
 1043   20.840   2167.42     7.7195     0.0108     0.2314     0.2084     7.8271     0.1495   333.4400     7.4936     0.0065
 1044   20.860   2168.40     9.0637     0.0119     0.1676     0.2086     9.1453     0.1385   333.7600     8.8115    -0.0016
 1045   20.880   2169.31     9.7904     0.0150     0.0973     0.2088     9.8386     0.1576   334.0800     9.5045    -0.0099
 1046   20.900   2170.19     9.6985     0.0205     0.0845     0.2090     9.7358     0.2085   334.4000     9.4014    -0.0128
 1047   20.920   2171.18     8.8746     0.0274     0.0968     0.2092     8.9155     0.2987   334.7200     8.5807    -0.0130
 1048   20.940   2172.18     8.0566     0.0359     0.1108     0.2094     8.1009     0.4294   335.0400     7.7659    -0.0134
 1049   20.960   2173.11     7.4322     0.0442     0.1173     0.2096     7.4808     0.5794   335.3600     7.1454    -0.0131
 1050   20.980   2174.04     6.8770     0.0518     0.1362     0.2098     6.9322     0.7508   335.6800     6.5965    -0.0119
 1051   21.000   2175.00     6.3097     0.0492     0.1508     0.2100     6.3707     0.7741   336.0000     6.0347    -0.0107
 1052   21.020   2175.90     5.7893     0.0409     0.1709     0.2102     5.8581     0.6840   336.3200     5.5218    -0.0084
 1053   21.040   2176.91     5.5789     0.0325     0.2136     0.2104     5.6615     0.5799   336.6400     5.3248    -0.0026
 1054   21.060   2177.80     5.7027     0.0350     0.2343     0.2106     5.8004     0.6143   336.9600     5.4634     0.0040
 1055   21.080   2178.65     5.9190     0.0397     0.2003     0.2108     6.0114     0.6763   337.2800     5.6741     0.0016
 1056   21.100   2179.64     5.8467     0.0480     0.1430     0.2110     5.9138     0.8115   337.6000     5.5762    -0.0092
 1057   21.120   2180.63     5.2451     0.0475     0.1541     0.2112     5.3060     0.8706   337.9200     4.9681    -0.0133
 1058   21.140   2181.68     4.5303     0.0418     0.1808     0.2114     4.6012     0.8850   338.2400     4.2630    -0.0099
 1059   21.160   2183.13     4.4433     0.0482     0.2025     0.2116     4.5281     1.1081   338.5600     4.1895    -0.0024
 1060   21.180   2186.02     5.0398     0.0500     0.2045     0.2118     5.1254     1.1590   338.8800     4.7866    -0.0018
 1061   21.200   2188.92     5.6363     0.0487     0.2020     0.2120     5.7227     1.0709   339.2000     5.3835    -0.0011
 1062   21.220   2189.94     6.7963     0.0425     0.1446     0.2122     6.8704     0.6337   339.5200     6.5308    -0.0054
 1063   21.240   2190.93     8.5557     0.0368     0.0833     0.2124     8.5942     0.4451   339.8400     8.2543    -0.0146
 1064   21.260   2191.89    10.5093     0.0397     0.0739     0.2126    10.5427     0.3855   340.1600    10.2025    -0.0131
 1065   21.280   2192.85    11.9789     0.0482     0.0439     0.2128    11.9994     0.4060   340.4800    11.6589    -0.0140
 1066   21.300   2193.78    12.2104     0.0641     0.0479     0.2130    12.2310     0.5230   340.8000    11.8902    -0.0138
 1067   21.320   2194.57    11.4059     0.0792     0.0458     0.2132    11.4262     0.6844   341.1200    11.0851    -0.0149
 1068   21.340   2195.44     9.9400     0.0941     0.0462     0.2134     9.9594     0.8765   341.4400     9.6180    -0.0174
 1069   21.360   2196.35     8.3254     0.0940     0.0519     0.2136     8.3452     1.0653   341.7600     8.0034    -0.0208
 1070   21.380   2197.40     6.9980     0.0919     0.0747     0.2138     7.0257     1.2470   342.0800     6.6836    -0.0221
 1071   21.400   2198.32     6.5572     0.0810     0.1237     0.2140     6.5999     1.2141   342.4000     6.2575    -0.0179
 1072   21.420   2199.12     6.9114     0.0646     0.2130     0.2142     6.9847     0.9662   342.7200     6.6420    -0.0061
 1073   21.440   2200.10     7.8228     0.0546     0.2070     0.2144     7.9153     0.7350   343.0400     7.5722     0.0008
 1074   21.460   2201.12     8.6397     0.0536     0.1721     0.2146     8.7201     0.6310   343.3600     8.3767    -0.0028
 1075   21.480   2202.06     8.7939     0.0572     0.0618     0.2148     8.8399     0.6491   343.6800     8.4962    -0.0124
 1076   21.500   2203.00     8.2242     0.0502    -0.0156     0.2150     8.2198     0.5881   344.0000     7.8758    -0.0286
 1077   21.520   2203.95     7.1057     0.0314    -0.0068     0.2152     7.1005     0.4196   344.3200     6.7561    -0.0337
 1078   21.540   2204.86     6.3698     0.0260     0.0133     0.2154     6.3726     0.3960   344.6400     6.0279    -0.0347
 1079   21.560   2205.87     6.1638     0.0244     0.0499     0.2156     6.1779     0.3926   344.9600     5.8330    -0.0312
 1080   21.580   2206.72     6.4306     0.0223     0.1076     0.2158     6.4662     0.3557   345.2800     6.1209    -0.0215
 1081   21.600   2207.84     7.0606     0.0254     0.1262     0.2160     7.1204     0.3601   345.6000     6.7748    -0.0109
 1082   21.620   2208.79     7.3090     0.0333     0.0682     0.2162     7.3424     0.4567   345.9200     6.9965    -0.0195
 1083   21.640   2209.63     7.3348     0.0387     0.0614     0.2164     7.3613     0.5272   346.2400     7.0151    -0.0218
 1084   21.660   2210.52     7.4500     0.0315     0.0699     0.2166     7.4772     0.4274   346.5600     7.1306    -0.0213
 1085   21.680   2211.47     7.9122     0.0283     0.1127     0.2168     7.9505     0.3598   346.8800     7.6036    -0.0165
 1086   21.700   2212.42     8.8781     0.0275     0.1703     0.2170     8.9416     0.3288   347.2000     8.5944    -0.0077
 1087   21.720   2213.29     9.6617     0.0284     0.2042     0.2172     9.7466     0.3045   347.5200     9.3991    -0.0016
 1088   21.740   2214.28    10.1098     0.0311     0.0931     0.2174    10.1682     0.3104   347.8400     9.8204    -0.0080
 1089   21.760   2215.23     9.8267     0.0394     0.0541     0.2176     9.8507     0.3959   348.1600     9.5026    -0.0169
 1090   21.780   2216.14     9.1724     0.0527     0.0388     0.2178     9.1899     0.5664   348.4800     8.8414    -0.0199
 1091   21.800   2217.07     8.1992     0.0732     0.0383     0.2180     8.2146     0.8481   348.8000     7.8658    -0.0231
 1092   21.820   2218.06     7.0876     0.0982     0.0471     0.2182     7.1057     1.3110   349.1200     6.7566    -0.0259
 1093   21.840   2218.94     5.8717     0.1025     0.0643     0.2184     5.8947     1.6263   349.4400     5.5453    -0.0295
 1094   21.860   2219.90     4.7125     0.0884     0.0846     0.2186     4.7451     1.7908   349.7600     4.3953    -0.0321
 1095   21.880   2220.76     4.1054     0.0750     0.1649     0.2188     4.1553     1.7108   350.0800     3.8052    -0.0261
 1096   21.900   2221.82     3.7738     0.0595     0.2323     0.2190     3.8701     1.5429   350.4000     3.5197     0.0029
 1097   21.920   2222.79     3.4612     0.0570     0.2338     0.2192     3.5583     1.5838   350.7200     3.2076     0.0037
 1098   21.940   2223.79     3.7170     0.0573     0.2709     0.2194     3.8228     1.6303   351.0400     3.4718     0.0092
 1099   21.960   2224.99     4.7779     0.0502     0.2746     0.2196     4.9078     1.2215   351.3600     4.5565     0.0197
 1100   21.980   2249.84     6.0778     0.0397     0.1736     0.2198     6.1653     0.8296   351.6800     5.8136     0.0007
 1101   22.000   2266.50     7.7744     0.0290     0.0957     0.2200     7.8165     0.4741   352.0000     7.4645    -0.0161
 1102   22.020   2267.45     9.2815     0.0307     0.1157     0.2202     9.3270     0.3401   352.3200     8.9747    -0.0125
 1103   22.040   2268.42    10.4683     0.0411     0.1004     0.2204    10.5150     0.3963   352.6400    10.1623    -0.0108
 1104   22.060   2269.33    10.6707     0.0503     0.0655     0.2206    10.7023     0.4688   352.9600    10.3493    -0.0141
 1105   22.080   2270.15    10.0461     0.0525     0.0637     0.2208    10.0721     0.5190   353.2800     9.7188    -0.0164
 1106   22.100   2270.97     9.2588     0.0544     0.0668     0.2210     9.2855     0.5740   353.6000     8.9319    -0.0176
 1107   22.120   2271.87     8.5803     0.0508     0.0908     0.2212     8.6134     0.5811   353.9200     8.2595    -0.0172
 1108   22.140   2273.01     8.2918     0.0463     0.1595     0.2214     8.3500     0.5546   354.2400     7.9957    -0.0104
 1109   22.160   2273.84     8.3278     0.0418     0.2206     0.2216     8.4113     0.5044   354.5600     8.0568    -0.0028
 1110   22.180   2275.92     8.4890     0.0399     0.1508     0.2218     8.5632     0.4960   354.8800     8.2083    -0.0054
 1111   22.200   2278.21     8.6134     0.0399     0.0630     0.2220     8.6562     0.4793   355.2000     8.3010    -0.0145
 1112   22.220   2279.30     8.7026     0.0377    -0.0203     0.2222     8.6998     0.4335   355.5200     8.3443    -0.0274
 1113   22.240   2280.23     8.8802     0.0371    -0.0037     0.2224     8.8777     0.4186   355.8400     8.5218    -0.0268
 1114   22.260   2281.14     9.1574     0.0322     0.0092     0.2226     9.1587     0.3579   356.1600     8.8025    -0.0250
 1115   22.280   2281.91     9.5903     0.0293     0.0215     0.2228     9.5982     0.3126   356.4800     9.2417    -0.0221
 1116   22.300   2282.90    10.2554     0.0242    -0.0169     0.2230    10.2554     0.2421   356.8000     9.8986    -0.0225
 1117   22.320   2283.87    10.8150     0.0183    -0.0427     0.2232    10.7992     0.1737   357.1200    10.4421    -0.0250
 1118   22.340   2284.79    11.1646     0.0163    -0.0598     0.2234    11.1418     0.1482   357.4400    10.7843    -0.0258
 1119   22.360   2285.79    11.2912     0.0192    -0.0527     0.2236    11.2670     0.1701   357.7600    10.9092    -0.0258
 1120   22.380   2286.72    11.3406     0.0228    -0.0382     0.2238    11.3222     0.2005   358.0800    10.9641    -0.0244
 1121   22.400   2287.63    11.2365     0.0267    -0.0294     0.2240    11.2233     0.2371   358.4000    10.8649    -0.0235
 1122   22.420   2288.54    10.9553     0.0283    -0.0176     0.2242    10.9455     0.2575   358.7200    10.5868    -0.0234
 1123   22.440   2289.45    10.6522     0.0272    -0.0024     0.2244    10.6481     0.2529   359.0400    10.2890    -0.0228
 1124   22.460   2290.38    10.4993     0.0240     0.0240     0.2246    10.5055     0.2266   359.3600    10.1461    -0.0207
 1125   22.480   2291.20    10.3676     0.0205     0.0535     0.2248    10.3855     0.1966   359.6800    10.0258    -0.0182
 1126   22.500   2292.10    10.2506     0.0188     0.0937     0.2250    10.2835     0.1831   360.0000     9.9235    -0.0148
 1127   22.520   2292.97    10.1562     0.0171     0.1383     0.2252    10.2086     0.1674   360.3200     9.8483    -0.0102
 1128   22.540   2294.01     9.9530     0.0156     0.1414     0.2254    10.0180     0.1557   360.6400     9.6574    -0.0073
 1129   22.560   2295.06     9.6647     0.0174     0.1315     0.2256     9.7184     0.1786   360.9600     9.3575    -0.0104
 1130   22.580   2296.01     9.6270     0.0170     0.1399     0.2258     9.6831     0.1769   361.2800     9.3219    -0.0099
 1131   22.600   2296.92     9.8569     0.0186     0.1539     0.2260     9.9212     0.1899   361.6000     9.5596    -0.0076
 1132   22.620   2297.72    10.2815     0.0199     0.1644     0.2262    10.3477     0.1985   361.9200     9.9858    -0.0069
 1133   22.640   2298.61    11.0612     0.0190     0.1831     0.2264    11.1362     0.1736   362.2400    10.7740    -0.0044
 1134   22.660   2299.42    11.7531     0.0202     0.1901     0.2266    11.8324     0.1772   362.5600    11.4699    -0.0033
 1135   22.680   2300.37    12.2228     0.0299     0.1891     0.2268    12.3005     0.2475   362.8800    11.9376    -0.0035
 1136   22.700   2301.38    12.0882     0.0420     0.1993     0.2270    12.1737     0.3466   363.2000    11.8105    -0.0020
 1137   22.720   2302.47    11.2572     0.0494     0.1837     0.2272    11.3331     0.4296   363.5200    10.9696    -0.0042
 1138   22.740   2303.28    10.1914     0.0601     0.1923     0.2274    10.2712     0.5661   363.8400     9.9074    -0.0038
 1139   22.760   2304.18     8.5081     0.0558     0.1976     0.2276     8.5896     0.6333   364.1600     8.2254    -0.0041
 1140   22.780   2305.08     6.7796     0.0619     0.2104     0.2278     6.8653     0.8266   364.4800     6.5008    -0.0036
 1141   22.800   2305.95     5.9816     0.0603     0.2084     0.2280     6.0681     0.9542   364.8000     5.7033    -0.0039
 1142   22.820   2306.87     6.0033     0.0623     0.2338     0.2282     6.0992     1.0584   365.1200     5.7341     0.0000
 1143   22.840   2307.70     6.1473     0.0671     0.2324     0.2284     6.2448     1.0911   365.4400     5.8794     0.0006
 1144   22.860   2308.68     5.7175     0.0700     0.2169     0.2286     5.8091     1.1813   365.7600     5.4434    -0.0019
 1145   22.880   2309.69     4.5946     0.0658     0.1935     0.2288     4.6834     1.3937   366.0800     4.3173    -0.0043
 1146   22.900   2310.73     3.3353     0.0575     0.1972     0.2290     3.4143     1.6746   366.4000     3.0479    -0.0133
 1147   22.920   2311.66     2.7041     0.0459     0.2173     0.2292     2.7947     1.6335   366.7200     2.4280    -0.0056
 1148   22.940   2312.46     2.1656     0.0392     0.2468     0.2294     2.2604     1.6835   367.0400     1.8933    -0.0020
 1149   22.960   2313.51     1.6249     0.0354     0.3362     0.2296     1.7520     2.0018   367.3600     1.3846     0.0527
 1150   22.980   2314.46     1.3535     0.0294     0.4113     0.2298     1.5182     2.0876   367.6800     1.1505     0.1413
 1151   23.000   2315.24     1.2050     0.0257     0.4685     0.2300     1.3929     2.1193   368.0000     1.0249     0.2126
 1152   23.020   2316.24     1.1690     0.0226     0.5237     0.2302     1.3827     1.9383   368.3200     1.0144     0.2745
 1153   23.040   2317.24     1.1357     0.0215     0.5500     0.2304     1.3641     1.8955   368.6400     0.9955     0.3148
 1154   23.060   2318.33     1.1317     0.0227     0.5650     0.2306     1.3682     1.9798   368.9600     0.9993     0.3330
 1155   23.080   2320.23     1.1511     0.0301     0.5688     0.2308     1.3862     2.5786   369.2800     1.0169     0.3235
 1156   23.100   2321.29     1.1828     0.0364     0.5834     0.2310     1.4275     3.0771   369.6000     1.0579     0.3325
 1157   23.120   2322.23     1.2205     0.0367     0.6053     0.2312     1.4712     3.0056   369.9200     1.1013     0.3320
 1158   23.140   2323.16     1.2289     0.0367     0.6363     0.2314     1.4916     3.0114   370.2400     1.1214     0.3514
 1159   23.160   2324.20     1.2781     0.0374     0.6737     0.2316     1.5560     2.9318   370.5600     1.1854     0.3628
 1160   23.180   2326.56     1.2523     0.0373     0.7187     0.2318     1.5476     2.9118   370.8800     1.1768     0.4012
 1161   23.200   2329.39     1.2151     0.0372     0.7638     0.2320     1.5293     2.9113   371.2000     1.1581     0.4460
 1162   23.220   2330.79     1.2115     0.0371     0.7993     0.2322     1.5433     3.0728   371.5200     1.1718     0.4759
 1163   23.240   2331.67     1.2296     0.0357     0.8257     0.2324     1.5717     2.9128   371.8400     1.1999     0.4850
 1164   23.260   2332.58     1.2257     0.0355     0.8576     0.2326     1.5834     2.8915   372.1600     1.2112     0.5111
 1165   23.280   2333.49     1.2177     0.0354     0.8712     0.2328     1.5810     2.9054   372.4800     1.2085     0.5231
 1166   23.300   2334.45     1.2308     0.0351     0.8949     0.2330     1.6033     2.8567   372.8000     1.2305     0.5315
 1167   23.320   2335.50     1.2248     0.0347     0.9102     0.2332     1.6050     2.8366   373.1200     1.2319     0.5456
 1168   23.340   2336.50     1.2180     0.0347     0.9001     0.2334     1.6000     2.8462   373.4400     1.2266     0.5512
 1169   23.360   2337.64     1.2395     0.0341     0.9309     0.2336     1.6285     2.7541   373.7600     1.2547     0.5519
 1170   23.380   2338.63     1.2389     0.0339     0.9479     0.2338     1.6364     2.7282   374.0800     1.2623     0.5645
 1171   23.400   2339.55     1.2296     0.0342     0.9570     0.2340     1.6325     2.7734   374.4000     1.2581     0.5765
 1172   23.420   2340.42     1.2433     0.0338     0.9644     0.2342     1.6467     2.7328   374.7200     1.2720     0.5711
 1173   23.440   2341.26     1.2163     0.0337     0.9720     0.2344     1.6237     2.7565   375.0400     1.2486     0.5891
 1174   23.460   2342.24     1.1836     0.0334     0.9766     0.2346     1.5937     2.8207   375.3600     1.2183     0.6090
 1175   23.480   2343.27     1.1756     0.0328     0.9864     0.2348     1.5886     2.7838   375.6800     1.2129     0.6171
 1176   23.500   2344.32     1.1725     0.0329     0.9939     0.2350     1.5886     2.8034   376.0000     1.2126     0.6232
 1177   23.520   2345.29     1.1795     0.0333     0.9917     0.2352     1.5965     2.8374   376.3200     1.2202     0.6210
 1178   23.540   2346.25     1.1894     0.0332     1.0071     0.2354     1.6092     2.7942   376.6400     1.2326     0.6199
 1179   23.560   2347.28     1.1861     0.0328     1.0108     0.2356     1.6109     2.7598   376.9600     1.2340     0.6288
 1180   23.580   2348.25     1.1969     0.0335     1.0181     0.2358     1.6232     2.8145   377.2800     1.2459     0.6254
 1181   23.600   2349.23     1.2210     0.0330     1.0294     0.2360     1.6517     2.7415   377.6000     1.2741     0.6196
 1182   23.620   2350.18     1.2623     0.0334     1.0422     0.2362     1.6977     2.6882   377.9200     1.3198     0.6066
 1183   23.640   2351.13     1.2615     0.0334     1.0392     0.2364     1.6988     2.6370   378.2400     1.3206     0.6095
 1184   23.660   2352.12     1.2639     0.0333     1.0279     0.2366     1.6956     2.6460   378.5600     1.3170     0.6008
 1185   23.680   2353.07     1.2386     0.0334     1.0287     0.2368     1.6722     2.6622   378.8800     1.2933     0.6151
 1186   23.700   2353.87     1.2225     0.0334     1.0142     0.2370     1.6491     2.7349   379.2000     1.2699     0.6133
 1187   23.720   2354.86     1.2043     0.0332     1.0320     0.2372     1.6354     2.7391   379.5200     1.2559     0.6285
 1188   23.740   2355.83     1.1609     0.0323     1.0313     0.2374     1.5957     2.7449   379.8400     1.2159     0.6563
 1189   23.760   2356.86     1.1294     0.0316     1.0163     0.2376     1.5586     2.7705   380.1600     1.1785     0.6656
 1190   23.780   2357.85     1.1248     0.0321     1.0053     0.2378     1.5477     2.8738   380.4800     1.1672     0.6590
 1191   23.800   2358.80     1.2381     0.0324     1.0013     0.2380     1.6599     2.7738   380.8000     1.2791     0.5997
 1192   23.820   2359.76     1.3653     0.0302     0.9680     0.2382     1.7781     2.2240   381.1200     1.3970     0.5334
 1193   23.840   2360.64     1.3913     0.0285     0.9155     0.2384     1.7828     2.0339   381.4400     1.4014     0.4951
 1194   23.860   2361.60     1.2791     0.0294     0.9066     0.2386     1.6588     2.2625   381.7600     1.2771     0.5213
 1195   23.880   2362.55     1.1682     0.0322     0.9272     0.2388     1.5525     2.6839   382.0800     1.1704     0.5778
 1196   23.900   2363.42     1.1108     0.0346     0.9537     0.2390     1.5091     3.0780   382.4000     1.1267     0.6298
 1197   23.920   2364.35     1.0915     0.0337     0.9599     0.2392     1.4938     3.0864   382.7200     1.1111     0.6469
 1198   23.940   2365.25     1.0871     0.0325     0.9612     0.2394     1.4910     2.9874   383.0400     1.1079     0.6519
 1199   23.960   2367.82     1.0891     0.0317     0.9596     0.2396     1.4928     2.9202   383.3600     1.1095     0.6505
 1200   23.980   2393.43     1.1252     0.0312     0.9550     0.2398     1.5270     2.8693   383.6800     1.1433     0.6275
 1201   24.000   2412.35     1.1551     0.0299     0.9767     0.2400     1.5610     2.6720   384.0000     1.1770     0.6173
 1202   24.020   2413.36     1.1756     0.0281     0.9726     0.2402     1.5871     2.4024   384.3200     1.2028     0.6149
 1203   24.040   2414.38     1.1712     0.0254     0.9604     0.2404     1.5761     2.1385   384.6400     1.1914     0.6074
 1204   24.060   2415.31     1.1707     0.0225     0.9427     0.2406     1.5696     1.9034   384.9600     1.1846     0.5987
 1205   24.080   2416.36     1.1751     0.0200     0.9245     0.2408     1.5648     1.7026   385.2800     1.1795     0.5825
 1206   24.100   2417.40     1.1767     0.0190     0.9220     0.2410     1.5647     1.6156   385.6000     1.1791     0.5790
 1207   24.120   2418.31     1.2203     0.0225     0.9186     0.2412     1.6066     1.8727   385.9200     1.2207     0.5561
 1208   24.140   2419.17     1.4436     0.0269     0.8783     0.2414     1.8223     1.9684   386.2400     1.4361     0.4619
 1209   24.160   2422.44     1.9742     0.0259     0.6066     0.2416     2.2687     1.6562   386.5600     1.8822     0.2832
 1210   24.180   2427.03     2.6108     0.0242     0.4095     0.2418     2.7901     1.5480   386.8800     2.4033     0.0844
 1211   24.200   2428.32     2.4926     0.0256     0.4552     0.2420     2.6771     0.9984   387.2000     2.2899     0.0863
 1212   24.220   2429.27     2.2082     0.0248     0.5027     0.2422     2.4123     1.0676   387.5200     2.0248     0.1208
 1213   24.240   2430.13     1.9116     0.0262     0.5526     0.2424     2.1370     1.3245   387.8400     1.7491     0.1685
 1214   24.260   2431.13     1.6442     0.0257     0.6186     0.2426     1.8961     1.5050   388.1600     1.5079     0.2373
 1215   24.280   2432.06     1.5111     0.0252     0.6612     0.2428     1.7820     1.6502   388.4800     1.3935     0.2885
 1216   24.300   2433.11     1.5709     0.0238     0.7051     0.2430     1.8632     1.5522   388.8000     1.4744     0.3073
 1217   24.320   2434.06     1.7863     0.0239     0.7114     0.2432     2.0860     1.4247   389.1200     1.6968     0.2773
 1218   24.340   2435.02     1.9560     0.0234     0.6990     0.2434     2.2523     1.2395   389.4400     1.8628     0.2481
 1219   24.360   2436.02     2.0603     0.0241     0.6970     0.2436     2.3521     1.1840   389.7600     1.9623     0.2300
 1220   24.380   2436.93     2.0815     0.0240     0.7245     0.2438     2.3813     1.1528   390.0800     1.9912     0.2360
 1221   24.400   2437.92     2.1931     0.0273     0.7454     0.2440     2.5061     1.2835   390.4000     2.1157     0.2369
 1222   24.420   2438.75     2.3456     0.0294     0.7323     0.2442     2.6558     1.2838   390.7200     2.2651     0.2183
 1223   24.440   2439.77     2.4381     0.0266     0.7104     0.2444     2.7389     1.0996   391.0400     2.3479     0.2010
 1224   24.460   2440.68     2.4878     0.0243     0.6753     0.2446     2.7758     0.9806   391.3600     2.3844     0.1850
 1225   24.480   2441.60     2.3854     0.0251     0.6459     0.2448     2.6603     1.0358   391.6800     2.2686     0.1807
 1226   24.500   2442.70     2.1262     0.0249     0.7323     0.2450     2.4182     1.1458   392.0000     2.0262     0.2220
 1227   24.520   2443.63     2.3946     0.0232     0.7931     0.2452     2.7212     1.0430   392.3200     2.3288     0.2289
 1228   24.540   2444.57     3.0390     0.0307     0.8459     0.2454     3.3966     1.1045   392.6400     3.0039     0.2023
 1229   24.560   2445.45     3.8244     0.0428     0.7972     0.2456     4.1661     1.1991   392.9600     3.7731     0.1508
 1230   24.580   2446.49     4.6239     0.0413     0.7876     0.2458     4.9475     0.9371   393.2800     4.5542     0.1152
 1231   24.600   2447.45     5.1279     0.0348     0.8227     0.2460     5.4776     0.7080   393.6000     5.0840     0.1154
 1232   24.620   2448.37     6.3648     0.0307     0.6837     0.2462     6.6794     0.5082   393.9200     6.2855     0.0805
 1233   24.640   2449.33     8.0149     0.0352     0.4565     0.2464     8.2411     0.4700   394.2400     7.8469     0.0376
 1234   24.660   2450.29     9.3312     0.0353     0.1177     0.2466     9.4346     0.4031   394.5600     9.0401     0.0003
 1235   24.680   2451.32     9.8432     0.0377    -0.0235     0.2468     9.8390     0.3859   394.8800     9.4441    -0.0272
 1236   24.700   2452.23     9.7817     0.0398    -0.0454     0.2470     9.7656     0.4058   395.2000     9.3704    -0.0305
 1237   24.720   2453.26     9.5687     0.0431    -0.0252     0.2472     9.5550     0.4450   395.5200     9.1594    -0.0306
 1238   24.740   2454.18     9.2123     0.0389    -0.0153     0.2474     9.2031     0.4124   395.8400     8.8072    -0.0306
 1239   24.760   2455.01     8.9372     0.0328     0.0182     0.2476     8.9398     0.3628   396.1600     8.5436    -0.0283
 1240   24.780   2455.88     8.7893     0.0294     0.0646     0.2478     8.8087     0.3318   396.4800     8.4122    -0.0240
 1241   24.800   2456.85     8.5970     0.0286     0.0814     0.2480     8.6327     0.3320   396.8000     8.2359    -0.0198
 1242   24.820   2457.82     7.9533     0.0226     0.0183     0.2482     7.9722     0.2714   397.1200     7.5751    -0.0269
 1243   24.840   2458.86     6.9979     0.0271     0.0350     0.2484     7.0053     0.3701   397.4400     6.6079    -0.0349
 1244   24.860   2459.69     6.1963     0.0344     0.0922     0.2486     6.2275     0.5244   397.7600     5.8298    -0.0299
 1245   24.880   2460.49     5.5285     0.0198     0.1718     0.2488     5.5868     0.3491   398.0800     5.1887    -0.0212
 1246   24.900   2461.42     5.0805     0.0162     0.2137     0.2490     5.1631     0.3174   398.4000     4.7647    -0.0110
 1247   24.920   2462.42     5.6094     0.0159     0.2428     0.2492     5.7118     0.2914   398.7200     5.3131    -0.0010
 1248   24.940   2463.41     7.1132     0.0173     0.2236     0.2494     7.2091     0.2617   399.0400     6.8101    -0.0031
 1249   24.960   2464.49     8.3044     0.0229     0.1575     0.2496     8.3827     0.2811   399.3600     7.9833    -0.0079
 1250   24.980   2465.44     8.4484     0.0308     0.1504     0.2498     8.5085     0.3653   399.6800     8.1089    -0.0131
 1251   25.000   2466.45     8.0255     0.0437     0.1570     0.2500     8.0862     0.5282   400.0000     7.6862    -0.0137
 1252   25.020   2467.41     7.5855     0.0449     0.1811     0.2502     7.6574     0.5778   400.3200     7.2571    -0.0109
 1253   25.040   2468.29     7.5566     0.0510     0.2258     0.2504     7.6443     0.6790   400.6400     7.2437    -0.0058
 1254   25.060   2469.09     7.8412     0.0530     0.2888     0.2506     7.9521     0.6793   400.9600     7.5512     0.0018
 1255   25.080   2470.01     8.2536     0.0530     0.3033     0.2508     8.3892     0.6430   401.2800     7.9879     0.0090
 1256   25.100   2471.01     8.9252     0.0640     0.2654     0.2510     9.0410     0.7353   401.6000     8.6394     0.0029
 1257   25.120   2472.01    10.6913     0.0583     0.1840     0.2512    10.7836     0.5541   401.9200    10.3816    -0.0030
 1258   25.140   2472.97    13.6784                0.1557     0.2514    13.7590              402.2400    13.3568    -0.0045
 1259   25.160   2474.91    17.0817                0.0459     0.2516    17.1162              402.5600    16.7137    -0.0096
 1260   25.180   2478.32    20.8236               -0.0596     0.2518    20.8138              402.8800    20.4110    -0.0127
 1261   25.200   2481.85    24.8905               -0.1372     0.2520    24.8353              403.2000    24.4321    -0.0157
 1262   25.220   2511.91    27.6472               -0.0517     0.2522    27.6131              403.5200    27.2096    -0.0127
 1263   25.240   2545.99    31.0255                           0.2524    30.9982              403.8400    30.5944    -0.0104
 
 
