

 Program UNIPLOT                         version 05.36.02
 _______________
 (c) Fugro Netherlands Marine, Nootdorp, The Netherlands


 ASCII representation of data plotted on a graph.

 This ASCII file presents data interpolated to values per fixed depth interval.
 The data are corrected for the depth-offset differences between the various 
 transducers in the penetrometer.

 The records at the start of penetration may include no values or anomalous
 values where a depth offset implies incomplete penetration of a particular
 sensor into the ground.

 The records at the end of penetration may include no values for data channels
 where the transducer did not reach this depth.

 The reference level for test values is (1) the ground surface for onshore tests and (2) the seafloor for nearshore and offshore tests.

 UNICAS data file          : CPT-2010.000                            
 Output using command file : PlotASCII.cmd

 ASCII file created at : date          :14-Jul-2022
                         time          :13:57:26
 Project number                        :20024805                                                                                            
 Date of testing                       :11-Jul-2022                                                                                         
 Location                              :Hong Kong Offshore Wind Farm Project                                                                
 Test name                             :CPT-2010
 Penetrometer                          :F7.5CKE2HAW2/B/3285
 Serial no                             :1701-3285

 Table description:
 Column ID                             :Parameter name
 ___________________________________________________________________________________
 Rec                                   :Record ID, Record ID [-]
 Depth                                 :Depth, Depth [m]
 Time                                  :Time, Time [s]
 Cone                                  :Cone Resistance, Cone Resistance [MPa]
 Friction                              :Sleeve Friction, Sleeve Friction [MPa]
 Pore 2                                :Porewater Pressure, Porewater Pressure at Shoulder [MPa]
 HydroPress                            :Hydrostatic Pressure, Hydrostatic Pressure [MPa]
 qt                                    :Total Cone Resistance, Total Cone Resistance [MPa]
 Fric_ratio                            :Friction Ratio, Friction Ratio [%]
 SigmaVert                             :Vertical stress, Vertical stress [kPa] as specified in ground model
 Qnet                                  :Net Cone Resistance, Net Cone Resistance [MPa], unit weight as specified in ground model
 Bq                                    :Porewater Pressure Ratio, Porewater Pressure Ratio [-], unit weight as specified in ground model


 Data table:
  Rec    Depth      Time       Cone   Friction     Pore 2 HydroPress         qt Fric_ratio  SigmaVert       Qnet         Bq
   No        m         s        MPa        MPa        MPa        MPa        MPa          %        kPa        MPa          -
    1    0.000   2661.22     0.0000                           0.0000     0.0000                0.0000     0.0000           
    2    0.020   2816.12     0.0040                0.0014     0.0002     0.0045                0.3200     0.0042     0.2811
    3    0.040   2817.21     0.0066                0.0016     0.0004     0.0073                0.6400     0.0067     0.2024
    4    0.060   2818.10     0.0120     0.0007     0.0018     0.0006     0.0127     5.9622     0.9600     0.0117     0.0883
    5    0.080   2819.03     0.0120     0.0010     0.0020     0.0008     0.0129     8.2743     1.2800     0.0116     0.0994
    6    0.100   2819.93     0.0149     0.0007     0.0017     0.0010     0.0157     4.4708     1.6000     0.0141     0.0662
    7    0.120   2820.87     0.0149     0.0011     0.0006     0.0012     0.0153     7.3336     1.9200     0.0134    -0.0136
    8    0.140   2821.76     0.0144     0.0014     0.0001     0.0014     0.0145    10.0221     2.2400     0.0122    -0.0992
    9    0.160   2822.69     0.0142     0.0014    -0.0012     0.0016     0.0138     9.9466     2.5600     0.0113    -0.2288
   10    0.180   2823.64     0.0112     0.0016    -0.0024     0.0018     0.0103    13.6244     2.8800     0.0074    -0.5574
   11    0.200   2824.56     0.0133     0.0014    -0.0026     0.0020     0.0121    12.2407     3.2000     0.0089    -0.5773
   12    0.220   2825.48     0.0106     0.0013    -0.0014     0.0022     0.0099    11.6189     3.5200     0.0063    -0.6409
   13    0.240   2826.40     0.0120     0.0010     0.0002     0.0024     0.0118     8.6414     3.8400     0.0079    -0.3710
   14    0.260   2827.27     0.0111     0.0010     0.0011     0.0026     0.0112     8.8771     4.1600     0.0070    -0.3483
   15    0.280   2828.17     0.0059     0.0011     0.0027     0.0028     0.0069     9.7877     4.4800     0.0024    -0.1136
   16    0.300   2829.08     0.0081     0.0012     0.0035     0.0030     0.0094    11.2674     4.8000     0.0046     0.0494
   17    0.320   2829.99     0.0082     0.0013     0.0042     0.0032     0.0099    12.7471     5.1200     0.0048     0.1661
   18    0.340   2830.91     0.0106     0.0014     0.0042     0.0034     0.0124    14.2269     5.4400     0.0070     0.1161
   19    0.360   2831.82     0.0074     0.0015     0.0048     0.0036     0.0093    21.0727     5.7600     0.0036     0.3356
   20    0.380   2834.95     0.0140     0.0017     0.0060     0.0038     0.0165    14.8348     6.0800     0.0104     0.2918
   21    0.400   2845.71     0.0371     0.0016     0.0065     0.0040     0.0397    17.1085     6.4000     0.0333     0.2169
   22    0.420   2856.46     0.0601     0.0020     0.0069     0.0042     0.0630    21.5759     6.7200     0.0562     0.1420
   23    0.440   2867.22     0.0832     0.0021     0.0073     0.0044     0.0862    23.0058     7.0400     0.0791     0.0671
   24    0.460   2872.71     0.1516     0.0021     0.0053     0.0046     0.1541     1.5036     7.3600     0.1467     0.0091
   25    0.480   2873.58     0.2098     0.0026     0.0000     0.0048     0.2108     1.2894     7.6800     0.2031    -0.0118
   26    0.500   2874.53     0.2532     0.0032    -0.0152     0.0050     0.2492     1.5061     8.0000     0.2412    -0.0595
   27    0.520   2875.46     0.2582     0.0038    -0.0302     0.0052     0.2486     1.7227     8.3200     0.2402    -0.1175
   28    0.540   2876.36     0.2364     0.0045    -0.0297     0.0054     0.2213     1.9393     8.6400     0.2127    -0.1948
   29    0.560   2877.28     0.2336     0.0051    -0.0373     0.0056     0.2165     2.1559     8.9600     0.2076    -0.2234
   30    0.580   2878.16     0.2495     0.0052    -0.0470     0.0058     0.2299     2.4401     9.2800     0.2207    -0.2374
   31    0.600   2884.94     0.2431     0.0057    -0.0467     0.0060     0.2235     2.2408     9.6000     0.2139    -0.2487
   32    0.620   2891.88     0.2338     0.0057    -0.0463     0.0062     0.2143     2.2443     9.9200     0.2044    -0.2604
   33    0.640   2898.82     0.2245     0.0055    -0.0460     0.0064     0.2051     2.1694    10.2400     0.1949    -0.2722
   34    0.660   2905.75     0.2152     0.0044    -0.0456     0.0066     0.1959     1.7463    10.5600     0.1854    -0.2840
   35    0.680   2910.55     0.2047     0.0033    -0.0364     0.0068     0.1877     1.5954    10.8800     0.1768    -0.2671
   36    0.700   2911.44     0.1857     0.0027    -0.0525     0.0070     0.1685     1.4260    11.2000     0.1573    -0.3083
   37    0.720   2912.34     0.1656     0.0028    -0.0815     0.0072     0.1332     1.6338    11.5200     0.1217    -0.7098
   38    0.740   2913.29     0.0980     0.0027    -0.0808     0.0074     0.0644     2.5245    11.8400     0.0526    -1.8348
   39    0.760   2914.22     0.0492     0.0026    -0.0602     0.0076     0.0211     4.7675    12.1600     0.0090   -17.2423
   40    0.780   2915.16     0.0320     0.0021    -0.0432     0.0078     0.0120     6.2164    12.4800    -0.0005    63.4306
   41    0.800   2916.07     0.0262     0.0012    -0.0322     0.0080     0.0112     4.2692    12.8000    -0.0016    -0.6644
   42    0.820   2916.96     0.0253     0.0013    -0.0232     0.0082     0.0143     5.0217    13.1200     0.0012   -30.0102
   43    0.840   2917.86     0.0269     0.0011    -0.0160     0.0084     0.0193     4.2479    13.4400     0.0058    -4.7780
   44    0.860   2918.73     0.0258     0.0011    -0.0100     0.0086     0.0208     4.2690    13.7600     0.0070    -2.9020
   45    0.880   2919.61     0.0241     0.0014    -0.0050     0.0088     0.0213     5.6564    14.0800     0.0072    -2.1583
   46    0.900   2920.56     0.0262     0.0014    -0.0004     0.0090     0.0254     5.2902    14.4000     0.0110    -0.9945
   47    0.920   2921.48     0.0279     0.0013     0.0030     0.0092     0.0286     4.4238    14.7200     0.0139    -0.5376
   48    0.940   2923.87     0.0292     0.0017     0.0084     0.0094     0.0320     6.7198    15.0400     0.0170    -0.1604
   49    0.960   2927.43     0.0290     0.0017     0.0127     0.0096     0.0337     6.7756    15.3600     0.0184     0.0729
   50    0.980   2930.05     0.0287     0.0017     0.0149     0.0098     0.0347     5.8921    15.6800     0.0191     0.2413
   51    1.000   2930.96     0.0302     0.0015     0.0163     0.0100     0.0369     4.9427    16.0000     0.0209     0.2863
   52    1.020   2931.83     0.0290     0.0019     0.0166     0.0102     0.0358     6.8414    16.3200     0.0195     0.3094
   53    1.040   2932.82     0.0283     0.0017     0.0176     0.0104     0.0356     5.9512    16.6400     0.0189     0.3590
   54    1.060   2933.70     0.0317     0.0019     0.0182     0.0106     0.0392     6.1178    16.9600     0.0222     0.3267
   55    1.080   2934.61     0.0339     0.0019     0.0194     0.0108     0.0419     5.7883    17.2800     0.0246     0.3346
   56    1.100   2935.51     0.0341     0.0019     0.0203     0.0110     0.0426     5.9315    17.6000     0.0250     0.3730
   57    1.120   2936.39     0.0365     0.0020     0.0210     0.0112     0.0453     5.4072    17.9200     0.0274     0.3509
   58    1.140   2937.26     0.0369     0.0020     0.0216     0.0114     0.0459     5.4267    18.2400     0.0277     0.3624
   59    1.160   2938.18     0.0384     0.0023     0.0221     0.0116     0.0476     6.0984    18.5600     0.0291     0.3560
   60    1.180   2939.13     0.0379     0.0022     0.0216     0.0118     0.0471     5.7956    18.8800     0.0282     0.3612
   61    1.200   2940.03     0.0366     0.0018     0.0211     0.0120     0.0454     4.8789    19.2000     0.0262     0.3459
   62    1.220   2940.93     0.0359     0.0023     0.0216     0.0122     0.0449     6.5567    19.5200     0.0254     0.3644
   63    1.240   2941.85     0.0407     0.0025     0.0234     0.0124     0.0504     6.0304    19.8400     0.0305     0.3472
   64    1.260   2942.78     0.0425     0.0025     0.0233     0.0126     0.0524     5.9856    20.1600     0.0322     0.3418
   65    1.280   2943.68     0.0464     0.0025     0.0232     0.0128     0.0561     5.5434    20.4800     0.0356     0.2850
   66    1.300   2944.59     0.0482     0.0027     0.0232     0.0130     0.0579     5.8279    20.8000     0.0371     0.2777
   67    1.320   2945.47     0.0513     0.0027     0.0224     0.0132     0.0608     5.1717    21.1200     0.0397     0.2410
   68    1.340   2946.37     0.0483     0.0027     0.0209     0.0134     0.0573     5.5625    21.4400     0.0358     0.2209
   69    1.360   2947.29     0.0511     0.0031     0.0201     0.0136     0.0594     6.0840    21.7600     0.0377     0.1639
   70    1.380   2948.21     0.0495     0.0027     0.0218     0.0138     0.0583     5.4087    22.0800     0.0363     0.2009
   71    1.400   2949.11     0.0472     0.0026     0.0225     0.0140     0.0566     5.5737    22.4000     0.0342     0.2434
   72    1.420   2950.04     0.0449     0.0025     0.0227     0.0142     0.0544     5.5655    22.7200     0.0317     0.2660
   73    1.440   2950.91     0.0434     0.0025     0.0243     0.0144     0.0533     5.8535    23.0400     0.0302     0.3041
   74    1.460   2951.80     0.0464     0.0024     0.0266     0.0146     0.0573     5.1224    23.3600     0.0340     0.3352
   75    1.480   2952.71     0.0457     0.0023     0.0286     0.0148     0.0574     5.1781    23.6800     0.0337     0.3876
   76    1.500   2953.62     0.0520     0.0022     0.0305     0.0150     0.0645     4.3174    24.0000     0.0405     0.3660
   77    1.520   2954.54     0.0546     0.0023     0.0323     0.0152     0.0679     4.2337    24.3200     0.0436     0.3804
   78    1.540   2955.45     0.0556     0.0026     0.0306     0.0154     0.0690     4.7176    24.6400     0.0443     0.3712
   79    1.560   2956.32     0.0578     0.0023     0.0275     0.0156     0.0694     3.9716    24.9600     0.0445     0.2729
   80    1.580   2957.24     0.0540     0.0026     0.0277     0.0158     0.0657     4.8713    25.2800     0.0404     0.2953
   81    1.600   2958.17     0.0574     0.0029     0.0294     0.0160     0.0694     5.0559    25.6000     0.0438     0.2879
   82    1.620   2959.07     0.0613     0.0030     0.0307     0.0162     0.0741     4.9095    25.9200     0.0481     0.2934
   83    1.640   2959.99     0.0659     0.0029     0.0297     0.0164     0.0787     4.4020    26.2400     0.0524     0.2670
   84    1.660   2960.87     0.0669     0.0030     0.0306     0.0166     0.0797     4.5290    26.5600     0.0531     0.2596
   85    1.680   2961.78     0.0684     0.0036     0.0289     0.0168     0.0812     5.3068    26.8800     0.0544     0.2526
   86    1.700   2962.69     0.0706     0.0039     0.0323     0.0170     0.0833     5.5700    27.2000     0.0561     0.2342
   87    1.720   2963.64     0.0711     0.0038     0.0361     0.0172     0.0858     5.3969    27.5200     0.0582     0.3051
   88    1.740   2964.58     0.0712     0.0038     0.0371     0.0174     0.0867     5.2960    27.8400     0.0589     0.3326
   89    1.760   2983.47     0.0743     0.0038     0.0367     0.0176     0.0898     5.1740    28.1600     0.0616     0.3157
   90    1.780   3046.86     0.0779     0.0044     0.0356     0.0178     0.0930     5.9949    28.4800     0.0645     0.2836
   91    1.800   3100.83     0.0801     0.0043     0.0335     0.0180     0.0947     5.3592    28.8000     0.0659     0.2522
   92    1.820   3101.73     0.0780     0.0040     0.0338     0.0182     0.0916     5.1333    29.1200     0.0625     0.2268
   93    1.840   3102.65     0.0781     0.0040     0.0328     0.0184     0.0922     5.1284    29.4400     0.0628     0.2424
   94    1.860   3103.57     0.0801     0.0038     0.0347     0.0186     0.0940     4.7816    29.7600     0.0643     0.2273
   95    1.880   3104.47     0.0780     0.0039     0.0412     0.0188     0.0943     4.9832    30.0800     0.0642     0.3105
   96    1.900   3105.37     0.0815     0.0040     0.0464     0.0190     0.1003     4.9394    30.4000     0.0699     0.3709
   97    1.920   3106.24     0.0790     0.0039     0.0479     0.0192     0.0993     4.8726    30.7200     0.0685     0.4235
   98    1.940   3107.17     0.0812     0.0036     0.0474     0.0194     0.1011     4.4037    31.0400     0.0701     0.4013
   99    1.960   3108.07     0.0784     0.0038     0.0495     0.0196     0.0988     4.8398    31.3600     0.0674     0.4270
  100    1.980   3108.95     0.0779     0.0034     0.0537     0.0198     0.0999     4.3747    31.6800     0.0682     0.4769
  101    2.000   3109.85     0.0759     0.0035     0.0567     0.0200     0.0993     4.5718    32.0000     0.0673     0.5316
  102    2.020   3110.73     0.0767     0.0035     0.0595     0.0202     0.1014     4.5884    32.3200     0.0691     0.5588
  103    2.040   3111.60     0.0763     0.0035     0.0610     0.0204     0.1019     4.5754    32.6400     0.0693     0.5846
  104    2.060   3112.53     0.0755     0.0032     0.0626     0.0206     0.1014     4.1986    32.9600     0.0684     0.6009
  105    2.080   3113.40     0.0764     0.0033     0.0635     0.0208     0.1031     4.2929    33.2800     0.0698     0.6125
  106    2.100   3114.34     0.0772     0.0033     0.0640     0.0210     0.1039     4.2849    33.6000     0.0703     0.6032
  107    2.120   3115.23     0.0792     0.0034     0.0657     0.0212     0.1067     4.2949    33.9200     0.0728     0.6072
  108    2.140   3116.14     0.0820     0.0035     0.0645     0.0214     0.1093     4.3595    34.2400     0.0750     0.5800
  109    2.160   3117.04     0.0856     0.0037     0.0625     0.0216     0.1121     4.3952    34.5600     0.0776     0.5351
  110    2.180   3117.92     0.0867     0.0038     0.0619     0.0218     0.1128     4.4118    34.8800     0.0780     0.5197
  111    2.200   3118.83     0.0844     0.0040     0.0620     0.0220     0.1102     4.7549    35.2000     0.0750     0.5250
  112    2.220   3119.75     0.0882     0.0039     0.0638     0.0222     0.1147     4.4004    35.5200     0.0792     0.5172
  113    2.240   3120.69     0.0842     0.0037     0.0665     0.0224     0.1120     4.4194    35.8400     0.0761     0.5732
  114    2.260   3121.61     0.0874     0.0039     0.0674     0.0226     0.1157     4.4243    36.1600     0.0795     0.5636
  115    2.280   3122.53     0.0902     0.0041     0.0673     0.0228     0.1185     4.5581    36.4800     0.0820     0.5420
  116    2.300   3123.39     0.0873     0.0038     0.0678     0.0230     0.1157     4.3873    36.8000     0.0789     0.5637
  117    2.320   3124.27     0.0920     0.0044     0.0677     0.0232     0.1205     4.7558    37.1200     0.0834     0.5359
  118    2.340   3125.19     0.0934     0.0041     0.0688     0.0234     0.1224     4.4280    37.4400     0.0850     0.5395
  119    2.360   3126.14     0.0973     0.0042     0.0696     0.0236     0.1264     4.3227    37.7600     0.0886     0.5147
  120    2.380   3127.03     0.0957     0.0043     0.0690     0.0238     0.1249     4.5239    38.0800     0.0869     0.5269
  121    2.400   3127.92     0.0959     0.0038     0.0682     0.0240     0.1245     3.9727    38.4000     0.0861     0.5104
  122    2.420   3128.82     0.0960     0.0044     0.0702     0.0242     0.1251     4.5724    38.7200     0.0864     0.5226
  123    2.440   3129.68     0.0977     0.0045     0.0715     0.0244     0.1276     4.6442    39.0400     0.0886     0.5292
  124    2.460   3130.59     0.0969     0.0044     0.0698     0.0246     0.1265     4.4959    39.3600     0.0872     0.5264
  125    2.480   3131.48     0.0946     0.0046     0.0694     0.0248     0.1238     4.7313    39.6800     0.0841     0.5322
  126    2.500   3132.40     0.0963     0.0046     0.0674     0.0250     0.1250     4.8216    40.0000     0.0850     0.5088
  127    2.520   3133.32     0.0929     0.0044     0.0684     0.0252     0.1214     4.7173    40.3200     0.0810     0.5249
  128    2.540   3134.18     0.0961     0.0043     0.0687     0.0254     0.1249     4.5381    40.6400     0.0843     0.5148
  129    2.560   3135.06     0.0928     0.0044     0.0670     0.0256     0.1212     4.7243    40.9600     0.0803     0.5239
  130    2.580   3136.01     0.0909     0.0043     0.0662     0.0258     0.1188     4.7353    41.2800     0.0775     0.5241
  131    2.600   3136.89     0.0905     0.0044     0.0645     0.0260     0.1180     4.8114    41.6000     0.0764     0.5181
  132    2.620   3137.82     0.0900     0.0041     0.0631     0.0262     0.1164     4.5509    41.9200     0.0745     0.4927
  133    2.640   3138.68     0.0871     0.0042     0.0640     0.0264     0.1140     4.8518    42.2400     0.0718     0.5238
  134    2.660   3139.64     0.0786     0.0042     0.0647     0.0266     0.1054     5.3169    42.5600     0.0628     0.5925
  135    2.680   3140.52     0.0779     0.0043     0.0666     0.0268     0.1056     5.5825    42.8800     0.0628     0.6271
  136    2.700   3141.43     0.0850     0.0040     0.0683     0.0270     0.1136     4.7492    43.2000     0.0704     0.5840
  137    2.720   3142.36     0.0919     0.0042     0.0669     0.0272     0.1209     4.6170    43.5200     0.0774     0.5416
  138    2.740   3143.27     0.0975     0.0043     0.0675     0.0274     0.1261     4.4140    43.8400     0.0823     0.4940
  139    2.760   3144.17     0.1055     0.0043     0.0655     0.0276     0.1330     4.1367    44.1600     0.0888     0.4254
  140    2.780   3145.06     0.1076     0.0043     0.0669     0.0278     0.1357     3.9629    44.4800     0.0912     0.4283
  141    2.800   3145.94     0.1118     0.0044     0.0651     0.0280     0.1392     3.9591    44.8000     0.0944     0.3943
  142    2.820   3146.87     0.1188     0.0041     0.0646     0.0282     0.1460     3.5353    45.1200     0.1009     0.3629
  143    2.840   3147.80     0.1286     0.0047     0.0666     0.0284     0.1561     3.7171    45.4400     0.1107     0.3366
  144    2.860   3148.68     0.1410     0.0054     0.0637     0.0286     0.1683     3.9020    45.7600     0.1225     0.2972
  145    2.880   3149.60     0.1549     0.0056     0.0639     0.0288     0.1820     3.6726    46.0800     0.1359     0.2616
  146    2.900   3150.47     0.1524     0.0055     0.0556     0.0290     0.1776     3.5759    46.4000     0.1312     0.2351
  147    2.920   3151.37     0.1550     0.0056     0.0295     0.0292     0.1702     3.5837    46.7200     0.1235     0.0568
  148    2.940   3152.29     0.1448     0.0053     0.0357     0.0294     0.1591     3.5874    47.0400     0.1120     0.0416
  149    2.960   3153.22     0.1218     0.0056     0.0414     0.0296     0.1384     4.4493    47.3600     0.0911     0.1098
  150    2.980   3154.13     0.1106     0.0054     0.0492     0.0298     0.1300     4.7835    47.6800     0.0824     0.2005
  151    3.000   3155.00     0.1005     0.0049     0.0559     0.0300     0.1232     4.8669    48.0000     0.0752     0.3199
  152    3.020   3155.89     0.0978     0.0052     0.0601     0.0302     0.1227     5.2664    48.3200     0.0744     0.3900
  153    3.040   3156.78     0.0940     0.0048     0.0630     0.0304     0.1198     5.1400    48.6400     0.0712     0.4351
  154    3.060   3157.70     0.0894     0.0048     0.0685     0.0306     0.1176     5.3125    48.9600     0.0686     0.5304
  155    3.080   3158.61     0.0862     0.0047     0.0704     0.0308     0.1158     5.5121    49.2800     0.0665     0.5966
  156    3.100   3159.52     0.0851     0.0043     0.0705     0.0310     0.1146     5.0792    49.6000     0.0650     0.6027
  157    3.120   3160.42     0.0815     0.0039     0.0735     0.0312     0.1119     4.7734    49.9200     0.0620     0.6645
  158    3.140   3161.33     0.0770     0.0036     0.0774     0.0314     0.1091     4.6919    50.2400     0.0589     0.7660
  159    3.160   3162.23     0.0714     0.0032     0.0773     0.0316     0.1037     4.5310    50.5600     0.0531     0.8525
  160    3.180   3163.16     0.0688     0.0033     0.0801     0.0318     0.1021     4.7097    50.8800     0.0512     0.9251
  161    3.200   3164.10     0.0676     0.0033     0.0813     0.0320     0.1016     4.7885    51.2000     0.0504     0.9742
  162    3.220   3165.01     0.0686     0.0033     0.0821     0.0322     0.1029     4.7169    51.5200     0.0514     0.9621
  163    3.240   3165.95     0.0694     0.0031     0.0865     0.0324     0.1049     4.4670    51.8400     0.0530     0.9833
  164    3.260   3166.84     0.0709     0.0031     0.0901     0.0326     0.1082     4.4248    52.1600     0.0561     1.0045
  165    3.280   3167.71     0.0762     0.0031     0.0934     0.0328     0.1148     4.0600    52.4800     0.0624     0.9491
  166    3.300   3169.67     0.0847     0.0031     0.0930     0.0330     0.1240     3.8353    52.8000     0.0712     0.8668
  167    3.320   3172.90     0.0962     0.0038     0.0914     0.0332     0.1348     4.7431    53.1200     0.0817     0.7431
  168    3.340   3176.14     0.1077     0.0037     0.0909     0.0334     0.1456     3.7758    53.4400     0.0922     0.6193
  169    3.360   3177.14     0.1166     0.0040     0.0914     0.0336     0.1548     3.4475    53.7600     0.1010     0.5683
  170    3.380   3178.05     0.1211     0.0044     0.0936     0.0338     0.1603     3.6203    54.0800     0.1062     0.5609
  171    3.400   3178.96     0.1309     0.0048     0.0854     0.0340     0.1682     3.7109    54.4000     0.1138     0.4813
  172    3.420   3179.88     0.1328     0.0051     0.0826     0.0342     0.1674     3.8213    54.7200     0.1127     0.4277
  173    3.440   3180.77     0.1291     0.0058     0.0791     0.0344     0.1629     4.5235    55.0400     0.1079     0.4285
  174    3.460   3181.63     0.1285     0.0058     0.0768     0.0346     0.1607     4.5309    55.3600     0.1054     0.4006
  175    3.480   3182.57     0.1263     0.0057     0.0783     0.0348     0.1589     4.5120    55.6800     0.1032     0.4148
  176    3.500   3183.47     0.1246     0.0054     0.0815     0.0350     0.1582     4.3080    56.0000     0.1022     0.4418
  177    3.520   3184.39     0.1206     0.0057     0.0844     0.0352     0.1556     4.6083    56.3200     0.0993     0.4867
  178    3.540   3185.30     0.1224     0.0060     0.0875     0.0354     0.1587     4.8742    56.6400     0.1021     0.5006
  179    3.560   3186.24     0.1222     0.0059     0.0881     0.0356     0.1593     4.9257    56.9600     0.1023     0.5160
  180    3.580   3187.11     0.1236     0.0058     0.0860     0.0358     0.1600     4.7580    57.2800     0.1027     0.4948
  181    3.600   3188.41     0.1290     0.0056     0.0842     0.0360     0.1650     4.4689    57.6000     0.1074     0.4619
  182    3.620   3214.43     0.1366     0.0056     0.0768     0.0362     0.1699     4.2953    57.9200     0.1120     0.3876
  183    3.640   3244.89     0.1435     0.0055     0.0726     0.0364     0.1738     3.9883    58.2400     0.1155     0.3084
  184    3.660   3247.10     0.1407     0.0054     0.0753     0.0366     0.1718     3.8368    58.5600     0.1133     0.3323
  185    3.680   3248.00     0.1405     0.0052     0.0767     0.0368     0.1727     3.7214    58.8800     0.1139     0.3503
  186    3.700   3248.91     0.1418     0.0050     0.0785     0.0370     0.1741     3.5478    59.2000     0.1149     0.3482
  187    3.720   3249.80     0.1399     0.0049     0.0748     0.0372     0.1724     3.4756    59.5200     0.1128     0.3561
  188    3.740   3250.70     0.1380     0.0053     0.0738     0.0374     0.1689     3.8475    59.8400     0.1091     0.3327
  189    3.760   3251.62     0.1376     0.0050     0.0724     0.0376     0.1681     3.6579    60.1600     0.1080     0.3256
  190    3.780   3252.51     0.1373     0.0054     0.0739     0.0378     0.1681     3.8741    60.4800     0.1077     0.3301
  191    3.800   3253.39     0.1343     0.0051     0.0735     0.0380     0.1651     3.7805    60.8000     0.1043     0.3378
  192    3.820   3254.27     0.1361     0.0049     0.0778     0.0382     0.1684     3.5990    61.1200     0.1073     0.3615
  193    3.840   3255.18     0.1344     0.0052     0.0815     0.0384     0.1680     3.8434    61.4400     0.1066     0.3917
  194    3.860   3256.13     0.1325     0.0053     0.0854     0.0386     0.1678     3.9441    61.7600     0.1060     0.4274
  195    3.880   3257.03     0.1271     0.0049     0.0893     0.0388     0.1641     3.8044    62.0800     0.1020     0.4820
  196    3.900   3257.93     0.1301     0.0055     0.0910     0.0390     0.1683     4.2113    62.4000     0.1059     0.4916
  197    3.920   3258.83     0.1320     0.0060     0.0953     0.0392     0.1716     4.6183    62.7200     0.1088     0.5045
  198    3.940   3259.65     0.1394     0.0058     0.0993     0.0394     0.1804     4.2632    63.0400     0.1173     0.4965
  199    3.960   3260.56     0.1441     0.0062     0.0941     0.0396     0.1852     4.4393    63.3600     0.1219     0.4786
  200    3.980   3261.48     0.1468     0.0064     0.0877     0.0398     0.1838     4.4290    63.6800     0.1201     0.4010
  201    4.000   3278.77     0.1494     0.0062     0.0882     0.0400     0.1864     4.1358    64.0000     0.1224     0.3923
  202    4.020   3301.25     0.1503     0.0059     0.0888     0.0402     0.1875     3.9559    64.3200     0.1232     0.3926
  203    4.040   3318.92     0.1538     0.0060     0.0907     0.0404     0.1915     3.9506    64.6400     0.1269     0.3885
  204    4.060   3319.86     0.1593     0.0051     0.0944     0.0406     0.1985     3.1810    64.9600     0.1336     0.3948
  205    4.080   3320.72     0.1639     0.0051     0.1009     0.0408     0.2053     3.1134    65.2800     0.1400     0.4123
  206    4.100   3321.61     0.1644     0.0053     0.1038     0.0410     0.2080     3.2530    65.6000     0.1424     0.4401
  207    4.120   3322.56     0.1793     0.0056     0.0999     0.0412     0.2218     3.1475    65.9200     0.1559     0.3854
  208    4.140   3323.44     0.1924     0.0059     0.0960     0.0414     0.2336     3.0521    66.2400     0.1674     0.3383
  209    4.160   3324.35     0.2053     0.0066     0.0899     0.0416     0.2443     3.2420    66.5600     0.1777     0.2882
  210    4.180   3325.27     0.2114     0.0072     0.0804     0.0418     0.2466     3.4009    66.8800     0.1798     0.2347
  211    4.200   3326.19     0.2132     0.0080     0.0733     0.0420     0.2446     3.7648    67.2000     0.1774     0.1843
  212    4.220   3327.10     0.2200     0.0086     0.0668     0.0422     0.2490     3.9416    67.5200     0.1815     0.1479
  213    4.240   3327.99     0.2176     0.0095     0.0641     0.0424     0.2446     4.3662    67.8400     0.1768     0.1244
  214    4.260   3328.88     0.2214     0.0094     0.0656     0.0426     0.2488     4.2587    68.1600     0.1807     0.1254
  215    4.280   3329.79     0.2138     0.0097     0.0639     0.0428     0.2414     4.5330    68.4800     0.1729     0.1329
  216    4.300   3330.71     0.2129     0.0095     0.0610     0.0430     0.2387     4.4680    68.8000     0.1699     0.1087
  217    4.320   3331.61     0.2094     0.0097     0.0599     0.0432     0.2347     4.6136    69.1200     0.1656     0.1027
  218    4.340   3332.53     0.2075     0.0097     0.0605     0.0434     0.2328     4.6832    69.4400     0.1633     0.1022
  219    4.360   3333.42     0.2057     0.0095     0.0628     0.0436     0.2316     4.6643    69.7600     0.1618     0.1118
  220    4.380   3334.33     0.2051     0.0090     0.0654     0.0438     0.2323     4.4015    70.0800     0.1622     0.1302
  221    4.400   3335.20     0.2059     0.0088     0.0681     0.0440     0.2342     4.2969    70.4000     0.1638     0.1420
  222    4.420   3336.12     0.2014     0.0088     0.0695     0.0442     0.2303     4.3516    70.7200     0.1596     0.1544
  223    4.440   3337.02     0.2003     0.0088     0.0735     0.0444     0.2304     4.4062    71.0400     0.1594     0.1721
  224    4.460   3337.92     0.1960     0.0085     0.0790     0.0446     0.2284     4.3414    71.3600     0.1570     0.2072
  225    4.480   3338.86     0.1924     0.0081     0.0842     0.0448     0.2273     4.2216    71.6800     0.1556     0.2449
  226    4.500   3339.74     0.1881     0.0070     0.0911     0.0450     0.2252     3.7158    72.0000     0.1532     0.2825
  227    4.520   3341.95     0.1839     0.0071     0.0991     0.0452     0.2244     3.7697    72.3200     0.1521     0.3370
  228    4.540   3344.15     0.1797     0.0069     0.1072     0.0454     0.2236     3.6916    72.6400     0.1509     0.3915
  229    4.560   3345.99     0.1761     0.0067     0.1111     0.0456     0.2225     3.8040    72.9600     0.1495     0.4341
  230    4.580   3346.91     0.1744     0.0063     0.1153     0.0458     0.2223     3.6055    73.2800     0.1490     0.4567
  231    4.600   3347.83     0.1704     0.0066     0.1165     0.0460     0.2192     3.8606    73.6000     0.1456     0.4815
  232    4.620   3348.75     0.1672     0.0065     0.1196     0.0462     0.2171     3.8804    73.9200     0.1431     0.5066
  233    4.640   3349.64     0.1722     0.0064     0.1212     0.0464     0.2228     3.7043    74.2400     0.1485     0.4991
  234    4.660   3350.54     0.1743     0.0065     0.1229     0.0466     0.2257     3.7495    74.5600     0.1511     0.5016
  235    4.680   3351.44     0.1764     0.0068     0.1213     0.0468     0.2278     3.8596    74.8800     0.1529     0.4937
  236    4.700   3352.36     0.1768     0.0066     0.1173     0.0470     0.2269     3.6979    75.2000     0.1517     0.4765
  237    4.720   3353.26     0.1713     0.0067     0.1134     0.0472     0.2193     3.9303    75.5200     0.1437     0.4655
  238    4.740   3354.20     0.1705     0.0067     0.1153     0.0474     0.2186     3.9400    75.8400     0.1427     0.4705
  239    4.760   3355.15     0.1656     0.0064     0.1143     0.0476     0.2141     3.8671    76.1600     0.1379     0.4915
  240    4.780   3356.05     0.1635     0.0065     0.1110     0.0478     0.2103     3.9616    76.4800     0.1339     0.4757
  241    4.800   3356.94     0.1635     0.0064     0.1150     0.0480     0.2111     3.9032    76.8000     0.1343     0.4868
  242    4.820   3357.85     0.1626     0.0060     0.1217     0.0482     0.2129     3.7173    77.1200     0.1358     0.5268
  243    4.840   3358.77     0.1659     0.0059     0.1260     0.0484     0.2183     3.5366    77.4400     0.1408     0.5422
  244    4.860   3359.65     0.1761     0.0061     0.1284     0.0486     0.2296     3.5053    77.7600     0.1519     0.5197
  245    4.880   3360.59     0.1773     0.0063     0.1260     0.0488     0.2308     3.5268    78.0800     0.1528     0.5148
  246    4.900   3361.49     0.1760     0.0065     0.1217     0.0490     0.2277     3.6575    78.4000     0.1493     0.4973
  247    4.920   3362.38     0.1727     0.0067     0.1135     0.0492     0.2217     3.8740    78.7200     0.1430     0.4722
  248    4.940   3363.27     0.1686     0.0065     0.1079     0.0494     0.2144     3.8439    79.0400     0.1354     0.4411
  249    4.960   3364.18     0.1603     0.0063     0.1075     0.0496     0.2053     3.8828    79.3600     0.1260     0.4579
  250    4.980   3365.10     0.1532     0.0057     0.1124     0.0498     0.1996     3.6626    79.6800     0.1199     0.5056
  251    5.000   3366.01     0.1458     0.0056     0.1185     0.0500     0.1946     3.8427    80.0000     0.1146     0.5797
  252    5.020   3366.93     0.1413     0.0052     0.1232     0.0502     0.1922     3.7064    80.3200     0.1119     0.6351
  253    5.040   3367.85     0.1445     0.0051     0.1260     0.0504     0.1973     3.5470    80.6400     0.1167     0.6462
  254    5.060   3368.73     0.1445     0.0045     0.1285     0.0506     0.1982     3.1328    80.9600     0.1172     0.6577
  255    5.080   3369.64     0.1467     0.0050     0.1307     0.0508     0.2013     3.4162    81.2800     0.1200     0.6593
  256    5.100   3370.56     0.1488     0.0048     0.1250     0.0510     0.2024     3.2541    81.6000     0.1208     0.6356
  257    5.120   3371.48     0.1480     0.0046     0.1242     0.0512     0.1999     3.1220    81.9200     0.1179     0.6118
  258    5.140   3372.35     0.1494     0.0046     0.1279     0.0514     0.2025     3.0944    82.2400     0.1203     0.6250
  259    5.160   3373.27     0.1519     0.0045     0.1227     0.0516     0.2030     2.9931    82.5600     0.1205     0.5814
  260    5.180   3374.18     0.1493     0.0045     0.1279     0.0518     0.2026     3.0176    82.8800     0.1197     0.6278
  261    5.200   3375.09     0.1555     0.0048     0.1300     0.0520     0.2098     3.1042    83.2000     0.1266     0.6111
  262    5.220   3376.02     0.1591     0.0047     0.1273     0.0522     0.2133     2.9613    83.5200     0.1297     0.5909
  263    5.240   3376.92     0.1611     0.0049     0.1240     0.0524     0.2138     3.0629    83.8400     0.1300     0.5630
  264    5.260   3377.84     0.1648     0.0047     0.1225     0.0526     0.2156     2.8533    84.1600     0.1314     0.5186
  265    5.280   3378.75     0.1652     0.0051     0.1277     0.0528     0.2181     3.0931    84.4800     0.1337     0.5471
  266    5.300   3379.63     0.1765     0.0054     0.1323     0.0530     0.2318     3.0825    84.8000     0.1470     0.5354
  267    5.320   3380.55     0.1781     0.0054     0.1299     0.0532     0.2332     2.9982    85.1200     0.1480     0.5269
  268    5.340   3381.50     0.1773     0.0056     0.1257     0.0534     0.2307     3.1286    85.4400     0.1452     0.5076
  269    5.360   3382.40     0.1809     0.0054     0.1203     0.0536     0.2320     3.0169    85.7600     0.1463     0.4655
  270    5.380   3383.31     0.1827     0.0063     0.1171     0.0538     0.2325     3.4685    86.0800     0.1465     0.4425
  271    5.400   3384.20     0.1778     0.0065     0.1209     0.0540     0.2281     3.5808    86.4000     0.1417     0.4647
  272    5.420   3385.06     0.1831     0.0065     0.1178     0.0542     0.2336     3.5621    86.7200     0.1469     0.4497
  273    5.440   3385.97     0.1851     0.0065     0.1137     0.0544     0.2329     3.4969    87.0400     0.1458     0.4067
  274    5.460   3386.87     0.1855     0.0067     0.1153     0.0546     0.2334     3.6399    87.3600     0.1461     0.4084
  275    5.480   3387.75     0.1858     0.0069     0.1189     0.0548     0.2351     3.6892    87.6800     0.1474     0.4249
  276    5.500   3388.62     0.1878     0.0070     0.1230     0.0550     0.2393     3.7147    88.0000     0.1513     0.4468
  277    5.520   3389.55     0.1855     0.0068     0.1242     0.0552     0.2371     3.6626    88.3200     0.1488     0.4549
  278    5.540   3390.43     0.1848     0.0063     0.1296     0.0554     0.2385     3.3848    88.6400     0.1499     0.4835
  279    5.560   3391.35     0.1835     0.0063     0.1355     0.0556     0.2395     3.4118    88.9600     0.1505     0.5151
  280    5.580   3392.23     0.1816     0.0059     0.1374     0.0558     0.2388     3.2635    89.2800     0.1496     0.5378
  281    5.600   3393.01     0.1789     0.0057     0.1405     0.0560     0.2375     3.1845    89.6000     0.1479     0.5653
  282    5.620   3393.83     0.1763     0.0058     0.1385     0.0562     0.2353     3.2090    89.9200     0.1454     0.5808
  283    5.640   3394.79     0.1804     0.0052     0.1280     0.0564     0.2354     2.8871    90.2400     0.1451     0.5132
  284    5.660   3395.72     0.1776     0.0051     0.1323     0.0566     0.2330     2.8637    90.5600     0.1424     0.5283
  285    5.680   3396.60     0.1829     0.0057     0.1370     0.0568     0.2396     3.2023    90.8800     0.1487     0.5261
  286    5.700   3397.54     0.1889     0.0061     0.1377     0.0570     0.2468     3.2133    91.2000     0.1556     0.5203
  287    5.720   3398.46     0.1963     0.0064     0.1332     0.0572     0.2536     3.2603    91.5200     0.1621     0.4886
  288    5.740   3399.40     0.1982     0.0067     0.1265     0.0574     0.2523     3.4036    91.8400     0.1605     0.4456
  289    5.760   3400.36     0.1983     0.0072     0.1197     0.0576     0.2498     3.7363    92.1600     0.1576     0.4117
  290    5.780   3401.24     0.1890     0.0077     0.1146     0.0578     0.2372     4.0698    92.4800     0.1448     0.3937
  291    5.800   3402.15     0.1784     0.0081     0.1198     0.0580     0.2276     4.4048    92.8000     0.1348     0.4392
  292    5.820   3403.07     0.1736     0.0075     0.1279     0.0582     0.2263     4.2984    93.1200     0.1332     0.5054
  293    5.840   3403.95     0.1704     0.0075     0.1326     0.0584     0.2254     4.3435    93.4400     0.1320     0.5502
  294    5.860   3417.16     0.1703     0.0070     0.1325     0.0586     0.2260     4.1093    93.7600     0.1322     0.5600
  295    5.880   3438.48     0.1719     0.0061     0.1321     0.0588     0.2275     3.5961    94.0800     0.1334     0.5509
  296    5.900   3459.80     0.1736     0.0064     0.1320     0.0590     0.2290     3.7296    94.4000     0.1346     0.5418
  297    5.920   3466.37     0.1753     0.0063     0.1350     0.0592     0.2316     3.6416    94.7200     0.1369     0.5471
  298    5.940   3467.28     0.1747     0.0058     0.1380     0.0594     0.2322     3.3351    95.0400     0.1372     0.5646
  299    5.960   3468.21     0.1753     0.0060     0.1420     0.0596     0.2340     3.4148    95.3600     0.1386     0.5779
  300    5.980   3469.06     0.1754     0.0057     0.1455     0.0598     0.2362     3.2579    95.6800     0.1405     0.6045
  301    6.000   3469.98     0.1726     0.0055     0.1456     0.0600     0.2339     3.1713    96.0000     0.1379     0.6225
  302    6.020   3470.92     0.1741     0.0056     0.1468     0.0602     0.2357     3.1805    96.3200     0.1394     0.6203
  303    6.040   3471.82     0.1789     0.0060     0.1469     0.0604     0.2409     3.3784    96.6400     0.1443     0.6046
  304    6.060   3472.72     0.1805     0.0061     0.1439     0.0606     0.2415     3.3694    96.9600     0.1445     0.5859
  305    6.080   3473.64     0.1878     0.0065     0.1413     0.0608     0.2477     3.4922    97.2800     0.1504     0.5431
  306    6.100   3474.49     0.1918     0.0066     0.1411     0.0610     0.2507     3.4684    97.6000     0.1531     0.5184
  307    6.120   3475.38     0.1897     0.0066     0.1442     0.0612     0.2498     3.4985    97.9200     0.1519     0.5390
  308    6.140   3476.30     0.1923     0.0066     0.1427     0.0614     0.2521     3.4357    98.2400     0.1538     0.5264
  309    6.160   3477.25     0.1920     0.0065     0.1457     0.0616     0.2529     3.3923    98.5600     0.1544     0.5411
  310    6.180   3478.12     0.1897     0.0067     0.1483     0.0618     0.2515     3.5036    98.8800     0.1526     0.5592
  311    6.200   3479.06     0.1930     0.0065     0.1522     0.0620     0.2565     3.4014    99.2000     0.1573     0.5671
  312    6.220   3479.96     0.1940     0.0068     0.1525     0.0622     0.2580     3.4764    99.5200     0.1585     0.5699
  313    6.240   3480.81     0.1940     0.0066     0.1519     0.0624     0.2582     3.4184    99.8400     0.1583     0.5708
  314    6.260   3481.74     0.1945     0.0068     0.1498     0.0626     0.2576     3.5185   100.1600     0.1574     0.5563
  315    6.280   3482.65     0.1948     0.0063     0.1512     0.0628     0.2579     3.2488   100.4800     0.1574     0.5552
  316    6.300   3483.57     0.1968     0.0066     0.1551     0.0630     0.2614     3.3972   100.8000     0.1606     0.5651
  317    6.320   3484.47     0.1972     0.0065     0.1585     0.0632     0.2633     3.3279   101.1200     0.1622     0.5811
  318    6.340   3485.38     0.2022     0.0066     0.1585     0.0634     0.2689     3.2683   101.4400     0.1674     0.5698
  319    6.360   3486.27     0.2076     0.0066     0.1539     0.0636     0.2730     3.1938   101.7600     0.1712     0.5370
  320    6.380   3487.17     0.2054     0.0067     0.1505     0.0638     0.2690     3.2860   102.0800     0.1669     0.5251
  321    6.400   3488.04     0.2082     0.0066     0.1499     0.0640     0.2711     3.1521   102.4000     0.1687     0.5087
  322    6.420   3488.93     0.2097     0.0067     0.1507     0.0642     0.2728     3.1916   102.7200     0.1701     0.5058
  323    6.440   3489.87     0.2086     0.0071     0.1503     0.0644     0.2723     3.3899   103.0400     0.1693     0.5156
  324    6.460   3490.75     0.2059     0.0071     0.1491     0.0646     0.2685     3.4574   103.3600     0.1652     0.5113
  325    6.480   3491.66     0.2035     0.0072     0.1472     0.0648     0.2657     3.5523   103.6800     0.1621     0.5142
  326    6.500   3492.53     0.2024     0.0070     0.1452     0.0650     0.2635     3.4592   104.0000     0.1595     0.5045
  327    6.520   3493.42     0.1965     0.0068     0.1497     0.0652     0.2586     3.4437   104.3200     0.1542     0.5351
  328    6.540   3494.30     0.1940     0.0065     0.1565     0.0654     0.2588     3.3307   104.6400     0.1542     0.5773
  329    6.560   3495.26     0.1996     0.0068     0.1652     0.0656     0.2679     3.4755   104.9600     0.1629     0.5954
  330    6.580   3496.14     0.2046     0.0067     0.1725     0.0658     0.2762     3.3128   105.2800     0.1709     0.6123
  331    6.600   3497.06     0.2196     0.0066     0.1723     0.0660     0.2928     3.0837   105.6000     0.1872     0.5787
  332    6.620   3497.95     0.2328     0.0067     0.1590     0.0662     0.3017     2.8882   105.9200     0.1958     0.4996
  333    6.640   3498.91     0.2311     0.0071     0.1531     0.0664     0.2959     3.0553   106.2400     0.1897     0.4632
  334    6.660   3499.86     0.2354     0.0075     0.1534     0.0666     0.3000     3.1776   106.5600     0.1934     0.4501
  335    6.680   3500.94     0.2327     0.0079     0.1592     0.0668     0.2991     3.3102   106.8800     0.1922     0.4743
  336    6.700   3501.89     0.2350     0.0082     0.1597     0.0670     0.3021     3.4479   107.2000     0.1949     0.4766
  337    6.720   3502.87     0.2377     0.0085     0.1608     0.0672     0.3048     3.5607   107.5200     0.1972     0.4687
  338    6.740   3503.81     0.2341     0.0082     0.1619     0.0674     0.3023     3.5132   107.8400     0.1944     0.4885
  339    6.760   3504.74     0.2356     0.0085     0.1653     0.0676     0.3038     3.6199   108.1600     0.1956     0.4840
  340    6.780   3513.53     0.2376     0.0085     0.1630     0.0678     0.3066     3.6064   108.4800     0.1981     0.4878
  341    6.800   3529.47     0.2420     0.0083     0.1590     0.0680     0.3093     3.5413   108.8000     0.2005     0.4612
  342    6.820   3545.40     0.2464     0.0081     0.1558     0.0682     0.3121     3.3793   109.1200     0.2030     0.4346
  343    6.840   3549.25     0.2570     0.0080     0.1583     0.0684     0.3231     3.1399   109.4400     0.2136     0.4158
  344    6.860   3549.87     0.2542     0.0077     0.1629     0.0686     0.3218     2.9966   109.7600     0.2121     0.4354
  345    6.880   3550.49     0.2491     0.0074     0.1689     0.0688     0.3192     2.9590   110.0800     0.2091     0.4687
  346    6.900   3551.11     0.2502     0.0069     0.1682     0.0690     0.3209     2.7490   110.4000     0.2105     0.4714
  347    6.920   3551.73     0.2405     0.0069     0.1711     0.0692     0.3117     2.8569   110.7200     0.2010     0.4998
  348    6.940   3552.36     0.2313     0.0068     0.1740     0.0694     0.3041     2.9257   111.0400     0.1930     0.5387
  349    6.960   3552.99     0.2296     0.0066     0.1778     0.0696     0.3036     2.8970   111.3600     0.1922     0.5548
  350    6.980   3553.59     0.2288     0.0065     0.1695     0.0698     0.3013     2.8292   111.6800     0.1896     0.5422
  351    7.000   3554.24     0.2354     0.0065     0.1592     0.0700     0.3040     2.8623   112.0000     0.1920     0.4862
  352    7.020   3554.87     0.2196     0.0064     0.1552     0.0702     0.2845     2.8955   112.3200     0.1722     0.4905
  353    7.040   3555.49     0.2173     0.0062     0.1589     0.0704     0.2834     2.8690   112.6400     0.1707     0.5093
  354    7.060   3556.15     0.2119     0.0054     0.1630     0.0706     0.2799     2.5288   112.9600     0.1669     0.5465
  355    7.080   3556.98     0.2073     0.0056     0.1653     0.0708     0.2765     2.6867   113.2800     0.1632     0.5759
  356    7.100   3571.68     0.2324     0.0066     0.1671     0.0710     0.3023     3.2132   113.6000     0.1887     0.5196
  357    7.120   3586.39     0.2575     0.0070     0.1688     0.0712     0.3281     3.3594   113.9200     0.2142     0.4632
  358    7.140   3597.94     0.2839     0.0072     0.1605     0.0714     0.3536     2.5733   114.2400     0.2394     0.3958
  359    7.160   3599.00     0.3187     0.0077     0.1381     0.0716     0.3800     2.4709   114.5600     0.2655     0.2814
  360    7.180   3600.00     0.3368     0.0081     0.1356     0.0718     0.3924     2.3721   114.8800     0.2775     0.2185
  361    7.200   3601.00     0.3143     0.0087     0.1483     0.0720     0.3751     2.7364   115.2000     0.2599     0.2801
  362    7.220   3601.94     0.3173     0.0090     0.1480     0.0722     0.3785     2.8248   115.5200     0.2630     0.2796
  363    7.240   3602.91     0.3278     0.0090     0.1446     0.0724     0.3871     2.7963   115.8400     0.2712     0.2531
  364    7.260   3603.91     0.3401     0.0088     0.1366     0.0726     0.3979     2.5722   116.1600     0.2817     0.2306
  365    7.280   3604.98     0.3268     0.0079     0.1325     0.0728     0.3814     2.3687   116.4800     0.2650     0.2164
  366    7.300   3605.97     0.2946     0.0080     0.1410     0.0730     0.3519     2.6601   116.8000     0.2351     0.2704
  367    7.320   3606.94     0.2822     0.0081     0.1370     0.0732     0.3402     2.8822   117.1200     0.2231     0.2914
  368    7.340   3607.83     0.2792     0.0073     0.1409     0.0734     0.3372     2.5821   117.4400     0.2197     0.2950
  369    7.360   3608.80     0.2609     0.0070     0.1439     0.0736     0.3194     2.6655   117.7600     0.2016     0.3257
  370    7.380   3609.86     0.2709     0.0068     0.1568     0.0738     0.3347     2.5259   118.0800     0.2166     0.3601
  371    7.400   3610.87     0.2908     0.0074     0.1664     0.0740     0.3596     2.5832   118.4000     0.2412     0.3729
  372    7.420   3611.86     0.3359     0.0075     0.1710     0.0742     0.4072     2.3311   118.7200     0.2885     0.3323
  373    7.440   3612.77     0.3731     0.0088     0.1561     0.0744     0.4412     2.4052   119.0400     0.3222     0.2723
  374    7.460   3613.74     0.3899     0.0093     0.1435     0.0746     0.4509     2.4058   119.3600     0.3315     0.2127
  375    7.480   3614.78     0.3936     0.0103     0.1462     0.0748     0.4543     2.6172   119.6800     0.3346     0.2086
  376    7.500   3615.78     0.3949     0.0107     0.1491     0.0750     0.4582     2.7134   120.0000     0.3382     0.2243
  377    7.520   3616.75     0.3959     0.0107     0.1543     0.0752     0.4598     2.7087   120.3200     0.3395     0.2268
  378    7.540   3617.63     0.4091     0.0105     0.1639     0.0754     0.4764     2.5767   120.6400     0.3558     0.2383
  379    7.560   3618.62     0.4080     0.0106     0.1723     0.0756     0.4793     2.5958   120.9600     0.3584     0.2630
  380    7.580   3619.65     0.3843     0.0111     0.1636     0.0758     0.4576     2.8147   121.2800     0.3363     0.2939
  381    7.600   3620.67     0.3724     0.0111     0.1442     0.0760     0.4336     2.9717   121.6000     0.3120     0.2238
  382    7.620   3621.67     0.3657     0.0104     0.1476     0.0762     0.4280     2.8589   121.9200     0.3061     0.2354
  383    7.640   3622.59     0.3762     0.0105     0.1473     0.0764     0.4374     2.8012   122.2400     0.3152     0.2202
  384    7.660   3623.54     0.3927     0.0112     0.1573     0.0766     0.4575     2.8686   122.5600     0.3350     0.2319
  385    7.680   3624.56     0.4054     0.0108     0.1568     0.0768     0.4718     2.6666   122.8800     0.3489     0.2329
  386    7.700   3625.55     0.4186     0.0129     0.1581     0.0770     0.4847     3.1217   123.2000     0.3615     0.2223
  387    7.720   3626.64     0.3850     0.0138     0.1521     0.0772     0.4494     3.5572   123.5200     0.3258     0.2333
  388    7.740   3627.61     0.3929     0.0134     0.1567     0.0774     0.4574     3.4050   123.8400     0.3336     0.2287
  389    7.760   3628.60     0.3862     0.0136     0.1712     0.0776     0.4560     3.5249   124.1600     0.3318     0.2671
  390    7.780   3634.75     0.3601     0.0123     0.1755     0.0778     0.4362     3.4133   124.4800     0.3117     0.3317
  391    7.800   3675.53     0.3501     0.0116     0.1585     0.0780     0.4191     3.5702   124.8000     0.2943     0.2914
  392    7.820   3705.52     0.3384     0.0106     0.1660     0.0782     0.4048     3.0998   125.1200     0.2797     0.2862
  393    7.840   3706.55     0.3388     0.0099     0.1844     0.0784     0.4135     3.0047   125.4400     0.2880     0.3454
  394    7.860   3707.55     0.3236     0.0098     0.2073     0.0786     0.4077     2.9485   125.7600     0.2819     0.4322
  395    7.880   3708.55     0.3498     0.0096     0.2193     0.0788     0.4401     2.8982   126.0800     0.3140     0.4343
  396    7.900   3709.50     0.3846     0.0102     0.2290     0.0790     0.4799     2.7393   126.4000     0.3535     0.4187
  397    7.920   3710.44     0.3954     0.0106     0.2373     0.0792     0.4942     2.6480   126.7200     0.3675     0.4252
  398    7.940   3711.42     0.3815     0.0109     0.2275     0.0794     0.4787     2.8715   127.0400     0.3517     0.4322
  399    7.960   3712.38     0.3803     0.0110     0.2177     0.0796     0.4732     2.9048   127.3600     0.3459     0.4099
  400    7.980   3713.44     0.3810     0.0104     0.2163     0.0798     0.4721     2.7400   127.6800     0.3444     0.3983
  401    8.000   3714.35     0.3799     0.0109     0.2179     0.0800     0.4713     2.8351   128.0000     0.3433     0.4007
  402    8.020   3715.34     0.3716     0.0117     0.2223     0.0802     0.4641     3.1428   128.3200     0.3358     0.4173
  403    8.040   3716.35     0.3791     0.0122     0.2103     0.0804     0.4677     3.2227   128.6400     0.3390     0.3851
  404    8.060   3717.30     0.3880     0.0125     0.2216     0.0806     0.4804     3.2642   128.9600     0.3514     0.3967
  405    8.080   3718.26     0.4429     0.0133     0.2159     0.0808     0.5367     3.0973   129.2800     0.4074     0.3500
  406    8.100   3719.23     0.4787     0.0126     0.2296     0.0810     0.5679     2.6396   129.6000     0.4383     0.3001
  407    8.120   3720.23     0.4565     0.0119     0.2354     0.0812     0.5548     2.5986   129.9200     0.4249     0.3597
  408    8.140   3721.23     0.4367     0.0115     0.2454     0.0814     0.5391     2.5432   130.2400     0.4089     0.3971
  409    8.160   3722.22     0.4269     0.0108     0.2500     0.0816     0.5313     2.5561   130.5600     0.4008     0.4171
  410    8.180   3723.20     0.4520     0.0097     0.2438     0.0818     0.5549     2.1771   130.8800     0.4240     0.3848
  411    8.200   3724.23     0.4388     0.0094     0.2328     0.0820     0.5378     2.1112   131.2000     0.4066     0.3781
  412    8.220   3725.19     0.4560     0.0096     0.2231     0.0822     0.5504     2.1231   131.5200     0.4189     0.3401
  413    8.240   3726.17     0.4643     0.0100     0.2194     0.0824     0.5567     2.1607   131.8400     0.4248     0.3240
  414    8.260   3727.13     0.4759     0.0104     0.2185     0.0826     0.5679     2.1914   132.1600     0.4357     0.3132
  415    8.280   3728.12     0.4903     0.0118     0.2155     0.0828     0.5825     2.4434   132.4800     0.4500     0.3042
  416    8.300   3729.10     0.4896     0.0124     0.2033     0.0830     0.5745     2.5225   132.8000     0.4417     0.2697
  417    8.320   3730.05     0.4582     0.0121     0.2138     0.0832     0.5475     2.5913   133.1200     0.4143     0.3125
  418    8.340   3731.02     0.4198     0.0124     0.2104     0.0834     0.5089     2.8964   133.4400     0.3755     0.3433
  419    8.360   3732.00     0.3944     0.0120     0.2057     0.0836     0.4808     3.0139   133.7600     0.3471     0.3518
  420    8.380   3733.05     0.3816     0.0114     0.2195     0.0838     0.4713     2.9369   134.0800     0.3372     0.3852
  421    8.400   3734.00     0.3616     0.0111     0.2349     0.0840     0.4588     3.0485   134.4000     0.3244     0.4550
  422    8.420   3734.97     0.3755     0.0108     0.2422     0.0842     0.4759     3.0096   134.7200     0.3412     0.4552
  423    8.440   3735.94     0.4179     0.0114     0.2580     0.0844     0.5241     2.7840   135.0400     0.3891     0.4334
  424    8.460   3736.90     0.4440     0.0114     0.2661     0.0846     0.5545     2.5842   135.3600     0.4192     0.4262
  425    8.480   3737.88     0.4266     0.0115     0.2570     0.0848     0.5381     2.6684   135.6800     0.4024     0.4486
  426    8.500   3738.90     0.4022     0.0110     0.2591     0.0850     0.5073     2.7039   136.0000     0.3713     0.4451
  427    8.520   3739.86     0.3923     0.0105     0.2710     0.0852     0.5041     2.6639   136.3200     0.3678     0.4919
  428    8.540   3740.85     0.3818     0.0103     0.2812     0.0854     0.4987     2.6734   136.6400     0.3620     0.5331
  429    8.560   3741.84     0.4000     0.0107     0.2807     0.0856     0.5171     2.7028   136.9600     0.3801     0.5080
  430    8.580   3742.80     0.4431     0.0105     0.2885     0.0858     0.5641     2.4195   137.2800     0.4268     0.4740
  431    8.600   3743.76     0.4744     0.0108     0.2763     0.0860     0.5935     2.2809   137.6000     0.4559     0.4336
  432    8.620   3744.80     0.4776     0.0110     0.2536     0.0862     0.5874     2.3018   137.9200     0.4495     0.3900
  433    8.640   3745.80     0.4617     0.0113     0.2329     0.0864     0.5608     2.4236   138.2400     0.4226     0.3539
  434    8.660   3746.81     0.4254     0.0105     0.2251     0.0866     0.5216     2.4476   138.5600     0.3830     0.3716
  435    8.680   3747.81     0.4170     0.0110     0.2248     0.0868     0.5100     2.6245   138.8800     0.3711     0.3630
  436    8.700   3748.77     0.3916     0.0095     0.2308     0.0870     0.4872     2.3972   139.2000     0.3480     0.4036
  437    8.720   3749.78     0.3816     0.0091     0.2371     0.0872     0.4805     2.3740   139.5200     0.3410     0.4347
  438    8.740   3750.76     0.3693     0.0095     0.2402     0.0874     0.4699     2.5594   139.8400     0.3301     0.4609
  439    8.760   3751.75     0.4032     0.0097     0.2468     0.0876     0.5053     2.4656   140.1600     0.3651     0.4259
  440    8.780   3752.76     0.4383     0.0107     0.2575     0.0878     0.5445     2.4944   140.4800     0.4041     0.4091
  441    8.800   3753.72     0.5980     0.0111     0.2587     0.0880     0.7066     2.0207   140.8000     0.5658     0.3016
  442    8.820   3754.70     0.6924     0.0116     0.2374     0.0882     0.7949     1.6972   141.1200     0.6537     0.2384
  443    8.840   3755.71     0.6645     0.0129     0.2286     0.0884     0.7617     1.9181   141.4400     0.6203     0.2307
  444    8.860   3756.67     0.6269     0.0138     0.2429     0.0886     0.7254     2.1592   141.7600     0.5836     0.2503
  445    8.880   3757.67     0.6001     0.0150     0.2510     0.0888     0.7028     2.4881   142.0800     0.5607     0.2779
  446    8.900   3758.63     0.5540     0.0146     0.2418     0.0890     0.6616     2.5776   142.4000     0.5192     0.3220
  447    8.920   3759.59     0.4643     0.0127     0.1972     0.0892     0.5527     2.6426   142.7200     0.4099     0.2953
  448    8.940   3760.54     0.4021     0.0119     0.1747     0.0894     0.4790     2.8698   143.0400     0.3360     0.2796
  449    8.960   3761.52     0.3672     0.0123     0.1650     0.0896     0.4349     3.3363   143.3600     0.2915     0.2453
  450    8.980   3762.53     0.3529     0.0122     0.1666     0.0898     0.4228     3.3190   143.6800     0.2791     0.2751
  451    9.000   3763.51     0.2992     0.0114     0.1664     0.0900     0.3693     3.6318   144.0000     0.2253     0.3428
  452    9.020   3764.50     0.2837     0.0116     0.1785     0.0902     0.3564     4.0507   144.3200     0.2121     0.3911
  453    9.040   3765.45     0.2546     0.0127     0.1829     0.0904     0.3307     4.9436   144.6400     0.1861     0.4888
  454    9.060   3766.44     0.2634     0.0129     0.1631     0.0906     0.3350     5.1412   144.9600     0.1901     0.4250
  455    9.080   3767.44     0.3088     0.0136     0.1285     0.0908     0.3663     4.5082   145.2800     0.2210     0.2086
  456    9.100   3768.43     0.3507     0.0139     0.1506     0.0910     0.4107     4.0773   145.6000     0.2651     0.1944
  457    9.120   3769.42     0.4536     0.0135     0.1713     0.0912     0.5223     3.0087   145.9200     0.3763     0.1917
  458    9.140   3770.38     0.5099     0.0141     0.1992     0.0914     0.5880     2.7807   146.2400     0.4417     0.2138
  459    9.160   3771.35     0.5368     0.0141     0.2296     0.0916     0.6250     2.6372   146.5600     0.4785     0.2472
  460    9.180   3772.36     0.5806     0.0141     0.2638     0.0918     0.6859     2.4265   146.8800     0.5390     0.2951
  461    9.200   3773.38     0.6299     0.0148     0.2870     0.0920     0.7429     2.3798   147.2000     0.5957     0.2967
  462    9.220   3774.39     0.6312     0.0135     0.2687     0.0922     0.7452     2.1497   147.5200     0.5977     0.3001
  463    9.240   3775.36     0.6589     0.0122     0.2961     0.0924     0.7807     1.8479   147.8400     0.6329     0.3124
  464    9.260   3776.36     0.6018     0.0134     0.2784     0.0926     0.7210     2.2158   148.1600     0.5728     0.3335
  465    9.280   3777.32     0.6091     0.0126     0.2959     0.0928     0.7298     2.0885   148.4800     0.5813     0.3347
  466    9.300   3778.33     0.6521     0.0130     0.3054     0.0930     0.7801     2.0215   148.8000     0.6313     0.3352
  467    9.320   3779.30     0.6677     0.0130     0.2769     0.0932     0.7893     1.9501   149.1200     0.6402     0.3065
  468    9.340   3780.26     0.6485     0.0145     0.2484     0.0934     0.7565     2.2280   149.4400     0.6070     0.2698
  469    9.360   3781.25     0.6461     0.0176     0.2313     0.0936     0.7419     2.6677   149.7600     0.5921     0.2273
  470    9.380   3782.23     0.6704     0.0200     0.2492     0.0938     0.7749     3.0077   150.0800     0.6248     0.2481
  471    9.400   3783.18     0.6851     0.0207     0.2622     0.0940     0.7920     3.0647   150.4000     0.6416     0.2499
  472    9.420   3784.21     0.6954     0.0194     0.2937     0.0942     0.8164     2.7704   150.7200     0.6657     0.2911
  473    9.440   3785.17     0.6788     0.0175     0.3236     0.0944     0.8076     2.5623   151.0400     0.6565     0.3232
  474    9.460   3806.83     0.6991     0.0187     0.3161     0.0946     0.8329     2.7329   151.3600     0.6815     0.3293
  475    9.480   3834.38     0.7208     0.0191     0.3165     0.0948     0.8515     2.7651   151.6800     0.6998     0.3095
  476    9.500   3839.99     0.7231     0.0188     0.3471     0.0950     0.8651     2.5893   152.0000     0.7131     0.3410
  477    9.520   3840.94     0.7133     0.0180     0.3494     0.0952     0.8608     2.5177   152.3200     0.7085     0.3614
  478    9.540   3841.94     0.6973     0.0193     0.3531     0.0954     0.8454     2.7408   152.6400     0.6927     0.3711
  479    9.560   3843.02     0.7338     0.0208     0.3932     0.0956     0.8931     2.8981   152.9600     0.7402     0.3833
  480    9.580   3843.97     0.7728     0.0210     0.4178     0.0958     0.9453     2.7574   153.2800     0.7920     0.3976
  481    9.600   3844.94     0.7978     0.0216     0.4191     0.0960     0.9740     2.7132   153.6000     0.8204     0.3942
  482    9.620   3845.93     0.7868     0.0225     0.3905     0.0962     0.9581     2.8305   153.9200     0.8042     0.3875
  483    9.640   3846.82     0.7718     0.0228     0.4337     0.0964     0.9452     2.9544   154.2400     0.7909     0.4001
  484    9.660   3847.85     0.7645     0.0223     0.4664     0.0966     0.9550     2.9067   154.5600     0.8004     0.4459
  485    9.680   3848.80     0.7540     0.0221     0.4785     0.0968     0.9534     2.9255   154.8800     0.7986     0.4733
  486    9.700   3849.87     0.7698     0.0245     0.4945     0.0970     0.9748     3.2063   155.2000     0.8196     0.4771
  487    9.720   3850.87     0.7731     0.0274     0.5137     0.0972     0.9861     3.5481   155.5200     0.8306     0.4936
  488    9.740   3851.87     0.7968     0.0298     0.5160     0.0974     1.0139     3.7846   155.8400     0.8581     0.4889
  489    9.760   3852.86     0.8145     0.0303     0.5121     0.0976     1.0275     3.7579   156.1600     0.8713     0.4700
  490    9.780   3853.76     0.8113     0.0306     0.5154     0.0978     1.0273     3.7689   156.4800     0.8708     0.4781
  491    9.800   3867.64     0.8207     0.0317     0.4779     0.0980     1.0285     3.9256   156.8000     0.8717     0.4556
  492    9.820   3897.79     0.8510     0.0301     0.4294     0.0982     1.0384     3.7248   157.1200     0.8813     0.3959
  493    9.840   3927.94     0.8812     0.0278     0.3960     0.0984     1.0483     3.3764   157.4400     0.8909     0.3362
  494    9.860   3933.10     0.8402     0.0248     0.4206     0.0986     1.0135     2.9103   157.7600     0.8557     0.3671
  495    9.880   3934.05     0.8100     0.0237     0.4483     0.0988     0.9942     2.9067   158.0800     0.8361     0.4064
  496    9.900   3935.00     0.7851     0.0224     0.4710     0.0990     0.9796     2.8501   158.4000     0.8212     0.4433
  497    9.920   3936.02     0.7712     0.0207     0.4925     0.0992     0.9755     2.6769   158.7200     0.8168     0.4742
  498    9.940   3937.02     0.7795     0.0185     0.5070     0.0994     0.9901     2.3875   159.0400     0.8311     0.4839
  499    9.960   3937.97     0.7721     0.0185     0.5184     0.0996     0.9890     2.3933   159.3600     0.8296     0.5025
  500    9.980   3938.97     0.7709     0.0194     0.5291     0.0998     0.9912     2.5243   159.6800     0.8315     0.5107
  501   10.000   3939.88     0.7818     0.0207     0.5343     0.1000     1.0046     2.6689   160.0000     0.8446     0.5096
  502   10.020   3940.85     0.8265     0.0216     0.5415     0.1002     1.0519     2.6467   160.3200     0.8916     0.4896
  503   10.040   3941.84     0.8344     0.0221     0.5236     0.1004     1.0570     2.6436   160.6400     0.8963     0.4792
  504   10.060   3942.80     0.8205     0.0223     0.5075     0.1006     1.0319     2.7159   160.9600     0.8709     0.4624
  505   10.080   3943.78     0.8131     0.0219     0.5318     0.1008     1.0331     2.6859   161.2800     0.8718     0.4852
  506   10.100   3944.79     0.7959     0.0222     0.5333     0.1010     1.0192     2.7747   161.6000     0.8576     0.5022
  507   10.120   3945.78     0.7784     0.0212     0.5405     0.1012     1.0022     2.7183   161.9200     0.8403     0.5137
  508   10.140   3946.72     0.7747     0.0202     0.5510     0.1014     1.0049     2.6068   162.2400     0.8426     0.5301
  509   10.160   3947.75     0.7710     0.0198     0.5590     0.1016     1.0053     2.5735   162.5600     0.8427     0.5415
  510   10.180   3948.73     0.7806     0.0190     0.5568     0.1018     1.0144     2.4320   162.8800     0.8515     0.5340
  511   10.200   3949.75     0.7742     0.0193     0.5602     0.1020     1.0095     2.4896   163.2000     0.8463     0.5416
  512   10.220   3950.71     0.7632     0.0198     0.5607     0.1022     0.9971     2.5818   163.5200     0.8336     0.5456
  513   10.240   3951.70     0.7622     0.0195     0.5676     0.1024     0.9985     2.5538   163.8400     0.8347     0.5515
  514   10.260   3952.70     0.7821     0.0186     0.5727     0.1026     1.0233     2.3776   164.1600     0.8592     0.5489
  515   10.280   3953.61     0.7717     0.0187     0.5657     0.1028     1.0109     2.4200   164.4800     0.8465     0.5515
  516   10.300   3954.59     0.7664     0.0182     0.5754     0.1030     1.0069     2.3654   164.8000     0.8421     0.5577
  517   10.320   3955.63     0.7745     0.0188     0.5843     0.1032     1.0177     2.4083   165.1200     0.8526     0.5583
  518   10.340   3956.59     0.7685     0.0192     0.5865     0.1034     1.0153     2.5051   165.4400     0.8499     0.5697
  519   10.360   3957.59     0.7750     0.0194     0.5799     0.1036     1.0195     2.5200   165.7600     0.8537     0.5606
  520   10.380   3958.54     0.7802     0.0194     0.5775     0.1038     1.0230     2.4733   166.0800     0.8569     0.5536
  521   10.400   3959.53     0.7876     0.0207     0.5710     0.1040     1.0289     2.6403   166.4000     0.8625     0.5454
  522   10.420   3960.52     0.7966     0.0210     0.5647     0.1042     1.0335     2.6389   166.7200     0.8668     0.5307
  523   10.440   3961.52     0.7882     0.0211     0.5702     0.1044     1.0274     2.6755   167.0400     0.8603     0.5406
  524   10.460   3962.45     0.7993     0.0216     0.5719     0.1046     1.0389     2.7058   167.3600     0.8715     0.5345
  525   10.480   3963.39     0.8099     0.0200     0.5685     0.1048     1.0478     2.4717   167.6800     0.8802     0.5245
  526   10.500   3964.41     0.8172     0.0202     0.6159     0.1050     1.0613     2.4811   168.0000     0.8933     0.5326
  527   10.520   3965.42     0.8444     0.0170     0.6194     0.1052     1.1007     2.0306   168.3200     0.9324     0.5418
  528   10.540   3966.37     0.8890     0.0174     0.6145     0.1054     1.1494     1.9896   168.6400     0.9808     0.5249
  529   10.560   3967.37     0.9600     0.0252     0.6278     0.1056     1.2252     2.6818   168.9600     1.0562     0.4980
  530   10.580   3968.33     1.0733     0.0290     0.5213     0.1058     1.3096     2.7508   169.2800     1.1404     0.4008
  531   10.600   3969.28     1.1466     0.0286     0.5145     0.1060     1.3702     2.5220   169.6000     1.2006     0.3553
  532   10.620   3970.28     1.2144     0.0283     0.3589     0.1062     1.4034     2.3597   169.9200     1.2334     0.2785
  533   10.640   3971.28     1.1332     0.0299     0.2587     0.1064     1.2458     2.5722   170.2400     1.0756     0.1504
  534   10.660   3972.26     0.9258     0.0290     0.2635     0.1066     1.0382     3.0189   170.5600     0.8676     0.1856
  535   10.680   3973.26     0.8349     0.0297     0.3173     0.1068     0.9627     3.5029   170.8800     0.7919     0.2496
  536   10.700   3974.25     0.8196     0.0246     0.3412     0.1070     0.9608     2.9938   171.2000     0.7896     0.2904
  537   10.720   3975.22     0.8174     0.0183     0.3572     0.1072     0.9658     2.2312   171.5200     0.7943     0.3101
  538   10.740   3976.22     0.7942     0.0176     0.3760     0.1074     0.9504     2.1937   171.8400     0.7786     0.3397
  539   10.760   3977.18     0.7767     0.0179     0.3904     0.1076     0.9384     2.2942   172.1600     0.7662     0.3620
  540   10.780   3978.18     0.7856     0.0175     0.4138     0.1078     0.9563     2.2298   172.4800     0.7838     0.3809
  541   10.800   3979.13     0.8023     0.0197     0.4297     0.1080     0.9808     2.4622   172.8000     0.8080     0.3923
  542   10.820   3980.15     0.8491     0.0208     0.4338     0.1082     1.0312     2.5100   173.1200     0.8580     0.3792
  543   10.840   3981.09     0.9188     0.0222     0.4440     0.1084     1.1036     2.4719   173.4400     0.9302     0.3567
  544   10.860   3982.07     0.9349     0.0230     0.4411     0.1086     1.1215     2.4664   173.7600     0.9477     0.3541
  545   10.880   3983.07     0.9181     0.0242     0.3861     0.1088     1.0889     2.5762   174.0800     0.9148     0.3254
  546   10.900   3984.05     0.8211     0.0238     0.4005     0.1090     0.9850     2.7955   174.4000     0.8106     0.3474
  547   10.920   3984.98     0.7724     0.0215     0.4266     0.1092     0.9469     2.7536   174.7200     0.7722     0.3967
  548   10.940   3985.90     0.7481     0.0224     0.4467     0.1094     0.9328     2.9918   175.0400     0.7578     0.4362
  549   10.960   3986.91     0.7473     0.0203     0.4563     0.1096     0.9379     2.7078   175.3600     0.7626     0.4516
  550   10.980   3987.90     0.7458     0.0190     0.4597     0.1098     0.9383     2.5369   175.6800     0.7626     0.4570
  551   11.000   3988.87     0.7376     0.0145     0.4566     0.1100     0.9310     1.9576   176.0000     0.7550     0.4641
  552   11.020   3989.89     0.7290     0.0164     0.4541     0.1102     0.9179     2.2441   176.3200     0.7416     0.4578
  553   11.040   3990.84     0.7311     0.0238     0.4580     0.1104     0.9228     3.2870   176.6400     0.7462     0.4640
  554   11.060   3991.83     0.8126     0.0243     0.4991     0.1106     1.0146     3.0798   176.9600     0.8377     0.4426
  555   11.080   3992.82     0.9904     0.0252     0.5148     0.1108     1.2087     2.6453   177.2800     1.0314     0.3970
  556   11.100   3993.78     1.1237     0.0258     0.3334     0.1110     1.3055     2.3190   177.6000     1.1279     0.2848
  557   11.120   3994.79     1.0095     0.0278     0.2013     0.1112     1.0936     2.6632   177.9200     0.9157     0.0974
  558   11.140   3995.76     0.8491     0.0277     0.2481     0.1114     0.9434     3.2135   178.2400     0.7651     0.1479
  559   11.160   3996.74     0.8645     0.0301     0.2876     0.1116     0.9818     3.5187   178.5600     0.8032     0.2086
  560   11.180   3997.75     0.8731     0.0242     0.3182     0.1118     1.0033     2.7609   178.8800     0.8244     0.2404
  561   11.200   3998.70     0.9164     0.0243     0.3559     0.1120     1.0563     2.6726   179.2000     0.8771     0.2520
  562   11.220   3999.73     0.9209     0.0281     0.4023     0.1122     1.0879     3.0434   179.5200     0.9084     0.3143
  563   11.240   4000.71     0.9753     0.0286     0.3883     0.1124     1.1387     2.9888   179.8400     0.9588     0.2886
  564   11.260   4001.72     0.9203     0.0249     0.3886     0.1126     1.0815     2.6791   180.1600     0.9013     0.3008
  565   11.280   4002.67     0.9129     0.0270     0.4188     0.1128     1.0854     2.9735   180.4800     0.9049     0.3290
  566   11.300   4003.63     0.9892     0.0297     0.4608     0.1130     1.1759     3.0730   180.8000     0.9951     0.3331
  567   11.320   4004.67     1.1414     0.0348     0.5231     0.1132     1.3523     3.1235   181.1200     1.1711     0.3319
  568   11.340   4005.68     1.3915     0.0485     0.5101     0.1134     1.6157     3.6918   181.4400     1.4343     0.2936
  569   11.360   4006.68     1.5939     0.0526     0.3237     0.1136     1.7660     3.4281   181.7600     1.5842     0.1874
  570   11.380   4007.62     1.6788     0.0534     0.2063     0.1138     1.7711     3.2025   182.0800     1.5891     0.0668
  571   11.400   4008.57     1.5673     0.0565     0.1596     0.1140     1.6415     3.5526   182.4000     1.4591     0.0428
  572   11.420   4009.56     1.3544     0.0507     0.1570     0.1142     1.4187     3.5829   182.7200     1.2360     0.0316
  573   11.440   4010.53     1.1133     0.0466     0.2136     0.1144     1.1905     3.9174   183.0400     1.0075     0.0703
  574   11.460   4011.52     0.9605     0.0420     0.2860     0.1146     1.0724     4.2961   183.3600     0.8890     0.1707
  575   11.480   4012.52     0.9279     0.0330     0.3354     0.1148     1.0624     3.5596   183.6800     0.8787     0.2338
  576   11.500   4013.49     0.9358     0.0262     0.3777     0.1150     1.0884     2.8014   184.0000     0.9044     0.2745
  577   11.520   4014.44     0.9559     0.0216     0.4084     0.1152     1.1230     2.2831   184.3200     0.9387     0.3012
  578   11.540   4015.39     1.0103     0.0192     0.4367     0.1154     1.1908     1.9111   184.6400     1.0062     0.3124
  579   11.560   4016.38     1.0337     0.0347     0.4425     0.1156     1.2205     3.3904   184.9600     1.0355     0.3179
  580   11.580   4017.39     1.1382     0.0365     0.4599     0.1158     1.3250     3.3007   185.2800     1.1397     0.2888
  581   11.600   4018.38     1.2796     0.0391     0.4867     0.1160     1.4803     3.1234   185.6000     1.2947     0.2795
  582   11.620   4019.37     1.4356     0.0444     0.4422     0.1162     1.6348     3.3600   185.9200     1.4489     0.2471
  583   11.640   4020.29     1.3692     0.0497     0.2396     0.1164     1.4910     3.5971   186.2400     1.3048     0.1326
  584   11.660   4021.30     1.1665     0.0479     0.2360     0.1166     1.2538     4.0729   186.5600     1.0673     0.0857
  585   11.680   4022.30     1.1914     0.0532     0.3118     0.1168     1.3139     4.5327   186.8800     1.1270     0.1551
  586   11.700   4024.73     1.3557     0.0410     0.3287     0.1170     1.4954     3.0285   187.2000     1.3082     0.1649
  587   11.720   4052.17     1.4084     0.0343     0.3173     0.1172     1.5433     2.5376   187.5200     1.3558     0.1512
  588   11.740   4079.61     1.4610     0.0318     0.3059     0.1174     1.5912     2.3542   187.8400     1.4033     0.1375
  589   11.760   4090.80     1.3140     0.0372     0.3848     0.1176     1.4633     2.7257   188.1600     1.2752     0.1868
  590   11.780   4091.79     1.1125     0.0375     0.4647     0.1178     1.2945     3.2909   188.4800     1.1061     0.2852
  591   11.800   4092.83     1.1334     0.0379     0.5294     0.1180     1.3512     3.3859   188.8000     1.1624     0.3447
  592   11.820   4093.82     1.1498     0.0327     0.4563     0.1182     1.3634     2.8385   189.1200     1.1742     0.3321
  593   11.840   4094.83     1.0588     0.0299     0.3482     0.1184     1.2278     2.7244   189.4400     1.0383     0.2729
  594   11.860   4095.71     1.0057     0.0294     0.4015     0.1186     1.1654     2.8839   189.7600     0.9757     0.2683
  595   11.880   4096.66     1.0217     0.0296     0.4406     0.1188     1.2023     2.9065   190.0800     1.0122     0.3075
  596   11.900   4097.66     1.0042     0.0265     0.4588     0.1190     1.1980     2.6260   190.4000     1.0076     0.3400
  597   11.920   4098.61     0.9707     0.0238     0.4681     0.1192     1.1630     2.4371   190.7200     0.9723     0.3483
  598   11.940   4099.67     0.9139     0.0246     0.4873     0.1194     1.1151     2.6414   191.0400     0.9240     0.3891
  599   11.960   4100.65     0.8862     0.0252     0.5119     0.1196     1.0977     2.8121   191.3600     0.9064     0.4238
  600   11.980   4101.60     0.8424     0.0192     0.5313     0.1198     1.0638     2.2568   191.6800     0.8721     0.4671
  601   12.000   4102.51     0.8231     0.0170     0.5423     0.1200     1.0481     2.0588   192.0000     0.8561     0.4857
  602   12.020   4103.48     0.8334     0.0293     0.5644     0.1202     1.0675     3.5333   192.3200     0.8751     0.4995
  603   12.040   4104.46     0.8802     0.0312     0.5958     0.1204     1.1252     3.7218   192.6400     0.9325     0.4976
  604   12.060   4105.46     1.0957     0.0314     0.5979     0.1206     1.3476     3.0209   192.9600     1.1546     0.4160
  605   12.080   4106.48     1.2372     0.0322     0.4495     0.1208     1.4632     2.7151   193.2800     1.2700     0.3300
  606   12.100   4107.45     1.2127     0.0339     0.1617     0.1210     1.3191     2.7150   193.6000     1.1255     0.1140
  607   12.120   4108.48     1.0174     0.0350     0.2078     0.1212     1.0972     3.2563   193.9200     0.9033     0.0772
  608   12.140   4109.38     0.9076     0.0331     0.2806     0.1214     1.0152     3.5556   194.2400     0.8210     0.1645
  609   12.160   4110.34     0.8622     0.0278     0.3270     0.1216     0.9938     3.2113   194.5600     0.7992     0.2398
  610   12.180   4111.30     0.8441     0.0253     0.3673     0.1218     0.9927     2.9966   194.8800     0.7979     0.2908
  611   12.200   4112.30     0.8643     0.0232     0.4031     0.1220     1.0285     2.7021   195.2000     0.8333     0.3227
  612   12.220   4113.26     0.8928     0.0217     0.4334     0.1222     1.0716     2.4341   195.5200     0.8761     0.3465
  613   12.240   4114.23     0.9162     0.0212     0.3935     0.1224     1.0935     2.3336   195.8400     0.8977     0.3340
  614   12.260   4115.32     0.8646     0.0218     0.4097     0.1226     1.0384     2.3904   196.1600     0.8422     0.3456
  615   12.280   4116.25     0.7958     0.0201     0.4365     0.1228     0.9711     2.4550   196.4800     0.7746     0.3804
  616   12.300   4117.24     0.7911     0.0159     0.4689     0.1230     0.9855     2.0189   196.8000     0.7887     0.4311
  617   12.320   4118.27     0.8274     0.0270     0.4852     0.1232     1.0294     3.2865   197.1200     0.8322     0.4298
  618   12.340   4119.18     0.9255     0.0360     0.5030     0.1234     1.1365     4.1144   197.4400     0.9391     0.4043
  619   12.360   4120.14     1.2046     0.0337     0.5037     0.1236     1.4191     2.9084   197.7600     1.2213     0.3172
  620   12.380   4121.08     1.4085     0.0318     0.4250     0.1238     1.6063     2.2911   198.0800     1.4082     0.2469
  621   12.400   4122.09     1.3146     0.0483     0.1865     0.1240     1.4153     3.5996   198.4000     1.2169     0.0926
  622   12.420   4123.11     1.1976     0.0552     0.1821     0.1242     1.2738     4.5779   198.7200     1.0751     0.0534
  623   12.440   4124.08     1.3679     0.0464     0.2215     0.1244     1.4494     3.5239   199.0400     1.2504     0.0555
  624   12.460   4125.09     1.7904     0.0326     0.2372     0.1246     1.8966     1.9622   199.3600     1.6973     0.0764
  625   12.480   4126.04     1.9282     0.0341     0.1558     0.1248     2.0019     1.7616   199.6800     1.8022     0.0278
  626   12.500   4126.99     1.8119     0.0406     0.1702     0.1250     1.8804     2.2270   200.0000     1.6804     0.0227
  627   12.520   4127.98     2.4202     0.0429     0.2210     0.1252     2.5059     1.8232   200.3200     2.3056     0.0336
  628   12.540   4128.95     4.0766     0.0454     0.1328     0.1254     4.1406     1.3957   200.6400     3.9400     0.0075
  629   12.560   4130.02     6.2581     0.0437     0.0897     0.1256     6.3000     0.7545   200.9600     6.0991    -0.0041
  630   12.580   4131.03     7.6654     0.0499     0.1008     0.1258     7.7073     0.6542   201.2800     7.5060    -0.0035
  631   12.600   4132.07     8.2680     0.0569     0.0874     0.1260     8.3068     0.6900   201.6000     8.1052    -0.0041
  632   12.620   4133.08     8.6211     0.0615     0.0823     0.1262     8.6559     0.7142   201.9200     8.4540    -0.0051
  633   12.640   4134.07     8.4130     0.0611     0.0801     0.1264     8.4464     0.7195   202.2400     8.2441    -0.0057
  634   12.660   4135.04     7.2419     0.0702     0.0890     0.1266     7.2770     0.9477   202.5600     7.0745    -0.0061
  635   12.680   4136.08     5.8182     0.0823     0.1080     0.1268     5.8613     1.3629   202.8800     5.6584    -0.0043
  636   12.700   4137.10     4.8465     0.0995     0.1199     0.1270     4.8949     1.9876   203.2000     4.6917    -0.0025
  637   12.720   4138.11     3.9503     0.1046     0.1360     0.1272     4.0076     2.5420   203.5200     3.8041     0.0025
  638   12.740   4139.07     3.8434     0.0897     0.1350     0.1274     3.8989     2.3412   203.8400     3.6951     0.0013
  639   12.760   4140.03     3.6286     0.0735     0.1340     0.1276     3.6852     2.0039   204.1600     3.4810     0.0021
  640   12.780   4140.98     3.0874     0.0682     0.1353     0.1278     3.1434     2.1201   204.4800     2.9389     0.0019
  641   12.800   4142.05     2.3586     0.0749     0.1460     0.1280     2.4191     3.0048   204.8000     2.2143     0.0072
  642   12.820   4143.04     3.5518     0.0992     0.1896     0.1282     3.6210     3.4209   205.1200     3.4159     0.0107
  643   12.840   4144.03     4.8061     0.1120     0.2591     0.1284     4.9193     2.3773   205.4400     4.7139     0.0299
  644   12.860   4145.00     4.4947     0.0936     0.0732     0.1286     4.5471     2.0325   205.7600     4.3414    -0.0013
  645   12.880   4145.93     3.5945     0.0827     0.0752     0.1288     3.6253     2.1413   206.0800     3.4192    -0.0163
  646   12.900   4146.88     2.6869     0.0852     0.1374     0.1290     2.7378     2.9407   206.4000     2.5314    -0.0028
  647   12.920   4147.84     2.0911     0.0853     0.1524     0.1292     2.1592     3.9325   206.7200     1.9525     0.0167
  648   12.940   4148.89     1.5507     0.0713     0.2232     0.1294     1.6251     4.3535   207.0400     1.4181     0.0355
  649   12.960   4149.86     1.2521     0.0572     0.4098     0.1296     1.3999     4.5525   207.3600     1.1925     0.1859
  650   12.980   4150.83     1.2120     0.0375     0.4511     0.1298     1.4039     3.0662   207.6800     1.1962     0.2736
  651   13.000   4151.76     1.1539     0.0297     0.4128     0.1300     1.3371     2.5748   208.0000     1.1291     0.2712
  652   13.020   4152.76     1.3727     0.0403     0.5393     0.1302     1.5767     3.0334   208.3200     1.3684     0.2599
  653   13.040   4153.84     2.1811     0.0763     0.6095     0.1304     2.4363     3.6499   208.6400     2.2277     0.2153
  654   13.060   4154.85     3.6650     0.0959     0.5046     0.1306     3.8744     2.8257   208.9600     3.6654     0.1009
  655   13.080   4155.85     5.1511     0.0997     0.3008     0.1308     5.3302     1.9695   209.2800     5.1210     0.0581
  656   13.100   4156.76     5.3027     0.0978     0.0856     0.1310     5.3394     1.8375   209.6000     5.1298    -0.0086
  657   13.120   4157.75     4.2704     0.1081     0.1137     0.1312     4.3061     2.4910   209.9200     4.0962    -0.0112
  658   13.140   4158.76     3.4680     0.0926     0.2254     0.1314     3.5488     2.5970   210.2400     3.3385     0.0184
  659   13.160   4159.81     2.9774     0.0752     0.4410     0.1316     3.1126     2.5198   210.5600     2.9020     0.0655
  660   13.180   4160.82     2.8636     0.0762     0.5054     0.1318     3.0443     2.6652   210.8800     2.8334     0.1052
  661   13.200   4161.80     2.8438     0.0653     0.2938     0.1320     2.9822     2.2765   211.2000     2.7710     0.0715
  662   13.220   4162.78     4.1722     0.0625     0.2857     0.1322     4.2765     1.9011   211.5200     4.0650     0.0286
  663   13.240   4163.85     6.9035     0.0774     0.2127     0.1324     7.0021     1.1568   211.8400     6.7903     0.0153
  664   13.260   4164.87     8.9667     0.1033     0.0745     0.1326     9.0014     1.1660   212.1600     8.7893    -0.0057
  665   13.280   4165.94     9.6828     0.1459     0.0805     0.1328     9.7170     1.5072   212.4800     9.5045    -0.0054
  666   13.300   4166.96     9.1479     0.1491     0.0723     0.1330     9.1824     1.5897   212.8000     8.9696    -0.0057
  667   13.320   4167.94     7.8679     0.1249     0.0753     0.1332     7.8996     1.5258   213.1200     7.6865    -0.0075
  668   13.340   4168.88     6.6100     0.1122     0.1046     0.1334     6.6511     1.5593   213.4400     6.4376    -0.0055
  669   13.360   4169.87     5.7120     0.0987     0.1520     0.1336     5.7714     1.6410   213.7600     5.5576     0.0014
  670   13.380   4170.94     6.3568     0.0954     0.2006     0.1338     6.4356     1.6742   214.0800     6.2216     0.0086
  671   13.400   4171.98     9.2070     0.1057     0.1844     0.1340     9.2894     1.3374   214.4000     9.0750     0.0070
  672   13.420   4173.02    12.2414     0.1225     0.0940     0.1342    12.2962     1.0531   214.7200    12.0815    -0.0002
  673   13.440   4174.00    13.4097     0.1241    -0.0368     0.1344    13.4150     0.9488   215.0400    13.1999    -0.0092
  674   13.460   4175.07    12.8966     0.1186     0.0007     0.1346    12.8919     0.8950   215.3600    12.6765    -0.0115
  675   13.480   4176.13    11.5063     0.1024     0.0396     0.1348    11.5181     0.8572   215.6800    11.3024    -0.0094
  676   13.500   4177.17    10.6143     0.0984     0.0910     0.1350    10.6428     0.9146   216.0000    10.4268    -0.0064
  677   13.520   4178.14    11.6782     0.0944     0.1494     0.1352    11.7392     0.8595   216.3200    11.5228     0.0008
  678   13.540   4179.21    14.2656     0.0821     0.0884     0.1354    14.3222     0.6204   216.6400    14.1056     0.0000
  679   13.560   4180.32    16.3324     0.0783     0.0181     0.1356    16.3528     0.4980   216.9600    16.1358    -0.0054
  680   13.580   4181.36    17.2828     0.0780     0.0146     0.1358    17.2769     0.4561   217.2800    17.0596    -0.0088
  681   13.600   4182.48    16.8025     0.0736     0.0036     0.1360    16.8042     0.4337   217.6000    16.5866    -0.0079
  682   13.620   4183.45    15.7672     0.0791     0.0184     0.1362    15.7721     0.5039   217.9200    15.5542    -0.0080
  683   13.640   4184.45    14.0744     0.0901     0.0391     0.1364    14.0857     0.6768   218.2400    13.8674    -0.0079
  684   13.660   4185.48    11.4728     0.1025     0.0614     0.1366    11.4963     0.8731   218.5600    11.2777    -0.0072
  685   13.680   4186.54     9.2207     0.1221     0.0992     0.1368     9.2576     1.2838   218.8800     9.0387    -0.0054
  686   13.700   4187.56     8.0551     0.1332     0.1306     0.1370     8.1059     1.6275   219.2000     7.8867    -0.0020
  687   13.720   4188.59     7.5643     0.1319     0.1357     0.1372     7.6217     1.7345   219.5200     7.4022    -0.0001
  688   13.740   4213.04     7.4820     0.1137     0.1150     0.1374     7.5333     1.5125   219.8400     7.3134    -0.0021
  689   13.760   4241.52     7.4380     0.0978     0.0951     0.1376     7.4806     1.3002   220.1600     7.2604    -0.0050
  690   13.780   4250.45     8.0135     0.0883     0.1401     0.1378     8.0590     1.1484   220.4800     7.8386    -0.0038
  691   13.800   4251.51     9.6361     0.0852     0.1057     0.1380     9.6863     0.9534   220.8000     9.4655    -0.0019
  692   13.820   4252.53    11.7473     0.0816    -0.0050     0.1382    11.7629     0.7379   221.1200    11.5418    -0.0086
  693   13.840   4253.62    12.9217     0.0725    -0.0481     0.1384    12.9007     0.5743   221.4400    12.6792    -0.0149
  694   13.860   4254.65    13.8714     0.0583     0.0310     0.1386    13.8739     0.4298   221.7600    13.6521    -0.0098
  695   13.880   4255.69    14.9055     0.0496     0.0686     0.1388    14.9297     0.3393   222.0800    14.7076    -0.0055
  696   13.900   4256.72    15.8939     0.0478     0.0930     0.1390    15.9289     0.3064   222.4000    15.7065    -0.0035
  697   13.920   4257.73    16.4834     0.0500     0.0837     0.1392    16.5209     0.3058   222.7200    16.2982    -0.0031
  698   13.940   4258.83    16.9923     0.0450     0.0520     0.1394    17.0178     0.2684   223.0400    16.7948    -0.0047
  699   13.960   4259.90    17.9100     0.0378     0.0124     0.1396    17.9229     0.2151   223.3600    17.6996    -0.0061
  700   13.980   4261.01    19.0228     0.0396    -0.0187     0.1398    19.0170     0.2128   223.6800    18.7933    -0.0082
  701   14.000   4262.01    19.7290     0.0523    -0.0124     0.1400    19.7239     0.2680   224.0000    19.4999    -0.0078
  702   14.020   4263.08    19.6169     0.0639    -0.0214     0.1402    19.6087     0.3223   224.3200    19.3844    -0.0082
  703   14.040   4264.11    18.6273     0.0674    -0.0132     0.1404    18.6168     0.3554   224.6400    18.3922    -0.0090
  704   14.060   4265.15    16.9923     0.0667    -0.0023     0.1406    16.9880     0.3808   224.9600    16.7630    -0.0090
  705   14.080   4266.22    15.3233     0.0664     0.0422     0.1408    15.3394     0.4227   225.2800    15.1142    -0.0068
  706   14.100   4267.23    15.2601     0.0645     0.0629     0.1410    15.2793     0.4282   225.6000    15.0537    -0.0063
  707   14.120   4268.32    16.7509     0.0609     0.1109     0.1412    16.7909     0.3758   225.9200    16.5650    -0.0028
  708   14.140   4269.38    17.7136     0.0614     0.0817     0.1414    17.7526     0.3515   226.2400    17.5264    -0.0028
  709   14.160   4270.44    17.2938     0.0650     0.0329     0.1416    17.3104     0.3723   226.5600    17.0839    -0.0060
  710   14.180   4271.49    16.1623     0.0783     0.0276     0.1418    16.1760     0.4825   226.8800    15.9491    -0.0069
  711   14.200   4272.53    14.5743     0.1079     0.0273     0.1420    14.5832     0.7307   227.2000    14.3560    -0.0084
  712   14.220   4273.57    12.1468     0.1372     0.0586     0.1422    12.1709     1.1020   227.5200    11.9434    -0.0071
  713   14.240   4274.55     9.6204     0.1643     0.0714     0.1424     9.6484     1.6960   227.8400     9.4206    -0.0081
  714   14.260   4275.56     7.4581     0.1808     0.0946     0.1426     7.4949     2.3947   228.1600     7.2668    -0.0076
  715   14.280   4276.53     6.0309     0.1607     0.1354     0.1428     6.0812     2.4148   228.4800     5.8527    -0.0039
  716   14.300   4277.51     5.3180     0.1556     0.1724     0.1430     5.3864     2.8331   228.8000     5.1576     0.0038
  717   14.320   4278.53     6.3336     0.1502     0.1893     0.1432     6.4108     2.6521   229.1200     6.1817     0.0067
  718   14.340   4279.60     7.7398     0.1360     0.2705     0.1434     7.8425     1.7697   229.4400     7.6131     0.0132
  719   14.360   4280.60     7.1001     0.1290     0.1359     0.1436     7.1868     1.8053   229.7600     6.9570     0.0085
  720   14.380   4281.63     6.9403     0.1266     0.1224     0.1438     6.9859     1.8956   230.0800     6.7559    -0.0054
  721   14.400   4282.69     9.7434     0.1406     0.1645     0.1440     9.7896     1.4998   230.4000     9.5592    -0.0035
  722   14.420   4283.70    10.6769     0.1841     0.1299     0.1442    10.7587     1.7208   230.7200    10.5280     0.0048
  723   14.440   4284.65     8.8090     0.1955     0.0463     0.1444     8.8346     2.1596   231.0400     8.6035    -0.0098
  724   14.460   4285.68     6.3025     0.1688     0.0373     0.1446     6.3157     2.5499   231.3600     6.0844    -0.0187
  725   14.480   4286.65     4.9932     0.1545     0.0871     0.1448     5.0192     3.0384   231.6800     4.7875    -0.0172
  726   14.500   4287.69     4.3121     0.1398     0.1906     0.1450     4.3816     3.2128   232.0000     4.1496     0.0050
  727   14.520   4288.66     3.6610     0.1262     0.1691     0.1452     3.7347     3.3797   232.3200     3.5023     0.0084
  728   14.540   4289.66     3.0211     0.1090     0.2472     0.1454     3.1048     3.5297   232.6400     2.8721     0.0190
  729   14.560   4290.62     2.5730     0.0807     0.5383     0.1456     2.7527     3.1097   232.9600     2.5197     0.1126
  730   14.580   4291.66     2.3718     0.0509     0.6779     0.1458     2.6474     2.1360   233.2800     2.4141     0.2115
  731   14.600   4292.71     2.3163     0.0350     0.6434     0.1460     2.5942     1.5099   233.6000     2.3606     0.2185
  732   14.620   4293.68     2.2464     0.0306     0.6441     0.1462     2.5138     1.3550   233.9200     2.2799     0.2152
  733   14.640   4294.62     2.0978     0.0298     0.6830     0.1464     2.3743     1.4085   234.2400     2.1400     0.2393
  734   14.660   4295.64     1.8575     0.0365     0.8126     0.1466     2.1770     1.9618   234.5600     1.9425     0.3167
  735   14.680   4296.65     1.8324     0.0459     0.8602     0.1468     2.1930     2.5088   234.8800     1.9581     0.3634
  736   14.700   4297.69     2.0429     0.0518     0.8506     0.1470     2.4026     2.5666   235.2000     2.1674     0.3276
  737   14.720   4298.69     2.5961     0.0552     0.7644     0.1472     2.9319     2.2074   235.5200     2.6964     0.2423
  738   14.740   4299.67     3.5016     0.0552     0.5805     0.1474     3.7616     1.6150   235.8400     3.5257     0.1349
  739   14.760   4300.67     4.5280     0.0558     0.5118     0.1476     4.7559     1.2635   236.1600     4.5197     0.0876
  740   14.780   4301.71     5.1147     0.0591     0.3711     0.1478     5.2869     1.1645   236.4800     5.0505     0.0520
  741   14.800   4302.73     5.3917     0.0606     0.2857     0.1480     5.5210     1.1325   236.8000     5.2842     0.0303
  742   14.820   4303.72     5.4805     0.0648     0.2517     0.1482     5.5884     1.1823   237.1200     5.3513     0.0203
  743   14.840   4304.74     5.2740     0.0495     0.2674     0.1484     5.3801     0.9355   237.4400     5.1426     0.0203
  744   14.860   4305.70     5.4706     0.0452     0.3283     0.1486     5.6046     0.8290   237.7600     5.3668     0.0317
  745   14.880   4306.70     6.3930     0.0383     0.2842     0.1488     6.5199     0.6044   238.0800     6.2818     0.0245
  746   14.900   4307.71     7.5044     0.0380     0.1863     0.1490     7.5955     0.5216   238.4000     7.3571     0.0093
  747   14.920   4308.76     8.4938     0.0431     0.0582     0.1492     8.5251     0.5116   238.7200     8.2864    -0.0090
  748   14.940   4309.75     9.0079     0.0520     0.0053     0.1494     9.0207     0.5777   239.0400     8.7816    -0.0135
  749   14.960   4310.75     8.9882     0.0726    -0.0283     0.1496     8.9796     0.8072   239.3600     8.7402    -0.0195
  750   14.980   4311.76     8.8061     0.0826    -0.0183     0.1498     8.7954     0.9373   239.6800     8.5557    -0.0205
  751   15.000   4312.78     8.6097     0.0939    -0.0016     0.1500     8.6076     1.0872   240.0000     8.3676    -0.0185
  752   15.020   4313.78     8.3901     0.1001     0.0012     0.1502     8.3916     1.1897   240.3200     8.1513    -0.0180
  753   15.040   4314.82     8.3461     0.1069     0.0297     0.1504     8.3528     1.2820   240.6400     8.1121    -0.0166
  754   15.060   4315.82     8.4390     0.1105     0.0712     0.1506     8.4645     1.3109   240.9600     8.2236    -0.0109
  755   15.080   4316.78     8.0896     0.1133     0.0512     0.1508     8.1166     1.3899   241.2800     7.8753    -0.0110
  756   15.100   4317.78     6.2788     0.1107     0.0226     0.1510     6.2855     1.6774   241.6000     6.0439    -0.0223
  757   15.120   4318.77     4.3974     0.1016     0.0654     0.1512     4.4194     2.1724   241.9200     4.1775    -0.0236
  758   15.140   4319.76     3.4979     0.0776     0.1843     0.1514     3.5549     2.1294   242.2400     3.3127    -0.0047
  759   15.160   4320.77     2.9567     0.0604     0.2963     0.1516     3.0684     1.9872   242.5600     2.8259     0.0406
  760   15.180   4321.77     2.3854     0.0568     0.3625     0.1518     2.5141     2.3153   242.8800     2.2712     0.0683
  761   15.200   4322.77     1.9226     0.0563     0.4605     0.1520     2.0890     2.8263   243.2000     1.8458     0.1324
  762   15.220   4323.76     1.7354     0.0507     0.6166     0.1522     1.9799     2.8984   243.5200     1.7363     0.2476
  763   15.240   4324.73     1.6401     0.0445     0.6665     0.1524     1.9120     2.6946   243.8400     1.6681     0.2966
  764   15.260   4325.69     1.6649     0.0450     0.7087     0.1526     1.9590     2.7184   244.1600     1.7148     0.3193
  765   15.280   4326.72     1.7276     0.0492     0.7551     0.1528     2.0372     2.8645   244.4800     1.7927     0.3259
  766   15.300   4327.73     1.7410     0.0515     0.7891     0.1530     2.0719     2.9557   244.8000     1.8271     0.3474
  767   15.320   4328.71     1.7329     0.0520     0.7874     0.1532     2.0651     2.9802   245.1200     1.8199     0.3504
  768   15.340   4329.69     1.7697     0.0514     0.8129     0.1534     2.1068     2.9150   245.4400     1.8614     0.3488
  769   15.360   4330.66     1.8127     0.0548     0.8693     0.1536     2.1691     3.0277   245.7600     1.9233     0.3613
  770   15.380   4331.58     1.8715     0.0614     0.9329     0.1538     2.2545     3.2741   246.0800     2.0084     0.3774
  771   15.400   4332.62     1.9438     0.0680     0.9264     0.1540     2.3390     3.5205   246.4000     2.0926     0.3761
  772   15.420   4333.59     1.9969     0.0721     0.8845     0.1542     2.3760     3.6399   246.7200     2.1293     0.3515
  773   15.440   4334.62     2.0395     0.0731     0.8353     0.1544     2.3927     3.6119   247.0400     2.1457     0.3200
  774   15.460   4335.57     2.0356     0.0753     0.8588     0.1546     2.3930     3.6906   247.3600     2.1456     0.3245
  775   15.480   4358.61     2.0144     0.0789     0.8685     0.1548     2.3777     3.8802   247.6800     2.1300     0.3336
  776   15.500   4385.98     1.9929     0.0794     0.8781     0.1550     2.3603     3.9066   248.0000     2.1123     0.3409
  777   15.520   4409.40     1.9752     0.0767     0.9258     0.1552     2.3515     3.8865   248.3200     2.1031     0.3522
  778   15.540   4410.47     1.9925     0.0730     0.9324     0.1554     2.3895     3.6592   248.6400     2.1409     0.3689
  779   15.560   4411.45     2.0146     0.0688     0.9136     0.1556     2.3956     3.4127   248.9600     2.1466     0.3501
  780   15.580   4412.46     1.9934     0.0654     0.9476     0.1558     2.3860     3.2716   249.2800     2.1367     0.3646
  781   15.600   4413.38     1.9536     0.0649     1.0025     0.1560     2.3643     3.3085   249.6000     2.1147     0.3887
  782   15.620   4414.36     1.9076     0.0621     1.0416     0.1562     2.3399     3.2522   249.9200     2.0899     0.4177
  783   15.640   4415.33     1.9104     0.0603     1.0495     0.1564     2.3520     3.1590   250.2400     2.1017     0.4259
  784   15.660   4416.41     1.9286     0.0604     1.0415     0.1566     2.3663     3.1374   250.5600     2.1157     0.4186
  785   15.680   4417.42     1.9343     0.0624     1.0440     0.1568     2.3764     3.2309   250.8800     2.1256     0.4215
  786   15.700   4418.42     1.9540     0.0617     1.0319     0.1570     2.3870     3.1634   251.2000     2.1358     0.4091
  787   15.720   4419.33     1.9820     0.0617     1.0315     0.1572     2.4144     3.1121   251.5200     2.1629     0.4034
  788   15.740   4420.31     1.9462     0.0586     1.0248     0.1574     2.3748     2.9979   251.8400     2.1229     0.4065
  789   15.760   4421.29     1.9071     0.0545     1.0242     0.1576     2.3293     2.8439   252.1600     2.0772     0.4081
  790   15.780   4422.34     1.7692     0.0501     1.0339     0.1578     2.2045     2.7708   252.4800     1.9520     0.4502
  791   15.800   4423.35     1.7149     0.0473     1.0445     0.1580     2.1454     2.7450   252.8000     1.8926     0.4581
  792   15.820   4424.31     1.6592     0.0436     1.0356     0.1582     2.0990     2.6079   253.1200     1.8459     0.4816
  793   15.840   4425.27     1.6044     0.0431     1.0395     0.1584     2.0361     2.6669   253.4400     1.7826     0.4877
  794   15.860   4426.19     1.5725     0.0401     1.0520     0.1586     2.0147     2.5430   253.7600     1.7609     0.5078
  795   15.880   4427.17     1.5552     0.0397     1.0597     0.1588     1.9965     2.5536   254.0800     1.7424     0.5119
  796   15.900   4428.24     1.5479     0.0396     1.0870     0.1590     1.9972     2.5505   254.4000     1.7428     0.5226
  797   15.920   4429.23     1.5458     0.0406     1.1196     0.1592     2.0113     2.6403   254.7200     1.7565     0.5403
  798   15.940   4430.20     1.5312     0.0425     1.1243     0.1594     2.0061     2.7569   255.0400     1.7511     0.5547
  799   15.960   4431.21     1.5674     0.0454     1.0959     0.1596     2.0312     2.9287   255.3600     1.7758     0.5319
  800   15.980   4432.12     1.5999     0.0463     1.0816     0.1598     2.0547     2.8975   255.6800     1.7990     0.5131
  801   16.000   4433.06     1.6094     0.0477     1.0861     0.1600     2.0658     2.9657   256.0000     1.8098     0.5120
  802   16.020   4434.05     1.6225     0.0495     1.0593     0.1602     2.0719     3.0649   256.3200     1.8156     0.5012
  803   16.040   4435.07     1.6386     0.0493     1.0416     0.1604     2.0772     3.0046   256.6400     1.8206     0.4855
  804   16.060   4436.03     1.6100     0.0494     1.0655     0.1606     2.0531     3.0584   256.9600     1.7961     0.4980
  805   16.080   4437.05     1.5915     0.0486     1.0707     0.1608     2.0434     3.0561   257.2800     1.7861     0.5124
  806   16.100   4438.03     1.6066     0.0480     1.0630     0.1610     2.0533     2.9893   257.6000     1.7957     0.5025
  807   16.120   4438.99     1.6100     0.0479     1.0883     0.1612     2.0642     2.9678   257.9200     1.8063     0.5095
  808   16.140   4440.02     1.5887     0.0484     1.0725     0.1614     2.0380     3.0473   258.2400     1.7797     0.5104
  809   16.160   4441.06     1.5848     0.0481     1.0799     0.1616     2.0391     3.0362   258.5600     1.7805     0.5167
  810   16.180   4442.05     1.5664     0.0481     1.0581     0.1618     2.0131     3.0604   258.8800     1.7543     0.5140
  811   16.200   4443.03     1.5553     0.0473     1.0556     0.1620     1.9990     3.0434   259.2000     1.7398     0.5141
  812   16.220   4443.99     1.5510     0.0466     1.0785     0.1622     2.0002     2.9964   259.5200     1.7407     0.5213
  813   16.240   4444.97     1.5592     0.0471     1.0988     0.1624     2.0174     3.0255   259.8400     1.7576     0.5283
  814   16.260   4446.00     1.5864     0.0468     1.1364     0.1626     2.0590     2.9514   260.1600     1.7988     0.5351
  815   16.280   4447.00     1.6058     0.0456     1.1832     0.1628     2.0956     2.8590   260.4800     1.8351     0.5467
  816   16.300   4447.99     1.6485     0.0443     1.1719     0.1630     2.1452     2.7051   260.8000     1.8844     0.5411
  817   16.320   4448.97     1.7043     0.0557     1.1718     0.1632     2.1946     3.2887   261.1200     1.9335     0.5195
  818   16.340   4449.99     1.7800     0.0597     1.1820     0.1634     2.2758     3.3716   261.4400     2.0144     0.5050
  819   16.360   4450.93     1.8444     0.0544     1.1975     0.1636     2.3424     2.9611   261.7600     2.0806     0.4912
  820   16.380   4451.89     1.9471     0.0637     1.2075     0.1638     2.4520     3.3042   262.0800     2.1899     0.4742
  821   16.400   4452.87     2.3280     0.0890     1.3183     0.1640     2.8595     4.0343   262.4000     2.5971     0.4259
  822   16.420   4453.94     2.9876     0.1183     1.3874     0.1642     3.5677     3.9990   262.7200     3.3050     0.3683
  823   16.440   4454.95     3.0779     0.1228     1.0380     0.1644     3.5876     3.9695   263.0400     3.3245     0.3149
  824   16.460   4455.95     2.9792     0.1234     0.3096     0.1646     3.2336     4.0961   263.3600     2.9703     0.1454
  825   16.480   4456.86     2.7838     0.1235     0.2882     0.1648     2.9028     4.3819   263.6800     2.6391     0.0450
  826   16.500   4457.83     2.3440     0.1250     0.2766     0.1650     2.4392     5.2973   264.0000     2.1752     0.0287
  827   16.520   4458.88     1.9051     0.1192     0.4513     0.1652     2.0648     6.1880   264.3200     1.8005     0.1199
  828   16.540   4459.89     1.7488     0.1001     0.5781     0.1654     1.9693     5.7114   264.6400     1.7047     0.2110
  829   16.560   4460.92     1.7320     0.0853     0.6359     0.1656     1.9902     4.9316   264.9600     1.7252     0.2603
  830   16.580   4461.82     1.7640     0.0790     0.6682     0.1658     2.0407     4.4825   265.2800     1.7754     0.2777
  831   16.600   4462.86     1.8033     0.0793     0.7043     0.1660     2.0967     4.4050   265.6000     1.8311     0.2908
  832   16.620   4463.90     1.8252     0.0812     0.7656     0.1662     2.1326     4.4517   265.9200     1.8667     0.3031
  833   16.640   4464.92     1.8320     0.0837     0.8120     0.1664     2.1671     4.5715   266.2400     1.9009     0.3322
  834   16.660   4465.96     1.8438     0.0887     0.8488     0.1666     2.1948     4.8182   266.5600     1.9282     0.3470
  835   16.680   4466.91     1.8478     0.0950     0.8559     0.1668     2.2066     5.1475   266.8800     1.9397     0.3545
  836   16.700   4467.88     1.8505     0.0975     0.8698     0.1670     2.2125     5.2665   267.2000     1.9453     0.3572
  837   16.720   4468.89     1.8332     0.0938     0.9145     0.1672     2.2068     5.1080   267.5200     1.9392     0.3725
  838   16.740   4469.94     1.8476     0.0945     0.9073     0.1674     2.2300     5.1468   267.8400     1.9621     0.3788
  839   16.760   4470.93     1.9278     0.0981     0.9318     0.1676     2.3123     5.0947   268.1600     2.0441     0.3658
  840   16.780   4471.84     1.8932     0.1034     1.0032     0.1678     2.2961     5.4481   268.4800     2.0276     0.3904
  841   16.800   4472.81     1.8877     0.1038     1.0047     0.1680     2.3258     5.4967   268.8000     2.0570     0.4255
  842   16.820   4473.89     1.9246     0.0982     0.8187     0.1682     2.2936     5.1116   269.1200     2.0244     0.3507
  843   16.840   4474.94     1.9101     0.0926     0.7553     0.1684     2.2342     4.8076   269.4400     1.9647     0.3070
  844   16.860   4475.92     1.8176     0.0897     0.7173     0.1686     2.1228     4.8831   269.7600     1.8531     0.3013
  845   16.880   4476.84     1.7062     0.0859     0.7691     0.1688     2.0188     4.9842   270.0800     1.7488     0.3293
  846   16.900   4477.80     1.6142     0.0817     0.8396     0.1690     1.9554     5.0434   270.4000     1.6850     0.3819
  847   16.920   4478.78     1.5748     0.0756     0.8655     0.1692     1.9394     4.8016   270.7200     1.6686     0.4188
  848   16.940   4479.81     1.6120     0.0715     0.8873     0.1694     1.9813     4.4280   271.0400     1.7102     0.4151
  849   16.960   4480.86     1.5731     0.0678     0.8877     0.1696     1.9437     4.3030   271.3600     1.6724     0.4262
  850   16.980   4481.85     1.5285     0.0688     0.8803     0.1698     1.9018     4.4985   271.6800     1.6301     0.4409
  851   17.000   4482.81     1.5422     0.0834     0.9258     0.1700     1.9243     5.4314   272.0000     1.6523     0.4478
  852   17.020   4483.81     1.6700     0.1040     0.9703     0.1702     2.0696     6.5427   272.3200     1.7973     0.4355
  853   17.040   4484.82     2.8899     0.1584     1.0449     0.1704     3.3164     7.1916   272.6400     3.0438     0.2792
  854   17.060   4485.85     5.0772     0.1856     1.1189     0.1706     5.5456     5.4348   272.9600     5.2727     0.1796
  855   17.080   4486.85     7.0945     0.2128     1.1610     0.1708     7.5448     3.6781   273.2800     7.2716     0.1239
  856   17.100   4487.95     9.0699     0.2532     0.7439     0.1710     9.4825     3.0290   273.6000     9.2089     0.0887
  857   17.120   4489.05     9.6406     0.2872     0.3293     0.1712     9.7870     2.9819   273.9200     9.5131     0.0186
  858   17.140   4490.10     9.7868     0.3179     0.3335     0.1714     9.9423     3.2652   274.2400     9.6681     0.0206
  859   17.160   4502.53    10.4817     0.3346     0.1287     0.1716    10.5655     3.4105   274.5600    10.2909     0.0046
  860   17.180   4517.61    11.3072     0.3355    -0.0760     0.1718    11.3050     3.4200   274.8800    11.0301    -0.0145
  861   17.200   4528.12    12.1023     0.3246    -0.1376     0.1720    12.0428     2.8457   275.2000    11.7676    -0.0267
  862   17.220   4529.21    13.2144     0.3126    -0.1861     0.1722    13.1452     2.3795   275.5200    12.8697    -0.0262
  863   17.240   4530.30    14.9022     0.3088    -0.2358     0.1724    14.8108     2.1245   275.8400    14.5350    -0.0268
  864   17.260   4531.46    16.7804     0.2947    -0.2686     0.1726    16.6714     1.8257   276.1600    16.3953    -0.0264
  865   17.280   4532.60    18.6988     0.2789    -0.2863     0.1728    18.5804     1.5394   276.4800    18.3039    -0.0248
  866   17.300   4533.75    20.6160     0.2245    -0.2943     0.1730    20.4937     1.1124   276.8000    20.2169    -0.0230
  867   17.320   4534.76    22.0399     0.1850    -0.3008     0.1732    21.9147     0.8598   277.1200    21.6376    -0.0218
  868   17.340   4535.72    23.3562     0.1667    -0.3071     0.1734    23.2278     0.7284   277.4400    22.9504    -0.0209
  869   17.360   4536.68    24.3973     0.1667    -0.3095     0.1736    24.2674     0.6948   277.7600    23.9896    -0.0201
  870   17.380   4537.68    24.9341     0.1773    -0.3099     0.1738    24.8042     0.7151   278.0800    24.5261    -0.0197
  871   17.400   4538.63    24.8412     0.1862    -0.3113     0.1740    24.7106     0.7432   278.4000    24.4322    -0.0199
  872   17.420   4539.57    24.3804     0.1830    -0.3102     0.1742    24.2498     0.7462   278.7200    23.9710    -0.0202
  873   17.440   4540.51    24.0332     0.1780    -0.3097     0.1744    23.9033     0.7391   279.0400    23.6242    -0.0205
  874   17.460   4541.42    24.0564     0.1880    -0.3104     0.1746    23.9263     0.7833   279.3600    23.6470    -0.0205
  875   17.480   4542.44    24.6354     0.2003    -0.3088     0.1748    24.5053     0.8170   279.6800    24.2257    -0.0200
  876   17.500   4543.39    25.3908     0.2031    -0.3068     0.1750    25.2615     0.7984   280.0000    24.9815    -0.0193
  877   17.520   4544.38    26.5316     0.2017    -0.3045     0.1752    26.4035     0.7592   280.3200    26.1232    -0.0184
  878   17.540   4545.40    27.8644     0.1994    -0.3013     0.1754    27.7375     0.7174   280.6400    27.4569    -0.0174
  879   17.560   4546.37    29.2623     0.1884    -0.2977     0.1756    29.1366     0.6477   280.9600    28.8557    -0.0165
  880   17.580   4547.40    31.2970     0.1774    -0.2939     0.1758    31.1732     0.5780   281.2800    30.8919    -0.0152
  881   17.600   4551.99    34.1744               -0.2304     0.1760    34.0590              281.6000    33.7774    -0.0135
  882   17.620   4579.88    38.0523               -0.1020     0.1762    37.9908              281.9200    37.7089    -0.0092
  883   17.640   4607.77    41.9306                0.0188     0.1764    41.9231              282.2400    41.6408    -0.0049
  884   17.660   4619.20    46.8040               -0.0375     0.1766    46.7964              282.5600    46.5138    -0.0041
  885   17.680   4623.45    52.1124               -0.0938     0.1768    52.0811              282.8800    51.7982    -0.0048
  886   17.691   4625.75    54.9903                           0.1769    54.9463              283.0535    54.6632    -0.0052
 
 
