

 Program UNIPLOT                         version 05.36.02
 _______________
 (c) Fugro Netherlands Marine, Nootdorp, The Netherlands


 ASCII representation of data plotted on a graph.

 This ASCII file presents data interpolated to values per fixed depth interval.
 The data are corrected for the depth-offset differences between the various 
 transducers in the penetrometer.

 The records at the start of penetration may include no values or anomalous
 values where a depth offset implies incomplete penetration of a particular
 sensor into the ground.

 The records at the end of penetration may include no values for data channels
 where the transducer did not reach this depth.

 The reference level for test values is (1) the ground surface for onshore tests and (2) the seafloor for nearshore and offshore tests.

 UNICAS data file          : CPT-2014.001                            
 Output using command file : PlotASCII.cmd

 ASCII file created at : date          :28-Apr-2022
                         time          :15:06:55
 Project number                        :20024805
 Date of testing                       :26-Apr-2022
 Location                              :Hong Kong Offshore Wind Farm Project
 Test name                             :CPT-2014
 Penetrometer                          :F7.5CKE2HAW2/B/3342
 Serial no                             :1701-3342

 Table description:
 Column ID                             :Parameter name
 ___________________________________________________________________________________
 Rec                                   :Record ID, Record ID [-]
 Depth                                 :Depth, Depth [m]
 Time                                  :Time, Time [s]
 Cone                                  :Cone Resistance, Cone Resistance [MPa]
 Friction                              :Sleeve Friction, Sleeve Friction [MPa]
 Pore 2                                :Porewater Pressure, Porewater Pressure at Shoulder [MPa]
 HydroPress                            :Hydrostatic Pressure, Hydrostatic Pressure [MPa]
 qt                                    :Total Cone Resistance, Total Cone Resistance [MPa]
 Fric_ratio                            :Friction Ratio, Friction Ratio [%]
 SigmaVert                             :Vertical stress, Vertical stress [kPa] as specified in ground model
 Qnet                                  :Net Cone Resistance, Net Cone Resistance [MPa], unit weight as specified in ground model
 Bq                                    :Porewater Pressure Ratio, Porewater Pressure Ratio [-], unit weight as specified in ground model


 Data table:
  Rec    Depth      Time       Cone   Friction     Pore 2 HydroPress         qt Fric_ratio  SigmaVert       Qnet         Bq
   No        m         s        MPa        MPa        MPa        MPa        MPa          %        kPa        MPa          -
    1    0.000   1490.72     0.0000                           0.0000     0.0000                0.0000     0.0000           
    2    0.020   1491.66     0.0016                0.0003     0.0002     0.0017                0.3200     0.0013    -0.0507
    3    0.040   1492.70     0.0003                0.0010     0.0004     0.0006                0.6400    -0.0001    -0.9045
    4    0.060   1493.65     0.0034                0.0014     0.0006     0.0040                0.9600     0.0030    -0.2073
    5    0.080   1494.65     0.0060                0.0006     0.0008     0.0064                1.2800     0.0051     0.0389
    6    0.100   1495.61     0.0064     0.0006     0.0000     0.0010     0.0064     9.9594     1.6000     0.0048    -0.2171
    7    0.120   1496.59     0.0078     0.0010     0.0003     0.0012     0.0078    12.4832     1.9200     0.0059    -0.1998
    8    0.140   1497.58     0.0077     0.0011     0.0008     0.0014     0.0080    11.7918     2.2400     0.0058    -0.1139
    9    0.160   1503.84     0.0075     0.0013     0.0005     0.0016     0.0078    18.4760     2.5600     0.0052    -0.1913
   10    0.180   1521.84     0.0097     0.0015     0.0004     0.0018     0.0099    21.6733     2.8800     0.0070    -0.1957
   11    0.200   1538.82     0.0116     0.0011     0.0009     0.0020     0.0118    10.0002     3.2000     0.0086    -0.1911
   12    0.220   1539.84     0.0107     0.0013     0.0031     0.0022     0.0117    13.0406     3.5200     0.0082     0.0388
   13    0.240   1540.85     0.0126     0.0015     0.0019     0.0024     0.0135    11.9946     3.8400     0.0097    -0.0154
   14    0.260   1541.82     0.0108     0.0018     0.0009     0.0026     0.0114    16.4512     4.1600     0.0073    -0.1628
   15    0.280   1542.79     0.0157     0.0019    -0.0008     0.0028     0.0156    12.7954     4.4800     0.0112    -0.2700
   16    0.300   1543.80     0.0162     0.0020    -0.0003     0.0030     0.0159    12.8832     4.8000     0.0111    -0.3317
   17    0.320   1544.77     0.0158     0.0019    -0.0024     0.0032     0.0163    10.9783     5.1200     0.0112    -0.1829
   18    0.340   1545.77     0.0151     0.0019     0.0001     0.0034     0.0146    12.2419     5.4400     0.0092    -0.4944
   19    0.360   1546.77     0.0139     0.0020     0.0032     0.0036     0.0149    13.3512     5.7600     0.0092    -0.1285
   20    0.380   1547.77     0.0180     0.0020     0.0050     0.0038     0.0200    12.2037     6.0800     0.0139     0.0592
   21    0.400   1548.74     0.0155     0.0016     0.0066     0.0040     0.0180    11.6404     6.4000     0.0116     0.1763
   22    0.420   1549.72     0.0190     0.0021     0.0077     0.0042     0.0222    11.8881     6.7200     0.0155     0.2180
   23    0.440   1550.74     0.0176     0.0018     0.0084     0.0044     0.0211     9.9015     7.0400     0.0140     0.2724
   24    0.460   1551.68     0.0201     0.0019     0.0069     0.0046     0.0235     9.5293     7.3600     0.0161     0.2168
   25    0.480   1552.68     0.0261     0.0021     0.0076     0.0048     0.0290     8.2453     7.6800     0.0213     0.0982
   26    0.500   1553.66     0.0293     0.0024     0.0066     0.0050     0.0320     8.2355     8.0000     0.0240     0.0609
   27    0.520   1554.66     0.0302     0.0023     0.0029     0.0052     0.0317     7.2346     8.3200     0.0234    -0.0729
   28    0.540   1555.68     0.0280     0.0023     0.0010     0.0054     0.0286     9.1265     8.6400     0.0200    -0.1962
   29    0.560   1556.63     0.0260     0.0025     0.0017     0.0056     0.0263     9.7505     8.9600     0.0174    -0.2757
   30    0.580   1557.63     0.0226     0.0020     0.0048     0.0058     0.0243     8.7624     9.2800     0.0150    -0.1177
   31    0.600   1558.60     0.0187     0.0020     0.0073     0.0060     0.0213    10.8242     9.6000     0.0117     0.0306
   32    0.620   1559.59     0.0162     0.0019     0.0090     0.0062     0.0197    13.5180     9.9200     0.0098     0.2314
   33    0.640   1560.56     0.0172     0.0017     0.0105     0.0064     0.0214     9.5339    10.2400     0.0112     0.3270
   34    0.660   1561.58     0.0158     0.0019     0.0117     0.0066     0.0206    12.7065    10.5600     0.0101     0.4794
   35    0.680   1562.56     0.0175     0.0017     0.0124     0.0068     0.0227    11.6590    10.8800     0.0118     0.4870
   36    0.700   1563.53     0.0152     0.0018     0.0130     0.0070     0.0205    12.2662    11.2000     0.0093     0.6240
   37    0.720   1564.51     0.0165     0.0019     0.0128     0.0072     0.0220    11.2376    11.5200     0.0105     0.5583
   38    0.740   1565.50     0.0165     0.0018     0.0093     0.0074     0.0209    11.2086    11.8400     0.0091     0.3426
   39    0.760   1566.48     0.0145     0.0018     0.0116     0.0076     0.0192    12.8248    12.1600     0.0070     0.5095
   40    0.780   1567.47     0.0166     0.0022     0.0132     0.0078     0.0219    13.9680    12.4800     0.0094     0.5043
   41    0.800   1568.50     0.0175     0.0019     0.0144     0.0080     0.0234    10.1876    12.8000     0.0106     0.5932
   42    0.820   1569.50     0.0183     0.0019     0.0143     0.0082     0.0244    11.1738    13.1200     0.0113     0.5756
   43    0.840   1570.47     0.0191     0.0023     0.0143     0.0084     0.0250    11.3191    13.4400     0.0116     0.5068
   44    0.860   1571.48     0.0157     0.0019     0.0149     0.0086     0.0219    12.0611    13.7600     0.0081     0.7509
   45    0.880   1572.43     0.0144     0.0022     0.0157     0.0088     0.0209    14.5510    14.0800     0.0068     1.0379
   46    0.900   1573.43     0.0183     0.0025     0.0170     0.0090     0.0252    13.3304    14.4000     0.0108     0.6855
   47    0.920   1574.40     0.0153     0.0019     0.0183     0.0092     0.0228    13.4815    14.7200     0.0080     1.0950
   48    0.940   1575.40     0.0199     0.0023     0.0202     0.0094     0.0282    11.2145    15.0400     0.0132     0.7901
   49    0.960   1576.40     0.0240     0.0026     0.0213     0.0096     0.0329    11.9618    15.3600     0.0175     0.6799
   50    0.980   1577.38     0.0352     0.0023     0.0184     0.0098     0.0435     6.6667    15.6800     0.0278     0.3585
   51    1.000   1578.39     0.0413     0.0028     0.0191     0.0100     0.0493     7.0524    16.0000     0.0333     0.2738
   52    1.020   1579.39     0.0420     0.0029     0.0122     0.0102     0.0481     7.0010    16.3200     0.0318     0.1323
   53    1.040   1580.38     0.0391     0.0031     0.0008     0.0104     0.0407     7.5565    16.6400     0.0241    -0.2963
   54    1.060   1581.35     0.0363     0.0029     0.0014     0.0106     0.0361     8.1512    16.9600     0.0191    -0.5750
   55    1.080   1582.32     0.0328     0.0027     0.0051     0.0108     0.0346     8.4607    17.2800     0.0173    -0.3774
   56    1.100   1583.22     0.0317     0.0027     0.0103     0.0110     0.0350     8.3955    17.6000     0.0174    -0.1924
   57    1.120   1584.11     0.0372     0.0027     0.0166     0.0112     0.0434     7.4248    17.9200     0.0255     0.1368
   58    1.140   1585.11     0.0386     0.0030     0.0197     0.0114     0.0466     7.4361    18.2400     0.0284     0.2710
   59    1.160   1586.09     0.0406     0.0033     0.0195     0.0116     0.0495     8.1545    18.5600     0.0309     0.3103
   60    1.180   1587.08     0.0407     0.0032     0.0143     0.0118     0.0472     7.9915    18.8800     0.0283     0.1293
   61    1.200   1588.06     0.0419     0.0031     0.0141     0.0120     0.0475     7.6781    19.2000     0.0283     0.0451
   62    1.220   1589.05     0.0459     0.0035     0.0192     0.0122     0.0530     8.0233    19.5200     0.0335     0.1397
   63    1.240   1590.06     0.0499     0.0031     0.0236     0.0124     0.0591     6.4153    19.8400     0.0393     0.2415
   64    1.260   1591.04     0.0559     0.0033     0.0284     0.0126     0.0677     5.8159    20.1600     0.0475     0.3238
   65    1.280   1592.02     0.0553     0.0032     0.0201     0.0128     0.0652     5.7712    20.4800     0.0447     0.2384
   66    1.300   1593.02     0.0481     0.0026     0.0175     0.0130     0.0557     5.3762    20.8000     0.0349     0.1446
   67    1.320   1594.03     0.0435     0.0029     0.0168     0.0132     0.0506     6.3581    21.1200     0.0295     0.1254
   68    1.340   1595.02     0.0398     0.0033     0.0213     0.0134     0.0478     8.4739    21.4400     0.0264     0.2145
   69    1.360   1595.93     0.0449     0.0031     0.0269     0.0136     0.0556     7.2163    21.7600     0.0339     0.3539
   70    1.380   1596.72     0.0463     0.0030     0.0293     0.0138     0.0584     6.3600    22.0800     0.0363     0.4077
   71    1.400   1597.54     0.0511     0.0031     0.0300     0.0140     0.0637     6.1194    22.4000     0.0413     0.3922
   72    1.420   1598.43     0.0475     0.0033     0.0254     0.0142     0.0586     6.8163    22.7200     0.0359     0.3426
   73    1.440   1599.44     0.0478     0.0030     0.0259     0.0144     0.0583     6.0626    23.0400     0.0352     0.3014
   74    1.460   1600.41     0.0465     0.0030     0.0254     0.0146     0.0574     6.3700    23.3600     0.0340     0.3328
   75    1.480   1601.39     0.0425     0.0033     0.0293     0.0148     0.0544     7.7493    23.6800     0.0307     0.4370
   76    1.500   1602.41     0.0460     0.0032     0.0345     0.0150     0.0597     7.0583    24.0000     0.0357     0.4906
   77    1.520   1603.37     0.0521     0.0032     0.0399     0.0152     0.0683     6.1155    24.3200     0.0440     0.5343
   78    1.540   1604.36     0.0576     0.0029     0.0426     0.0154     0.0754     5.2357    24.6400     0.0507     0.5296
   79    1.560   1605.31     0.0553     0.0032     0.0404     0.0156     0.0724     5.6837    24.9600     0.0474     0.5309
   80    1.580   1606.31     0.0548     0.0034     0.0424     0.0158     0.0717     6.4176    25.2800     0.0464     0.5263
   81    1.600   1607.29     0.0572     0.0036     0.0448     0.0160     0.0762     6.3882    25.6000     0.0506     0.5765
   82    1.620   1608.29     0.0656     0.0039     0.0420     0.0162     0.0835     6.2347    25.9200     0.0576     0.4588
   83    1.640   1609.24     0.0779     0.0042     0.0435     0.0164     0.0958     5.6598    26.2400     0.0696     0.3765
   84    1.660   1610.24     0.0890     0.0043     0.0470     0.0166     0.1079     4.8339    26.5600     0.0813     0.3487
   85    1.680   1611.24     0.0948     0.0046     0.0410     0.0168     0.1136     4.8540    26.8800     0.0867     0.3239
   86    1.700   1612.24     0.0968     0.0048     0.0352     0.0170     0.1121     4.9727    27.2000     0.0849     0.2282
   87    1.720   1613.22     0.1031     0.0048     0.0336     0.0172     0.1169     4.7208    27.5200     0.0894     0.1769
   88    1.740   1614.21     0.1016     0.0044     0.0315     0.0174     0.1145     4.1222    27.8400     0.0867     0.1537
   89    1.760   1615.16     0.1161     0.0044     0.0316     0.0176     0.1300     3.9598    28.1600     0.1018     0.1524
   90    1.780   1616.15     0.1500     0.0041     0.0250     0.0178     0.1620     2.9238    28.4800     0.1335     0.0822
   91    1.800   1617.17     0.1551     0.0038     0.0181     0.0180     0.1636     2.4304    28.8000     0.1348     0.0163
   92    1.820   1618.15     0.1429     0.0040     0.0107     0.0182     0.1489     2.6293    29.1200     0.1198    -0.0330
   93    1.840   1619.12     0.1043     0.0044     0.0061     0.0184     0.1067     4.0562    29.4400     0.0773    -0.1652
   94    1.860   1620.10     0.0826     0.0043     0.0112     0.0186     0.0861     4.9500    29.7600     0.0564    -0.1798
   95    1.880   1621.10     0.0827     0.0057     0.0206     0.0188     0.0902     6.9549    30.0800     0.0601    -0.0176
   96    1.900   1622.11     0.0846     0.0064     0.0254     0.0190     0.0947     7.6128    30.4000     0.0643     0.0787
   97    1.920   1623.07     0.0781     0.0054     0.0280     0.0192     0.0891     6.5462    30.7200     0.0583     0.1192
   98    1.940   1624.05     0.0910     0.0048     0.0333     0.0194     0.1045     5.1191    31.0400     0.0735     0.1730
   99    1.960   1625.06     0.0986     0.0049     0.0390     0.0196     0.1140     4.8784    31.3600     0.0827     0.2069
  100    1.980   1626.01     0.1532     0.0046     0.0449     0.0198     0.1735     3.2605    31.6800     0.1418     0.2060
  101    2.000   1627.00     0.1974     0.0045     0.0292     0.0200     0.2118     2.3424    32.0000     0.1798     0.0804
  102    2.020   1628.01     0.2166     0.0043     0.0174     0.0202     0.2263     1.9156    32.3200     0.1939     0.0146
  103    2.040   1629.00     0.0962     0.0043     0.0026     0.0204     0.0956     2.3355    32.6400     0.0629    -0.3499
  104    2.060   1629.99     0.1138     0.0043     0.0177     0.0206     0.1197     2.7553    32.9600     0.0867    -0.0796
  105    2.080   1630.97     0.1444     0.0042     0.0311     0.0208     0.1552     2.9918    33.2800     0.1219     0.0374
  106    2.100   1631.94     0.1735     0.0041     0.0415     0.0210     0.1894     2.4648    33.6000     0.1558     0.1073
  107    2.120   1632.91     0.1805     0.0033     0.0384     0.0212     0.1972     1.7901    33.9200     0.1633     0.1136
  108    2.140   1642.78     0.1728     0.0044     0.0326     0.0214     0.1873     2.5199    34.2400     0.1531     0.0846
  109    2.160   1658.31     0.1703     0.0048     0.0268     0.0216     0.1824     2.8512    34.5600     0.1478     0.0457
  110    2.180   1673.84     0.1678     0.0053     0.0211     0.0218     0.1774     3.1826    34.8800     0.1425     0.0068
  111    2.200   1678.97     0.1497     0.0068     0.0260     0.0220     0.1592     4.4740    35.2000     0.1240     0.0048
  112    2.220   1679.98     0.1548     0.0073     0.0387     0.0222     0.1679     4.8564    35.5200     0.1324     0.0657
  113    2.240   1682.78     0.4590     0.0062     0.0569     0.0224     0.4862     2.8921    35.8400     0.4503     0.0963
  114    2.260   1706.21     0.5991     0.0058     0.0342     0.0226     0.6167     1.3001    36.1600     0.5806     0.0518
  115    2.280   1729.63     0.7392     0.0069     0.0115     0.0228     0.7473     1.5236    36.4800     0.7108     0.0074
  116    2.300   1746.92     0.8675     0.0081    -0.0039     0.0230     0.8674     0.9576    36.8000     0.8306    -0.0277
  117    2.320   1747.54     0.9147     0.0073    -0.0120     0.0232     0.9107     0.8268    37.1200     0.8736    -0.0375
  118    2.340   1748.20     0.8701     0.0069    -0.0063     0.0234     0.8664     0.7849    37.4400     0.8289    -0.0388
  119    2.360   1748.84     0.8639     0.0068     0.0044     0.0236     0.8639     0.7886    37.7600     0.8262    -0.0286
  120    2.380   1749.52     0.8902     0.0050     0.0081     0.0238     0.8935     0.5636    38.0800     0.8554    -0.0187
  121    2.400   1750.17     0.8723     0.0040    -0.0041     0.0240     0.8726     0.4597    38.4000     0.8342    -0.0282
  122    2.420   1750.77     0.8833     0.0035    -0.0164     0.0242     0.8777     0.4020    38.7200     0.8390    -0.0448
  123    2.440   1751.39     0.8930     0.0039    -0.0218     0.0244     0.8843     0.4817    39.0400     0.8453    -0.0534
  124    2.460   1752.03     0.8543     0.0044    -0.0256     0.0246     0.8441     0.5802    39.3600     0.8048    -0.0608
  125    2.480   1752.65     0.7308     0.0049    -0.0168     0.0248     0.7223     0.6788    39.6800     0.6826    -0.0659
  126    2.500   1753.30     0.6493     0.0042    -0.0064     0.0250     0.6451     0.6262    40.0000     0.6051    -0.0578
  127    2.520   1753.93     0.6997     0.0037     0.0030     0.0252     0.6996     0.5572    40.3200     0.6593    -0.0387
  128    2.540   1764.02     0.8075     0.0027     0.0032     0.0254     0.8091     0.3629    40.6400     0.7684    -0.0286
  129    2.560   1784.36     0.9470     0.0022     0.0016     0.0256     0.9479     0.3021    40.9600     0.9070    -0.0266
  130    2.580   1804.70     1.0866     0.0021     0.0000     0.0258     1.0868     0.2853    41.2800     1.0455    -0.0245
  131    2.600   1817.62     1.2070     0.0025    -0.0045     0.0260     1.2063     0.2049    41.6000     1.1647    -0.0238
  132    2.620   1818.66     1.2913     0.0031    -0.0061     0.0262     1.2886     0.2398    41.9200     1.2467    -0.0262
  133    2.640   1819.62     1.3650     0.0042    -0.0015     0.0264     1.3633     0.3105    42.2400     1.3211    -0.0230
  134    2.660   1820.66     1.4674     0.0056     0.0053     0.0266     1.4688     0.3804    42.5600     1.4262    -0.0164
  135    2.680   1821.68     1.5875     0.0068     0.0115     0.0268     1.5917     0.4345    42.8800     1.5488    -0.0109
  136    2.700   1822.64     1.6761     0.0072     0.0154     0.0270     1.6819     0.4313    43.2000     1.6387    -0.0081
  137    2.720   1823.66     1.7891     0.0078     0.0199     0.0272     1.7968     0.4375    43.5200     1.7533    -0.0050
  138    2.740   1824.69     1.8972     0.0088     0.0235     0.0274     1.9067     0.4662    43.8400     1.8629    -0.0026
  139    2.760   1825.68     1.9956     0.0101     0.0259     0.0276     2.0062     0.5085    44.1600     1.9620    -0.0013
  140    2.780   1826.65     2.0917     0.0107     0.0279     0.0278     2.1032     0.5132    44.4800     2.0587    -0.0003
  141    2.800   1827.61     2.1868     0.0103     0.0296     0.0280     2.1990     0.4724    44.8000     2.1542     0.0004
  142    2.820   1828.67     2.2495     0.0099     0.0301     0.0282     2.2621     0.4413    45.1200     2.2169     0.0008
  143    2.840   1829.68     2.2671     0.0100     0.0309     0.0284     2.2800     0.4414    45.4400     2.2345     0.0010
  144    2.860   1830.69     2.2928     0.0099     0.0325     0.0286     2.3062     0.4326    45.7600     2.2605     0.0015
  145    2.880   1831.65     2.3787     0.0096     0.0319     0.0288     2.3922     0.4053    46.0800     2.3461     0.0015
  146    2.900   1832.63     2.5236     0.0096     0.0314     0.0290     2.5369     0.3846    46.4000     2.4905     0.0011
  147    2.920   1833.70     2.6521     0.0093     0.0297     0.0292     2.6648     0.3538    46.7200     2.6181     0.0004
  148    2.940   1834.68     2.7569     0.0095     0.0287     0.0294     2.7690     0.3456    47.0400     2.7219    -0.0003
  149    2.960   1835.66     2.8265     0.0096     0.0306     0.0296     2.8388     0.3420    47.3600     2.7915    -0.0001
  150    2.980   1836.64     2.8618     0.0096     0.0302     0.0298     2.8745     0.3347    47.6800     2.8268     0.0001
  151    3.000   1837.65     2.8738     0.0093     0.0317     0.0300     2.8870     0.3248    48.0000     2.8390     0.0005
  152    3.020   1838.60     2.8715     0.0088     0.0319     0.0302     2.8851     0.3061    48.3200     2.8367     0.0008
  153    3.040   1839.68     2.8581     0.0087     0.0316     0.0304     2.8714     0.3054    48.6400     2.8228     0.0005
  154    3.060   1840.64     2.8161     0.0089     0.0319     0.0306     2.8292     0.3146    48.9600     2.7802     0.0002
  155    3.080   1841.65     2.8708     0.0095     0.0322     0.0308     2.8843     0.3314    49.2800     2.8351     0.0005
  156    3.100   1842.65     2.9298     0.0093     0.0325     0.0310     2.9434     0.3173    49.6000     2.8938     0.0005
  157    3.120   1843.65     2.9735     0.0095     0.0329     0.0312     2.9872     0.3197    49.9200     2.9373     0.0005
  158    3.140   1844.66     3.0303     0.0101     0.0331     0.0314     3.0441     0.3346    50.2400     2.9939     0.0005
  159    3.160   1845.63     3.1457     0.0116     0.0332     0.0316     3.1596     0.3726    50.5600     3.1091     0.0005
  160    3.180   1846.68     3.2889     0.0117     0.0330     0.0318     3.3028     0.3570    50.8800     3.2519     0.0004
  161    3.200   1847.67     3.4155     0.0121     0.0330     0.0320     3.4294     0.3545    51.2000     3.3782     0.0003
  162    3.220   1848.66     3.5217     0.0115     0.0333     0.0322     3.5356     0.3259    51.5200     3.4841     0.0002
  163    3.240   1849.69     3.6038     0.0116     0.0339     0.0324     3.6179     0.3219    51.8400     3.5660     0.0003
  164    3.260   1850.71     3.5597     0.0130     0.0345     0.0326     3.5741     0.3631    52.1600     3.5219     0.0005
  165    3.280   1851.71     3.4795     0.0148     0.0351     0.0328     3.4942     0.4238    52.4800     3.4417     0.0006
  166    3.300   1852.72     3.4095     0.0147     0.0355     0.0330     3.4243     0.4315    52.8000     3.3715     0.0007
  167    3.320   1853.74     3.4297     0.0140     0.0357     0.0332     3.4447     0.4132    53.1200     3.3916     0.0008
  168    3.340   1854.71     3.6118     0.0141     0.0350     0.0334     3.6267     0.3918    53.4400     3.5733     0.0006
  169    3.360   1855.72     3.9471     0.0148     0.0330     0.0336     3.9613     0.3804    53.7600     3.9076     0.0001
  170    3.380   1856.75     4.2651     0.0157     0.0304     0.0338     4.2781     0.3756    54.0800     4.2240    -0.0007
  171    3.400   1857.77     4.3993     0.0157     0.0278     0.0340     4.4115     0.3564    54.4000     4.3571    -0.0011
  172    3.420   1858.77     4.4879     0.0152     0.0290     0.0342     4.4987     0.3399    54.7200     4.4440    -0.0019
  173    3.440   1859.81     4.5233     0.0153     0.0332     0.0344     4.5372     0.3390    55.0400     4.4821    -0.0003
  174    3.460   1860.81     4.4763     0.0146     0.0344     0.0346     4.4906     0.3266    55.3600     4.4352    -0.0001
  175    3.480   1861.80     4.4888     0.0137     0.0365     0.0348     4.5043     0.3060    55.6800     4.4486     0.0005
  176    3.500   1862.82     4.6248     0.0139     0.0366     0.0350     4.6401     0.3010    56.0000     4.5841     0.0003
  177    3.520   1863.80     4.8514     0.0145     0.0366     0.0352     4.8668     0.3002    56.3200     4.8104     0.0003
  178    3.540   1864.82     5.1291     0.0154     0.0363     0.0354     5.1443     0.3087    56.6400     5.0877     0.0002
  179    3.560   1865.78     5.3208     0.0162     0.0367     0.0356     5.3362     0.3091    56.9600     5.2793     0.0002
  180    3.580   1866.87     5.5430     0.0181     0.0365     0.0358     5.5584     0.3284    57.2800     5.5011     0.0001
  181    3.600   1867.86     5.7905     0.0197     0.0358     0.0360     5.8056     0.3480    57.6000     5.7480     0.0000
  182    3.620   1868.88     6.0685     0.0215     0.0368     0.0362     6.0840     0.3620    57.9200     6.0261     0.0001
  183    3.640   1869.91     6.3331     0.0236     0.0373     0.0364     6.3488     0.3738    58.2400     6.2906     0.0001
  184    3.660   1870.93     6.6140     0.0262     0.0370     0.0366     6.6296     0.3977    58.5600     6.5711     0.0001
  185    3.680   1871.96     6.8147     0.0278     0.0375     0.0368     6.8304     0.4101    58.8800     6.7715     0.0001
  186    3.700   1872.96     6.9926     0.0294     0.0376     0.0370     7.0085     0.4225    59.2000     6.9493     0.0001
  187    3.720   1873.99     7.1742     0.0319     0.0378     0.0372     7.1900     0.4455    59.5200     7.1305     0.0001
  188    3.740   1874.99     7.3654     0.0331     0.0382     0.0374     7.3814     0.4510    59.8400     7.3215     0.0001
  189    3.760   1875.96     7.5764     0.0347     0.0386     0.0376     7.5925     0.4588    60.1600     7.5323     0.0001
  190    3.780   1877.83     7.7971     0.0348     0.0387     0.0378     7.8133     0.4553    60.4800     7.7528     0.0001
  191    3.800   1879.99     8.0156     0.0354     0.0389     0.0380     8.0319     0.4638    60.8000     7.9711     0.0001
  192    3.820   1881.94     8.2248     0.0367     0.0390     0.0382     8.2411     0.4658    61.1200     8.1800     0.0001
  193    3.840   1882.97     8.4272     0.0365     0.0388     0.0384     8.4436     0.4393    61.4400     8.3821     0.0001
  194    3.860   1884.03     8.6583     0.0385     0.0381     0.0386     8.6742     0.4494    61.7600     8.6124    -0.0001
  195    3.880   1885.00     8.8515     0.0418     0.0401     0.0388     8.8682     0.4765    62.0800     8.8061     0.0001
  196    3.900   1886.03     9.0252     0.0435     0.0385     0.0390     9.0418     0.4856    62.4000     8.9794     0.0000
  197    3.920   1887.07     9.1981     0.0456     0.0388     0.0392     9.2141     0.4995    62.7200     9.1514    -0.0001
  198    3.940   1888.10     9.4850     0.0459     0.0392     0.0394     9.5015     0.4909    63.0400     9.4385     0.0000
  199    3.960   1889.15     9.7053     0.0454     0.0397     0.0396     9.7219     0.4711    63.3600     9.6586     0.0000
  200    3.980   1890.19     9.8028     0.0437     0.0402     0.0398     9.8195     0.4473    63.6800     9.7559     0.0000
  201    4.000   1891.19     9.8588     0.0456     0.0396     0.0400     9.8753     0.4648    64.0000     9.8113    -0.0001
  202    4.020   1892.21     9.9082     0.0485     0.0411     0.0402     9.9252     0.4947    64.3200     9.8609     0.0000
  203    4.040   1893.27     9.8082     0.0515     0.0412     0.0404     9.8257     0.5247    64.6400     9.7611     0.0001
  204    4.060   1894.27     9.9016     0.0666     0.0419     0.0406     9.9191     0.6731    64.9600     9.8542     0.0001
  205    4.080   1895.30    10.1329     0.0578     0.0407     0.0408    10.1499     0.5761    65.2800    10.0846     0.0000
  206    4.100   1898.80    10.4509     0.0604     0.0394     0.0410    10.4679     0.5842    65.6000    10.4023    -0.0001
  207    4.120   1925.36    10.9836     0.0620     0.0364     0.0412    10.9993     0.5964    65.9200    10.9334    -0.0003
  208    4.140   1951.91    11.5163     0.0623     0.0335     0.0414    11.5308     0.5988    66.2400    11.4646    -0.0006
  209    4.160   1965.93    12.3895     0.0629     0.0431     0.0416    12.4050     0.5380    66.5600    12.3385    -0.0004
  210    4.180   1968.42    13.1705     0.0641     0.0371     0.0418    13.1849     0.5201    66.8800    13.1180    -0.0006
  211    4.200   1969.50    13.8639     0.0656     0.0359     0.0420    13.8791     0.4798    67.2000    13.8119    -0.0004
  212    4.220   1971.93    13.0304     0.0670     0.0321     0.0422    13.0469     0.5327    67.5200    12.9794    -0.0002
  213    4.240   1973.02    14.2758     0.0712     0.0428     0.0424    14.2939     0.4997    67.8400    14.2260     0.0000
  214    4.260   1974.05    14.0474     0.0714     0.0374     0.0426    14.0632     0.5045    68.1600    13.9951    -0.0004
  215    4.280   1975.15    13.7406     0.0720     0.0417     0.0428    13.7578     0.5208    68.4800    13.6893    -0.0001
  216    4.300   1976.20    13.4786     0.0737     0.0432     0.0430    13.4957     0.5435    68.8000    13.4269    -0.0002
  217    4.320   1977.18    13.5458     0.0737     0.0426     0.0432    13.5637     0.5468    69.1200    13.4945    -0.0001
  218    4.340   1978.23    13.8968     0.0871     0.0415     0.0434    13.9146     0.6344    69.4400    13.8451    -0.0001
  219    4.360   1979.31    13.9821     0.0782     0.0439     0.0436    14.0000     0.5580    69.7600    13.9302    -0.0001
  220    4.380   1980.34    13.6602     0.0830     0.0431     0.0438    13.6790     0.6010    70.0800    13.6089     0.0001
  221    4.400   1981.44    13.2610     0.0835     0.0322     0.0440    13.2760     0.6200    70.4000    13.2056    -0.0006
  222    4.420   1982.44    12.7791     0.0810     0.0415     0.0442    12.7947     0.6239    70.7200    12.7240    -0.0005
  223    4.440   1983.49    12.4926     0.0801     0.0459     0.0444    12.5090     0.6369    71.0400    12.4379    -0.0004
  224    4.460   1985.47    12.0302     0.0789     0.0435     0.0446    12.0494     0.6799    71.3600    11.9780     0.0001
  225    4.480   1986.52    12.5058     0.0768     0.0427     0.0448    12.5245     0.6167    71.6800    12.4528     0.0000
  226    4.500   1987.56    12.5443     0.0746     0.0331     0.0450    12.5590     0.5934    72.0000    12.4870    -0.0008
  227    4.520   1988.58    12.4858     0.0726     0.0368     0.0452    12.5009     0.5808    72.3200    12.4285    -0.0008
  228    4.540   1989.63    12.6116     0.0699     0.0411     0.0454    12.6289     0.5574    72.6400    12.5562    -0.0003
  229    4.560   1990.71    12.9794     0.0693     0.0414     0.0456    12.9961     0.5383    72.9600    12.9231    -0.0005
  230    4.580   1991.74    13.4955     0.0700     0.0423     0.0458    13.5135     0.5229    73.2800    13.4402    -0.0002
  231    4.600   1992.76    14.2163     0.0717     0.0419     0.0460    14.2341     0.5103    73.6000    14.1605    -0.0003
  232    4.620   1993.87    14.8673     0.0740     0.0326     0.0462    14.8839     0.5023    73.9200    14.8100    -0.0004
  233    4.640   1994.94    15.3534     0.0757     0.0338     0.0464    15.3674     0.4971    74.2400    15.2931    -0.0009
  234    4.660   1996.05    15.8704     0.0800     0.0252     0.0466    15.8827     0.5080    74.5600    15.8082    -0.0011
  235    4.680   1997.11    16.0052     0.0822     0.0242     0.0468    16.0155     0.5137    74.8800    15.9406    -0.0014
  236    4.700   1998.16    15.9925     0.0816     0.0294     0.0470    16.0039     0.5102    75.2000    15.9287    -0.0013
  237    4.720   1999.21    15.9610     0.0821     0.0334     0.0472    15.9753     0.5144    75.5200    15.8998    -0.0008
  238    4.740   2000.27    15.8988     0.0804     0.0446     0.0474    15.9169     0.5051    75.8400    15.8411    -0.0003
  239    4.760   2001.35    15.8673     0.0792     0.0423     0.0476    15.8845     0.4985    76.1600    15.8084    -0.0004
  240    4.780   2002.44    15.8180     0.0762     0.0470     0.0478    15.8356     0.4816    76.4800    15.7591    -0.0004
  241    4.800   2003.48    15.6469     0.0721     0.0344     0.0480    15.6640     0.4585    76.8000    15.5872    -0.0005
  242    4.820   2004.56    15.1534     0.0736     0.0424     0.0482    15.1689     0.4798    77.1200    15.0918    -0.0007
  243    4.840   2005.59    14.7482     0.0806     0.0430     0.0484    14.7657     0.5420    77.4400    14.6882    -0.0005
  244    4.860   2006.67    14.4336     0.0914     0.0503     0.0486    14.4533     0.6295    77.7600    14.3756    -0.0001
  245    4.880   2007.72    14.2815     0.1024     0.0413     0.0488    14.2963     0.7121    78.0800    14.2182    -0.0010
  246    4.900   2008.81    14.0717     0.1076     0.0500     0.0490    14.0917     0.7582    78.4000    14.0133    -0.0001
  247    4.920   2009.87    13.7915     0.1102     0.0486     0.0492    13.8099     0.7925    78.7200    13.7312    -0.0004
  248    4.940   2010.88    13.4844     0.1111     0.0467     0.0494    13.5034     0.8169    79.0400    13.4243    -0.0003
  249    4.960   2011.91    13.1974     0.1105     0.0496     0.0496    13.2175     0.8320    79.3600    13.1381    -0.0001
  250    4.980   2012.94    12.9546     0.1084     0.0487     0.0498    12.9745     0.8339    79.6800    12.8948    -0.0002
  251    5.000   2014.01    12.9256     0.1074     0.0493     0.0500    12.9459     0.8331    80.0000    12.8659    -0.0001
  252    5.020   2015.05    13.1939     0.1060     0.0525     0.0502    13.2154     0.8101    80.3200    13.1351     0.0001
  253    5.040   2016.12    13.6869     0.1070     0.0504     0.0504    13.7082     0.7907    80.6400    13.6275     0.0000
  254    5.060   2017.23    14.1671     0.1085     0.0467     0.0506    14.1871     0.7718    80.9600    14.1061    -0.0002
  255    5.080   2018.26    14.4270     0.1068     0.0409     0.0508    14.4456     0.7412    81.2800    14.3643    -0.0005
  256    5.100   2019.31    14.1468     0.1006     0.0332     0.0510    14.1646     0.7057    81.6000    14.0830    -0.0006
  257    5.120   2020.33    13.7438     0.0924     0.0425     0.0512    13.7591     0.6673    81.9200    13.6772    -0.0011
  258    5.140   2021.41    13.4093     0.0838     0.0461     0.0514    13.4285     0.6218    82.2400    13.3463    -0.0004
  259    5.160   2022.47    13.2221     0.0818     0.0472     0.0516    13.2425     0.6172    82.5600    13.1599    -0.0002
  260    5.180   2023.52    13.2197     0.0813     0.0485     0.0518    13.2403     0.6169    82.8800    13.1574    -0.0002
  261    5.200   2024.60    13.4175     0.0788     0.0466     0.0520    13.4382     0.5916    83.2000    13.3550    -0.0002
  262    5.220   2025.67    13.4619     0.0763     0.0437     0.0522    13.4798     0.5654    83.5200    13.3963    -0.0007
  263    5.240   2026.68    13.2705     0.0724     0.0452     0.0524    13.2896     0.5419    83.8400    13.2058    -0.0005
  264    5.260   2027.77    12.8693     0.0647     0.0403     0.0526    12.8871     0.4968    84.1600    12.8030    -0.0008
  265    5.280   2028.77    12.3306     0.0577     0.0401     0.0528    12.3476     0.4603    84.4800    12.2631    -0.0010
  266    5.300   2029.79    11.6601     0.0538     0.0402     0.0530    11.6770     0.4508    84.8000    11.5922    -0.0011
  267    5.320   2030.87    10.8835     0.0497     0.0407     0.0532    10.9023     0.4436    85.1200    10.8172    -0.0008
  268    5.340   2031.89    10.1547     0.0474     0.0418     0.0534    10.1723     0.4652    85.4400    10.0868    -0.0011
  269    5.360   2032.93     9.6165     0.0468     0.0480     0.0536     9.6368     0.4849    85.7600     9.5510    -0.0006
  270    5.380   2033.98     9.1256     0.0480     0.0503     0.0538     9.1468     0.5165    86.0800     9.0607    -0.0004
  271    5.400   2034.99     8.4483     0.0484     0.0463     0.0540     8.4682     0.5707    86.4000     8.3818    -0.0008
  272    5.420   2035.95     7.6084     0.0522     0.0476     0.0542     7.6284     0.6485    86.7200     7.5417    -0.0009
  273    5.440   2036.97     6.7098     0.0538     0.0499     0.0544     6.7304     0.7536    87.0400     6.6433    -0.0008
  274    5.460   2037.97     5.9069     0.0572     0.0486     0.0546     5.9273     0.9118    87.3600     5.8399    -0.0010
  275    5.480   2039.03     5.0927     0.0531     0.0483     0.0548     5.1132     1.0014    87.6800     5.0255    -0.0012
  276    5.500   2040.04     4.6078     0.0488     0.0544     0.0550     4.6296     1.0260    88.0000     4.5416    -0.0007
  277    5.520   2041.06     4.5337     0.0467     0.0588     0.0552     4.5581     1.0322    88.3200     4.4698     0.0007
  278    5.540   2042.06     4.4728     0.0457     0.0577     0.0554     4.4970     1.0192    88.6400     4.4084     0.0005
  279    5.560   2043.07     4.3914     0.0464     0.0427     0.0556     4.4133     1.0488    88.9600     4.3243    -0.0008
  280    5.580   2044.10     4.4643     0.0430     0.0233     0.0558     4.4756     0.9664    89.2800     4.3863    -0.0066
  281    5.600   2045.10     4.6936     0.0343     0.0162     0.0560     4.7012     0.7367    89.6000     4.6116    -0.0082
  282    5.620   2046.08     4.9809     0.0332     0.0143     0.0562     4.9870     0.6906    89.9200     4.8970    -0.0085
  283    5.640   2047.07     5.3638     0.0326     0.0007     0.0564     5.3679     0.6498    90.2400     5.2777    -0.0089
  284    5.660   2048.15     5.4365     0.0320    -0.0414     0.0566     5.4237     0.6091    90.5600     5.3331    -0.0163
  285    5.680   2049.11     4.8976     0.0330    -0.0599     0.0568     4.8733     0.6276    90.8800     4.7824    -0.0241
  286    5.700   2050.15     3.8912     0.0374    -0.0571     0.0570     3.8669     0.9501    91.2000     3.7757    -0.0305
  287    5.720   2051.15     2.8808     0.0461    -0.0440     0.0572     2.8583     1.5413    91.5200     2.7668    -0.0401
  288    5.740   2053.39     2.3034     0.0555    -0.0088     0.0574     2.2946     1.9957    91.8400     2.2028    -0.0303
  289    5.760   2055.77     1.7718     0.0542     0.0265     0.0576     1.7779     1.9494    92.1600     1.6857    -0.0183
  290    5.780   2058.14     1.2403     0.0469     0.0568     0.0578     1.2611     3.1614    92.4800     1.1686    -0.0063
  291    5.800   2059.19     1.0677     0.0408     0.0603     0.0580     1.0932     3.7872    92.8000     1.0004     0.0027
  292    5.820   2060.26     0.8808     0.0350     0.0603     0.0582     0.9062     3.8332    93.1200     0.8131     0.0028
  293    5.840   2061.24     0.7325     0.0283     0.0624     0.0584     0.7580     3.7572    93.4400     0.6646     0.0036
  294    5.860   2062.26     0.5858     0.0204     0.1047     0.0586     0.6157     3.3367    93.7600     0.5219     0.0243
  295    5.880   2063.24     0.5066     0.0150     0.1649     0.0588     0.5706     2.9529    94.0800     0.4765     0.1961
  296    5.900   2064.21     0.5239     0.0120     0.1877     0.0590     0.6003     2.3053    94.4000     0.5059     0.2429
  297    5.920   2065.21     0.5394     0.0102     0.2001     0.0592     0.6217     1.8940    94.7200     0.5270     0.2596
  298    5.940   2066.19     0.5388     0.0111     0.2134     0.0594     0.6263     2.0705    95.0400     0.5312     0.2800
  299    5.960   2067.17     0.5941     0.0112     0.2267     0.0596     0.6884     1.9181    95.3600     0.5931     0.2783
  300    5.980   2068.19     0.6937     0.0110     0.2244     0.0598     0.7888     1.6046    95.6800     0.6931     0.2406
  301    6.000   2069.16     0.7197     0.0107     0.2200     0.0600     0.8127     1.4755    96.0000     0.7167     0.2251
  302    6.020   2070.16     0.6372     0.0107     0.2216     0.0602     0.7295     1.6402    96.3200     0.6332     0.2523
  303    6.040   2071.21     0.5771     0.0108     0.2382     0.0604     0.6749     1.8589    96.6400     0.5782     0.2983
  304    6.060   2072.16     0.5591     0.0110     0.2495     0.0606     0.6621     1.9472    96.9600     0.5651     0.3267
  305    6.080   2073.20     0.5451     0.0111     0.2595     0.0608     0.6525     2.0355    97.2800     0.5552     0.3514
  306    6.100   2074.16     0.5427     0.0118     0.2677     0.0610     0.6540     2.1633    97.6000     0.5564     0.3667
  307    6.120   2075.11     0.5409     0.0124     0.2728     0.0612     0.6553     2.2993    97.9200     0.5574     0.3788
  308    6.140   2076.10     0.5190     0.0127     0.2705     0.0614     0.6332     2.4295    98.2400     0.5350     0.3937
  309    6.160   2091.05     0.4938     0.0133     0.2625     0.0616     0.6052     2.5567    98.5600     0.5066     0.4030
  310    6.180   2109.14     0.4622     0.0119     0.2544     0.0618     0.5702     2.2910    98.8800     0.4714     0.4154
  311    6.200   2119.27     0.4483     0.0099     0.2626     0.0620     0.5568     2.2033    99.2000     0.4576     0.4293
  312    6.220   2120.27     0.4476     0.0100     0.2724     0.0622     0.5611     2.2350    99.5200     0.4616     0.4506
  313    6.240   2121.22     0.4696     0.0114     0.2708     0.0624     0.5834     2.4466    99.8400     0.4836     0.4315
  314    6.260   2122.19     0.5029     0.0150     0.2904     0.0626     0.6210     3.0275   100.1600     0.5208     0.4198
  315    6.280   2123.22     0.6353     0.0176     0.3008     0.0628     0.7629     2.9010   100.4800     0.6624     0.3645
  316    6.300   2124.27     0.8292     0.0219     0.2526     0.0630     0.9352     2.7311   100.8000     0.8344     0.2270
  317    6.320   2125.27     0.9122     0.0265     0.2596     0.0632     1.0215     2.9361   101.1200     0.9204     0.2141
  318    6.340   2126.22     1.0164     0.0327     0.2521     0.0634     1.1229     3.2529   101.4400     1.0215     0.1863
  319    6.360   2127.22     1.0676     0.0396     0.2639     0.0636     1.1778     3.7229   101.7600     1.0760     0.1848
  320    6.380   2128.22     1.1215     0.0446     0.2676     0.0638     1.2334     4.0261   102.0800     1.1313     0.1791
  321    6.400   2129.25     1.1502     0.0473     0.2589     0.0640     1.2594     4.1166   102.4000     1.1570     0.1694
  322    6.420   2130.21     1.1603     0.0507     0.2606     0.0642     1.2700     4.3761   102.7200     1.1673     0.1688
  323    6.440   2131.21     1.1665     0.0543     0.2544     0.0644     1.2745     4.6596   103.0400     1.1715     0.1646
  324    6.460   2132.23     1.1366     0.0568     0.2570     0.0646     1.2446     4.9623   103.3600     1.1412     0.1686
  325    6.480   2133.18     1.1448     0.0576     0.2634     0.0648     1.2539     5.0405   103.6800     1.1502     0.1694
  326    6.500   2134.16     1.1515     0.0570     0.2623     0.0650     1.2619     4.9766   104.0000     1.1579     0.1709
  327    6.520   2135.17     1.1871     0.0567     0.2703     0.0652     1.2985     4.7987   104.3200     1.1942     0.1674
  328    6.540   2136.18     1.1659     0.0542     0.2802     0.0654     1.2828     4.6302   104.6400     1.1782     0.1807
  329    6.560   2137.21     1.1806     0.0539     0.2858     0.0656     1.2999     4.5698   104.9600     1.1949     0.1827
  330    6.580   2138.17     1.1710     0.0558     0.2885     0.0658     1.2914     4.7608   105.2800     1.1862     0.1862
  331    6.600   2139.18     1.1713     0.0510     0.3005     0.0660     1.2959     4.3363   105.6000     1.1903     0.1939
  332    6.620   2140.13     1.1731     0.0496     0.3097     0.0662     1.3020     4.2393   105.9200     1.1961     0.2014
  333    6.640   2141.12     1.2109     0.0486     0.3030     0.0664     1.3380     4.0436   106.2400     1.2317     0.1918
  334    6.660   2142.16     1.2269     0.0483     0.3216     0.0666     1.3599     3.9385   106.5600     1.2533     0.1995
  335    6.680   2143.14     1.2161     0.0480     0.3319     0.0668     1.3551     3.9263   106.8800     1.2482     0.2117
  336    6.700   2144.13     1.1953     0.0477     0.3347     0.0670     1.3351     4.0218   107.2000     1.2279     0.2164
  337    6.720   2145.12     1.2272     0.0465     0.3382     0.0672     1.3691     3.7803   107.5200     1.2616     0.2145
  338    6.740   2146.11     1.1899     0.0471     0.3415     0.0674     1.3325     3.9408   107.8400     1.2246     0.2222
  339    6.760   2147.11     1.1820     0.0466     0.3379     0.0676     1.3244     3.9393   108.1600     1.2162     0.2232
  340    6.780   2148.12     1.1387     0.0473     0.3297     0.0678     1.2784     4.1318   108.4800     1.1699     0.2264
  341    6.800   2149.12     1.0767     0.0453     0.3345     0.0680     1.2161     4.1817   108.8000     1.1073     0.2385
  342    6.820   2150.09     1.0574     0.0445     0.3361     0.0682     1.1996     4.2077   109.1200     1.0904     0.2478
  343    6.840   2151.08     1.0618     0.0483     0.3250     0.0684     1.1996     4.5516   109.4400     1.0902     0.2382
  344    6.860   2152.10     1.0680     0.0521     0.3144     0.0686     1.2017     4.8842   109.7600     1.0919     0.2287
  345    6.880   2153.12     1.0557     0.0503     0.3001     0.0688     1.1835     4.7445   110.0800     1.0734     0.2194
  346    6.900   2154.08     1.0300     0.0467     0.2818     0.0690     1.1519     4.5205   110.4000     1.0415     0.2123
  347    6.920   2155.13     0.9847     0.0435     0.2559     0.0692     1.0944     4.3698   110.7200     0.9837     0.1951
  348    6.940   2156.10     0.8971     0.0409     0.2590     0.0694     1.0047     4.5080   111.0400     0.8936     0.2091
  349    6.960   2157.05     0.8177     0.0397     0.2666     0.0696     0.9286     4.8076   111.3600     0.8172     0.2379
  350    6.980   2158.03     0.7634     0.0351     0.2795     0.0698     0.8790     4.5960   111.6800     0.7673     0.2675
  351    7.000   2159.04     0.7596     0.0309     0.2934     0.0700     0.8808     4.0849   112.0000     0.7688     0.2843
  352    7.020   2160.09     0.7725     0.0288     0.3048     0.0702     0.8991     3.7355   112.3200     0.7868     0.2941
  353    7.040   2161.06     0.8003     0.0289     0.3103     0.0704     0.9298     3.6268   112.6400     0.8172     0.2911
  354    7.060   2162.04     0.8203     0.0298     0.3194     0.0706     0.9532     3.6310   112.9600     0.8402     0.2923
  355    7.080   2163.04     0.7990     0.0295     0.3278     0.0708     0.9357     3.6820   113.2800     0.8224     0.3097
  356    7.100   2164.10     0.8053     0.0293     0.3322     0.0710     0.9453     3.6465   113.6000     0.8317     0.3155
  357    7.120   2165.06     0.8190     0.0295     0.3302     0.0712     0.9572     3.6038   113.9200     0.8433     0.3057
  358    7.140   2166.04     0.8243     0.0289     0.3341     0.0714     0.9641     3.5158   114.2400     0.8499     0.3078
  359    7.160   2167.09     0.8356     0.0296     0.3359     0.0716     0.9765     3.5615   114.5600     0.8619     0.3062
  360    7.180   2168.04     0.8594     0.0282     0.3395     0.0718     1.0013     3.2885   114.8800     0.8864     0.3001
  361    7.200   2169.04     0.8564     0.0271     0.3453     0.0720     1.0007     3.1564   115.2000     0.8855     0.3068
  362    7.220   2170.04     0.8321     0.0263     0.3580     0.0722     0.9806     3.1483   115.5200     0.8651     0.3253
  363    7.240   2171.04     0.8362     0.0250     0.3700     0.0724     0.9897     3.0019   115.8400     0.8738     0.3353
  364    7.260   2172.06     0.8576     0.0237     0.3835     0.0726     1.0166     2.7445   116.1600     0.9004     0.3397
  365    7.280   2173.06     0.8481     0.0225     0.3992     0.0728     1.0136     2.6515   116.4800     0.8972     0.3581
  366    7.300   2174.02     0.8299     0.0221     0.4081     0.0730     1.0000     2.6539   116.8000     0.8832     0.3762
  367    7.320   2175.02     0.8133     0.0229     0.4071     0.0732     0.9853     2.8126   117.1200     0.8682     0.3874
  368    7.340   2176.04     0.8190     0.0234     0.3866     0.0734     0.9855     2.8404   117.4400     0.8681     0.3723
  369    7.360   2177.05     0.7871     0.0242     0.3665     0.0736     0.9414     3.0693   117.7600     0.8236     0.3567
  370    7.380   2178.03     0.7978     0.0249     0.3675     0.0738     0.9530     3.1275   118.0800     0.8349     0.3542
  371    7.400   2179.02     0.8346     0.0256     0.3594     0.0740     0.9859     3.0816   118.4000     0.8675     0.3302
  372    7.420   2180.05     0.8360     0.0270     0.3570     0.0742     0.9875     3.2267   118.7200     0.8687     0.3298
  373    7.440   2181.04     0.8335     0.0276     0.3303     0.0744     0.9747     3.3224   119.0400     0.8557     0.3060
  374    7.460   2182.06     0.8197     0.0266     0.3328     0.0746     0.9586     3.2371   119.3600     0.8393     0.3053
  375    7.480   2183.08     0.8118     0.0260     0.3399     0.0748     0.9535     3.2104   119.6800     0.8338     0.3150
  376    7.500   2184.07     0.8171     0.0248     0.3460     0.0750     0.9611     3.0526   120.0000     0.8411     0.3182
  377    7.520   2185.03     0.8046     0.0240     0.3552     0.0752     0.9528     2.9795   120.3200     0.8325     0.3335
  378    7.540   2186.00     0.8118     0.0262     0.3619     0.0754     0.9631     3.2268   120.6400     0.8424     0.3380
  379    7.560   2187.05     0.8060     0.0278     0.3663     0.0756     0.9586     3.4580   120.9600     0.8377     0.3435
  380    7.580   2188.03     0.8492     0.0292     0.3707     0.0758     1.0045     3.4922   121.2800     0.8833     0.3330
  381    7.600   2189.00     0.9264     0.0307     0.3728     0.0760     1.0824     3.3310   121.6000     0.9608     0.3074
  382    7.620   2190.00     1.0380     0.0323     0.3580     0.0762     1.1921     3.1520   121.9200     1.0702     0.2720
  383    7.640   2190.98     1.1185     0.0339     0.3033     0.0764     1.2537     3.0259   122.2400     1.1314     0.2170
  384    7.660   2192.01     1.1156     0.0321     0.2962     0.0766     1.2405     2.8691   122.5600     1.1179     0.1976
  385    7.680   2193.01     1.0303     0.0301     0.2956     0.0768     1.1543     2.8980   122.8800     1.0314     0.2121
  386    7.700   2194.03     0.9199     0.0297     0.3044     0.0770     1.0464     3.1872   123.2000     0.9232     0.2431
  387    7.720   2195.01     0.8691     0.0286     0.3164     0.0772     1.0003     3.2770   123.5200     0.8768     0.2682
  388    7.740   2196.01     0.8776     0.0269     0.3341     0.0774     1.0155     3.1297   123.8400     0.8916     0.2815
  389    7.760   2197.01     0.8952     0.0259     0.3471     0.0776     1.0396     2.8596   124.1600     0.9155     0.2912
  390    7.780   2198.01     0.8507     0.0270     0.3592     0.0778     0.9995     3.1773   124.4800     0.8750     0.3160
  391    7.800   2199.01     0.8377     0.0281     0.3734     0.0780     0.9924     3.3413   124.8000     0.8676     0.3347
  392    7.820   2200.04     0.8029     0.0303     0.3807     0.0782     0.9618     3.7632   125.1200     0.8367     0.3587
  393    7.840   2200.99     0.8339     0.0321     0.3752     0.0784     0.9934     3.9358   125.4400     0.8680     0.3474
  394    7.860   2202.01     0.8829     0.0313     0.3371     0.0786     1.0286     3.5535   125.7600     0.9029     0.2974
  395    7.880   2203.00     0.8964     0.0306     0.3066     0.0788     1.0288     3.4032   126.0800     0.9027     0.2617
  396    7.900   2204.04     0.8590     0.0306     0.3028     0.0790     0.9851     3.5530   126.4000     0.8587     0.2576
  397    7.920   2205.04     0.8374     0.0310     0.3170     0.0792     0.9682     3.6887   126.7200     0.8415     0.2761
  398    7.940   2206.04     0.8008     0.0303     0.3287     0.0794     0.9377     3.7654   127.0400     0.8107     0.3042
  399    7.960   2207.04     0.8215     0.0291     0.3363     0.0796     0.9615     3.5739   127.3600     0.8341     0.3043
  400    7.980   2208.02     0.8284     0.0273     0.3402     0.0798     0.9709     3.2952   127.6800     0.8432     0.3076
  401    8.000   2209.03     0.8182     0.0264     0.3524     0.0800     0.9646     3.2158   128.0000     0.8366     0.3211
  402    8.020   2210.06     0.8131     0.0256     0.3575     0.0802     0.9625     3.1486   128.3200     0.8342     0.3302
  403    8.040   2211.07     0.8499     0.0234     0.3662     0.0804     1.0025     2.7704   128.6400     0.8739     0.3240
  404    8.060   2212.03     0.8935     0.0229     0.3701     0.0806     1.0484     2.6258   128.9600     0.9195     0.3136
  405    8.080   2213.02     0.8928     0.0229     0.3733     0.0808     1.0496     2.5472   129.2800     0.9203     0.3179
  406    8.100   2214.05     0.8634     0.0233     0.3775     0.0810     1.0205     2.6617   129.6000     0.8909     0.3292
  407    8.120   2215.05     0.8267     0.0226     0.3861     0.0812     0.9878     2.7003   129.9200     0.8579     0.3526
  408    8.140   2216.08     0.8111     0.0228     0.3903     0.0814     0.9747     2.8023   130.2400     0.8444     0.3648
  409    8.160   2223.13     0.8021     0.0226     0.3845     0.0816     0.9649     2.8140   130.5600     0.8344     0.3669
  410    8.180   2250.12     0.8032     0.0212     0.3753     0.0818     0.9622     2.6388   130.8800     0.8313     0.3569
  411    8.200   2261.88     0.7769     0.0220     0.3770     0.0820     0.9339     2.8103   131.2000     0.8027     0.3637
  412    8.220   2262.88     0.7295     0.0207     0.3742     0.0822     0.8874     2.8224   131.5200     0.7558     0.3885
  413    8.240   2263.82     0.6886     0.0199     0.3658     0.0824     0.8438     2.7896   131.8400     0.7120     0.4034
  414    8.260   2264.89     0.6466     0.0189     0.3573     0.0826     0.7954     2.9164   132.1600     0.6633     0.4098
  415    8.280   2265.91     0.6262     0.0181     0.3538     0.0828     0.7747     2.8669   132.4800     0.6423     0.4217
  416    8.300   2266.91     0.5913     0.0160     0.3508     0.0830     0.7396     2.6954   132.8000     0.6068     0.4449
  417    8.320   2267.91     0.5819     0.0153     0.3527     0.0832     0.7292     2.6121   133.1200     0.5961     0.4487
  418    8.340   2268.93     0.5602     0.0136     0.3614     0.0834     0.7111     2.4266   133.4400     0.5776     0.4773
  419    8.360   2269.92     0.5478     0.0121     0.3669     0.0836     0.7013     2.2039   133.7600     0.5675     0.4966
  420    8.380   2270.89     0.5345     0.0116     0.3716     0.0838     0.6900     2.1674   134.0800     0.5559     0.5152
  421    8.400   2271.87     0.5339     0.0114     0.3733     0.0840     0.6904     2.1177   134.4000     0.5560     0.5190
  422    8.420   2272.88     0.5072     0.0114     0.3778     0.0842     0.6645     2.2438   134.7200     0.5297     0.5480
  423    8.440   2273.88     0.4971     0.0113     0.3880     0.0844     0.6587     2.2685   135.0400     0.5237     0.5738
  424    8.460   2274.89     0.5014     0.0113     0.3958     0.0846     0.6668     2.2561   135.3600     0.5314     0.5817
  425    8.480   2275.90     0.5149     0.0116     0.3966     0.0848     0.6819     2.2836   135.6800     0.5462     0.5728
  426    8.500   2276.88     0.5198     0.0118     0.3901     0.0850     0.6862     2.2656   136.0000     0.5502     0.5653
  427    8.520   2277.88     0.5304     0.0125     0.3865     0.0852     0.6934     2.3563   136.3200     0.5571     0.5435
  428    8.540   2278.82     0.5117     0.0124     0.3902     0.0854     0.6751     2.3976   136.6400     0.5385     0.5643
  429    8.560   2279.83     0.4997     0.0117     0.3944     0.0856     0.6653     2.3308   136.9600     0.5283     0.5843
  430    8.580   2280.82     0.5032     0.0122     0.4026     0.0858     0.6707     2.4359   137.2800     0.5334     0.5868
  431    8.600   2281.81     0.5090     0.0125     0.4095     0.0860     0.6801     2.4726   137.6000     0.5425     0.5926
  432    8.620   2282.84     0.5331     0.0125     0.4054     0.0862     0.7034     2.3529   137.9200     0.5655     0.5644
  433    8.640   2283.84     0.5623     0.0124     0.3933     0.0864     0.7304     2.2163   138.2400     0.5922     0.5300
  434    8.660   2284.81     0.5842     0.0126     0.3668     0.0866     0.7411     2.1659   138.5600     0.6026     0.4765
  435    8.680   2285.81     0.5550     0.0128     0.3584     0.0868     0.7045     2.2955   138.8800     0.5657     0.4761
  436    8.700   2286.81     0.5335     0.0133     0.3669     0.0870     0.6861     2.4822   139.2000     0.5469     0.5050
  437    8.720   2287.81     0.5302     0.0126     0.3760     0.0872     0.6870     2.3860   139.5200     0.5475     0.5224
  438    8.740   2288.81     0.5354     0.0126     0.3865     0.0874     0.6963     2.3658   139.8400     0.5564     0.5313
  439    8.760   2289.81     0.5455     0.0128     0.3945     0.0876     0.7103     2.3530   140.1600     0.5701     0.5343
  440    8.780   2290.81     0.5773     0.0125     0.4013     0.0878     0.7453     2.1783   140.4800     0.6048     0.5163
  441    8.800   2291.79     0.5854     0.0108     0.4005     0.0880     0.7546     1.8463   140.8000     0.6138     0.5129
  442    8.820   2292.81     0.5992     0.0078     0.3910     0.0882     0.7645     1.3044   141.1200     0.6234     0.4901
  443    8.840   2293.81     0.5816     0.0047     0.3947     0.0884     0.7464     0.8105   141.4400     0.6049     0.5024
  444    8.860   2294.80     0.5830     0.0071     0.4087     0.0886     0.7520     1.2221   141.7600     0.6102     0.5141
  445    8.880   2295.81     0.6669     0.0140     0.4255     0.0888     0.8426     2.1791   142.0800     0.7005     0.4731
  446    8.900   2296.82     1.0948     0.0203     0.4498     0.0890     1.2808     1.9651   142.4000     1.1384     0.3128
  447    8.920   2297.85     1.8068     0.0229     0.3590     0.0892     1.9791     1.3400   142.7200     1.8364     0.1766
  448    8.940   2298.87     2.6685     0.0266     0.2086     0.0894     2.7667     1.0346   143.0400     2.6237     0.0555
  449    8.960   2299.87     3.1648     0.0372     0.1403     0.0896     3.2311     1.1842   143.3600     3.0877     0.0221
  450    8.980   2300.82     3.2044     0.0587     0.0850     0.0898     3.2471     1.8208   143.6800     3.1034     0.0038
  451    9.000   2301.80     2.8290     0.0687     0.0581     0.0900     2.8569     2.4037   144.0000     2.7129    -0.0087
  452    9.020   2302.84     2.2059     0.0650     0.0408     0.0902     2.2257     2.9069   144.3200     2.0814    -0.0208
  453    9.040   2303.87     1.7158     0.0536     0.0399     0.0904     1.7324     3.0245   144.6400     1.5878    -0.0321
  454    9.060   2304.82     1.4110     0.0496     0.0664     0.0906     1.4327     3.4821   144.9600     1.2878    -0.0300
  455    9.080   2305.86     1.2235     0.0484     0.0831     0.0908     1.2586     3.9590   145.2800     1.1133    -0.0065
  456    9.100   2306.83     1.2923     0.0434     0.1041     0.0910     1.3320     3.5264   145.6000     1.1864     0.0029
  457    9.120   2307.87     1.5655     0.0359     0.1264     0.0912     1.6178     2.3618   145.9200     1.4719     0.0226
  458    9.140   2308.87     2.1367     0.0270     0.1403     0.0914     2.1931     1.3094   146.2400     2.0469     0.0209
  459    9.160   2309.86     2.8075     0.0202     0.1434     0.0916     2.8687     0.8171   146.5600     2.7221     0.0199
  460    9.180   2310.86     3.4630     0.0170     0.1103     0.0918     3.5185     0.4954   146.8800     3.3716     0.0121
  461    9.200   2311.92     3.6972     0.0209     0.0632     0.0920     3.7297     0.5625   147.2000     3.5825    -0.0041
  462    9.220   2312.93     3.4648     0.0304     0.0492     0.0922     3.4873     0.8662   147.5200     3.3398    -0.0116
  463    9.240   2313.91     2.9782     0.0469     0.0411     0.0924     2.9968     1.5416   147.8400     2.8489    -0.0170
  464    9.260   2314.92     2.2749     0.0514     0.0457     0.0926     2.2931     2.1952   148.1600     2.1449    -0.0230
  465    9.280   2315.92     1.7718     0.0463     0.0564     0.0928     1.7935     2.5571   148.4800     1.6450    -0.0250
  466    9.300   2316.89     1.4488     0.0430     0.0788     0.0930     1.4780     2.9339   148.8000     1.3292    -0.0174
  467    9.320   2317.90     1.1746     0.0385     0.0959     0.0932     1.2140     3.1969   149.1200     1.0649     0.0006
  468    9.340   2318.90     0.9641     0.0327     0.1117     0.0934     1.0072     3.3197   149.4400     0.8578     0.0110
  469    9.360   2319.93     0.8573     0.0204     0.1324     0.0936     0.9110     2.3462   149.7600     0.7613     0.0453
  470    9.380   2320.93     0.7522     0.0125     0.1491     0.0938     0.8123     1.6250   150.0800     0.6622     0.0746
  471    9.400   2321.94     0.6710     0.0113     0.1693     0.0940     0.7390     1.6730   150.4000     0.5886     0.1155
  472    9.420   2322.91     0.6508     0.0078     0.1884     0.0942     0.7270     1.1966   150.7200     0.5763     0.1514
  473    9.440   2323.89     0.6485     0.0060     0.2069     0.0944     0.7328     0.9146   151.0400     0.5818     0.1828
  474    9.460   2324.92     0.6588     0.0088     0.2270     0.0946     0.7512     1.3435   151.3600     0.5998     0.2088
  475    9.480   2325.88     0.6799     0.0076     0.2479     0.0948     0.7807     1.1151   151.6800     0.6290     0.2307
  476    9.500   2326.93     0.7004     0.0087     0.2704     0.0950     0.8107     1.2473   152.0000     0.6587     0.2544
  477    9.520   2327.93     0.8065     0.0126     0.2986     0.0952     0.9271     1.6256   152.3200     0.7747     0.2497
  478    9.540   2328.93     1.3599     0.0236     0.3262     0.0954     1.4931     1.7817   152.6400     1.3405     0.1673
  479    9.560   2329.96     2.0318     0.0346     0.3293     0.0956     2.1725     1.7269   152.9600     2.0195     0.1189
  480    9.580   2330.94     2.2852     0.0317     0.2010     0.0958     2.3851     1.3870   153.2800     2.2319     0.0636
  481    9.600   2331.92     2.2242     0.0303     0.1783     0.0960     2.2993     1.3387   153.6000     2.1457     0.0386
  482    9.620   2332.94     2.1325     0.0358     0.1925     0.0962     2.2115     1.6547   153.9200     2.0576     0.0446
  483    9.640   2333.94     2.2640     0.0425     0.2184     0.0964     2.3498     1.9924   154.2400     2.1955     0.0491
  484    9.660   2334.99     3.6658     0.0505     0.2343     0.0966     3.7654     1.7268   154.5600     3.6108     0.0395
  485    9.680   2336.02     6.1323     0.0542     0.1253     0.0968     6.2009     1.0729   154.8800     6.0460     0.0116
  486    9.700   2337.05     7.8500     0.0591     0.0546     0.0970     7.8804     0.7949   155.2000     7.7252    -0.0031
  487    9.720   2338.10     8.8351     0.0650     0.0301     0.0972     8.8496     0.7597   155.5200     8.6941    -0.0072
  488    9.740   2339.15     9.6713     0.0772     0.0304     0.0974     9.6836     0.8178   155.8400     9.5277    -0.0071
  489    9.760   2340.19    10.3636     0.0888     0.0377     0.0976    10.3782     0.8701   156.1600    10.2220    -0.0062
  490    9.780   2341.19    10.9983     0.0978     0.0443     0.0978    11.0157     0.8986   156.4800    10.8593    -0.0052
  491    9.800   2342.29    11.5436     0.1020     0.0501     0.0980    11.5645     0.8943   156.8000    11.4077    -0.0042
  492    9.820   2343.35    11.9950     0.1067     0.0579     0.0982    12.0190     0.8958   157.1200    11.8618    -0.0035
  493    9.840   2344.45    12.3377     0.1114     0.0661     0.0984    12.3645     0.9075   157.4400    12.2070    -0.0028
  494    9.860   2345.51    12.5624     0.1158     0.0646     0.0986    12.5904     0.9270   157.7600    12.4326    -0.0026
  495    9.880   2346.56    12.8061     0.1193     0.0701     0.0988    12.8340     0.9365   158.0800    12.6759    -0.0026
  496    9.900   2347.61    13.0800     0.1207     0.0760     0.0990    13.1117     0.9301   158.4000    12.9533    -0.0018
  497    9.920   2348.69    13.3812     0.1270     0.0723     0.0992    13.4115     0.9531   158.7200    13.2528    -0.0020
  498    9.940   2349.78    13.7034     0.1328     0.0767     0.0994    13.7352     0.9731   159.0400    13.5762    -0.0017
  499    9.960   2350.82    13.9576     0.1367     0.0840     0.0996    13.9923     0.9831   159.3600    13.8330    -0.0012
  500    9.980   2351.90    14.2007     0.1415     0.0851     0.0998    14.2364     1.0020   159.6800    14.0767    -0.0011
  501   10.000   2352.92    14.4874     0.1464     0.0825     0.1000    14.5221     1.0152   160.0000    14.3621    -0.0012
  502   10.020   2354.01    14.6556     0.1510     0.0811     0.1002    14.6902     1.0312   160.3200    14.5299    -0.0012
  503   10.040   2355.09    14.7018     0.1547     0.0814     0.1004    14.7365     1.0536   160.6400    14.5758    -0.0012
  504   10.060   2356.16    14.8408     0.1553     0.0819     0.1006    14.8740     1.0494   160.9600    14.7131    -0.0015
  505   10.080   2357.20    14.9519     0.1552     0.0799     0.1008    14.9857     1.0401   161.2800    14.8244    -0.0014
  506   10.100   2358.29    14.9248     0.1562     0.0798     0.1010    14.9576     1.0467   161.6000    14.7960    -0.0016
  507   10.120   2359.33    14.8047     0.1577     0.0787     0.1012    14.8384     1.0631   161.9200    14.6765    -0.0014
  508   10.140   2360.40    14.6315     0.1565     0.0818     0.1014    14.6654     1.0679   162.2400    14.5032    -0.0014
  509   10.160   2370.87    14.5057     0.1553     0.0789     0.1016    14.5386     1.0740   162.5600    14.3760    -0.0016
  510   10.180   2390.91    14.4654     0.1565     0.0808     0.1018    14.4990     1.0823   162.8800    14.3362    -0.0015
  511   10.200   2404.65    14.4843     0.1587     0.0821     0.1020    14.5186     1.0975   163.2000    14.3554    -0.0014
  512   10.220   2405.76    14.5819     0.1655     0.0796     0.1022    14.6153     1.1369   163.5200    14.4518    -0.0016
  513   10.240   2406.82    14.5373     0.1737     0.0786     0.1024    14.5711     1.1926   163.8400    14.4073    -0.0015
  514   10.260   2407.87    14.3760     0.1741     0.0869     0.1026    14.4105     1.2071   164.1600    14.2463    -0.0014
  515   10.280   2408.95    14.1823     0.1706     0.0875     0.1028    14.2186     1.1978   164.4800    14.0542    -0.0012
  516   10.300   2410.00    13.8759     0.1852     0.0880     0.1030    13.9118     1.3252   164.8000    13.7470    -0.0013
  517   10.320   2411.08    13.3343     0.1824     0.0874     0.1032    13.3711     1.3469   165.1200    13.2060    -0.0012
  518   10.340   2412.10    12.5913     0.1688     0.0787     0.1034    12.6263     1.3192   165.4400    12.4608    -0.0016
  519   10.360   2413.15    11.9133     0.1542     0.0577     0.1036    11.9406     1.2820   165.7600    11.7748    -0.0033
  520   10.380   2414.22    12.0343     0.1501     0.0652     0.1038    12.0548     1.2587   166.0800    11.8887    -0.0046
  521   10.400   2415.33    11.7920     0.1454     0.0487     0.1040    11.8220     1.2140   166.4000    11.6556    -0.0028
  522   10.420   2416.33    11.0344     0.1313     0.0130     0.1042    11.0450     1.1684   166.7200    10.8783    -0.0073
  523   10.440   2417.41    10.2050     0.1209    -0.0019     0.1044    10.1999     1.1042   167.0400    10.0328    -0.0116
  524   10.460   2418.46    10.1746     0.1080    -0.0174     0.1046    10.1682     1.0045   167.3600    10.0008    -0.0120
  525   10.480   2419.46    10.5771     0.0951    -0.0229     0.1048    10.5697     0.9047   167.6800    10.4020    -0.0118
  526   10.500   2420.54    10.6975     0.0930    -0.0386     0.1050    10.6800     0.8645   168.0000    10.5120    -0.0140
  527   10.520   2421.63    10.3238     0.0889    -0.0488     0.1052    10.3088     0.8529   168.3200    10.1405    -0.0139
  528   10.540   2425.11    10.1910     0.0797    -0.0408     0.1054    10.1698     0.7815   168.6400    10.0012    -0.0156
  529   10.560   2432.19    10.1659     0.0779    -0.0128     0.1056    10.1565     0.7638   168.9600     9.9875    -0.0128
  530   10.580   2439.26    10.1409     0.0782     0.0151     0.1058    10.1432     0.7662   169.2800     9.9739    -0.0101
  531   10.600   2443.31    10.0624     0.0695    -0.0071     0.1060    10.0627     0.6869   169.6000     9.8931    -0.0107
  532   10.620   2444.34     9.8961     0.0598    -0.0352     0.1062     9.8864     0.6010   169.9200     9.7165    -0.0133
  533   10.640   2445.34     9.4083     0.0599    -0.0718     0.1064     9.3813     0.6145   170.2400     9.2111    -0.0185
  534   10.660   2446.44     8.5494     0.0802    -0.1000     0.1066     8.5124     0.9333   170.5600     8.3418    -0.0234
  535   10.680   2447.46     7.5882     0.0972    -0.0998     0.1068     7.5460     1.2027   170.8800     7.3752    -0.0281
  536   10.700   2448.47     6.4439     0.1136    -0.0962     0.1070     6.4041     1.6317   171.2000     6.2329    -0.0324
  537   10.720   2449.46     5.5112     0.1205    -0.0903     0.1072     5.4718     2.0656   171.5200     5.3003    -0.0380
  538   10.740   2450.46     4.8936     0.1027    -0.0698     0.1074     4.8607     2.0305   171.8400     4.6889    -0.0396
  539   10.760   2451.46     4.6607     0.0889    -0.0257     0.1076     4.6468     1.8990   172.1600     4.4746    -0.0314
  540   10.780   2452.54     4.6733     0.0718    -0.0104     0.1078     4.6673     1.5395   172.4800     4.4948    -0.0272
  541   10.800   2453.58     4.8982     0.0593    -0.0035     0.1080     4.8964     1.2522   172.8000     4.7236    -0.0238
  542   10.820   2454.66     5.4260     0.0420    -0.0245     0.1082     5.4169     0.8175   173.1200     5.2438    -0.0248
  543   10.840   2455.74     6.0756     0.0283    -0.0204     0.1084     6.0676     0.4698   173.4400     5.8941    -0.0216
  544   10.860   2456.75     6.3820     0.0257    -0.0462     0.1086     6.3672     0.4037   173.7600     6.1935    -0.0232
  545   10.880   2457.75     6.3829     0.0356    -0.0492     0.1088     6.3607     0.5574   174.0800     6.1866    -0.0261
  546   10.900   2458.77     5.8772     0.0578    -0.0435     0.1090     5.8573     0.9783   174.4000     5.6829    -0.0275
  547   10.920   2459.75     5.2695     0.0665    -0.0172     0.1092     5.2578     1.1953   174.7200     5.0831    -0.0269
  548   10.940   2460.77     4.7484     0.0573     0.0046     0.1094     4.7469     1.1999   175.0400     4.5718    -0.0247
  549   10.960   2461.77     4.3960     0.0533     0.0210     0.1096     4.4030     1.2074   175.3600     4.2276    -0.0220
  550   10.980   2462.82     4.1716     0.0567     0.0355     0.1098     4.1872     1.3525   175.6800     4.0116    -0.0181
  551   11.000   2463.81     3.9171     0.0616     0.0438     0.1100     3.9294     1.5672   176.0000     3.7534    -0.0215
  552   11.020   2464.81     3.8879     0.0583     0.0365     0.1102     3.9005     1.4994   176.3200     3.7242    -0.0215
  553   11.040   2465.81     3.6884     0.0421     0.0549     0.1104     3.7137     1.1348   176.6400     3.5371    -0.0142
  554   11.060   2466.84     3.1761     0.0468     0.0612     0.1106     3.2021     1.3648   176.9600     3.0252    -0.0161
  555   11.080   2467.83     2.5915     0.0612     0.0502     0.1108     2.6137     2.3230   177.2800     2.4364    -0.0239
  556   11.100   2468.83     2.3924     0.0444     0.0782     0.1110     2.4220     1.8493   177.6000     2.2444    -0.0181
  557   11.120   2469.88     2.2885     0.0342     0.0944     0.1112     2.3273     1.4969   177.9200     2.1494    -0.0087
  558   11.140   2470.88     2.2528     0.0355     0.1190     0.1114     2.2969     1.5740   178.2400     2.1186    -0.0031
  559   11.160   2471.90     2.4550     0.0446     0.1353     0.1116     2.5160     1.8481   178.5600     2.3374     0.0145
  560   11.180   2472.88     3.2346     0.0473     0.1280     0.1118     3.2944     1.4976   178.8800     3.1156     0.0100
  561   11.200   2473.93     3.4815     0.0383     0.0958     0.1120     3.5232     1.0995   179.2000     3.3440    -0.0038
  562   11.220   2474.91     3.2158     0.0391     0.1081     0.1122     3.2573     1.2103   179.5200     3.0778    -0.0043
  563   11.240   2475.88     2.8834     0.0445     0.0967     0.1124     2.9253     1.4865   179.8400     2.7455    -0.0046
  564   11.260   2476.93     2.7285     0.0504     0.0977     0.1126     2.7688     1.8386   180.1600     2.5887    -0.0064
  565   11.280   2477.94     2.8007     0.0487     0.1158     0.1128     2.8498     1.7457   180.4800     2.6693     0.0016
  566   11.300   2478.97     2.8437     0.0428     0.1322     0.1130     2.8992     1.5062   180.8000     2.7184     0.0071
  567   11.320   2479.96     2.7893     0.0350     0.1250     0.1132     2.8418     1.2430   181.1200     2.6607     0.0044
  568   11.340   2480.98     2.6195     0.0326     0.1430     0.1134     2.6802     1.2150   181.4400     2.4988     0.0124
  569   11.360   2481.97     2.5383     0.0285     0.1400     0.1136     2.5963     1.1190   181.7600     2.4146     0.0102
  570   11.380   2482.96     2.3383     0.0289     0.1498     0.1138     2.3991     1.2184   182.0800     2.2170     0.0140
  571   11.400   2483.99     2.1283     0.0282     0.1587     0.1140     2.1940     1.2862   182.4000     2.0116     0.0212
  572   11.420   2484.99     1.7999     0.0266     0.1706     0.1142     1.8688     1.4598   182.7200     1.6861     0.0298
  573   11.440   2486.06     1.4872     0.0249     0.1862     0.1144     1.5638     1.6445   183.0400     1.3808     0.0493
  574   11.460   2487.05     1.4080     0.0211     0.1994     0.1146     1.4890     1.4875   183.3600     1.3056     0.0600
  575   11.480   2488.03     1.3269     0.0205     0.2090     0.1148     1.4138     1.5431   183.6800     1.2301     0.0749
  576   11.500   2489.04     1.1525     0.0199     0.2251     0.1150     1.2437     1.6806   184.0000     1.0597     0.0969
  577   11.520   2490.05     1.0760     0.0253     0.2515     0.1152     1.1776     2.3238   184.3200     0.9933     0.1277
  578   11.540   2491.03     1.0426     0.0234     0.2752     0.1154     1.1555     2.2373   184.6400     0.9708     0.1579
  579   11.560   2492.02     1.0510     0.0254     0.2899     0.1156     1.1705     2.4342   184.9600     0.9855     0.1713
  580   11.580   2492.99     1.0762     0.0276     0.3051     0.1158     1.2036     2.5641   185.2800     1.0183     0.1841
  581   11.600   2493.99     1.3056     0.0309     0.2760     0.1160     1.4247     2.3537   185.6000     1.2391     0.1351
  582   11.620   2494.98     1.1359     0.0322     0.2758     0.1162     1.2483     2.8463   185.9200     1.0624     0.1424
  583   11.640   2496.01     1.1827     0.0334     0.2877     0.1164     1.3022     2.8639   186.2400     1.1159     0.1506
  584   11.660   2497.04     1.2030     0.0357     0.3000     0.1166     1.3267     2.9696   186.5600     1.1401     0.1559
  585   11.680   2498.03     1.2327     0.0400     0.3185     0.1168     1.3636     3.2512   186.8800     1.1768     0.1656
  586   11.700   2499.05     1.2185     0.0425     0.3312     0.1170     1.3563     3.4703   187.2000     1.1691     0.1805
  587   11.720   2500.05     1.2080     0.0435     0.3330     0.1172     1.3479     3.6115   187.5200     1.1603     0.1860
  588   11.740   2501.05     1.2478     0.0410     0.3332     0.1174     1.3871     3.2841   187.8400     1.1993     0.1787
  589   11.760   2502.04     1.2341     0.0470     0.3341     0.1176     1.3739     3.8089   188.1600     1.1857     0.1815
  590   11.780   2503.05     1.2083     0.0522     0.3435     0.1178     1.3522     4.2803   188.4800     1.1637     0.1932
  591   11.800   2504.05     1.2059     0.0516     0.3366     0.1180     1.3477     4.2915   188.8000     1.1589     0.1895
  592   11.820   2505.05     1.2183     0.0508     0.3360     0.1182     1.3588     4.1787   189.1200     1.1697     0.1849
  593   11.840   2506.12     1.7950     0.0501     0.3101     0.1184     1.9361     3.3886   189.4400     1.7467     0.1353
  594   11.860   2507.11     1.4430     0.0464     0.3108     0.1186     1.5666     3.0280   189.7600     1.3768     0.1342
  595   11.880   2508.11     1.1402     0.0448     0.3424     0.1188     1.2807     3.8276   190.0800     1.0906     0.1988
  596   11.900   2509.16     1.0568     0.0433     0.3633     0.1190     1.2060     4.0714   190.4000     1.0156     0.2326
  597   11.920   2510.13     1.0630     0.0408     0.3780     0.1192     1.2196     3.8535   190.7200     1.0288     0.2465
  598   11.940   2511.13     1.0823     0.0400     0.3868     0.1194     1.2441     3.6953   191.0400     1.0531     0.2524
  599   11.960   2512.10     1.1218     0.0411     0.3935     0.1196     1.2853     3.6798   191.3600     1.0940     0.2467
  600   11.980   2513.11     1.1538     0.0422     0.4074     0.1198     1.3235     3.6987   191.6800     1.1318     0.2512
  601   12.000   2514.15     1.2174     0.0445     0.4128     0.1200     1.3893     3.6657   192.0000     1.1973     0.2416
  602   12.020   2515.15     1.2361     0.0433     0.4235     0.1202     1.4136     3.5032   192.3200     1.2213     0.2477
  603   12.040   2516.14     1.2301     0.0432     0.4222     0.1204     1.4063     3.5308   192.6400     1.2137     0.2464
  604   12.060   2517.09     1.2135     0.0441     0.4270     0.1206     1.3925     3.5968   192.9600     1.1995     0.2547
  605   12.080   2518.16     1.2181     0.0450     0.4330     0.1208     1.3998     3.6629   193.2800     1.2065     0.2585
  606   12.100   2519.17     1.2279     0.0444     0.4345     0.1210     1.4115     3.6077   193.6000     1.2179     0.2595
  607   12.120   2520.17     1.2873     0.0461     0.4309     0.1212     1.4680     3.7034   193.9200     1.2741     0.2427
  608   12.140   2521.13     1.3415     0.0476     0.4282     0.1214     1.5200     3.5640   194.2400     1.3258     0.2291
  609   12.160   2535.60     1.3279     0.0487     0.4594     0.1216     1.5163     3.6285   194.5600     1.3217     0.2476
  610   12.180   2552.82     1.3093     0.0497     0.4907     0.1218     1.5109     3.7011   194.8800     1.3160     0.2723
  611   12.200   2570.04     1.2908     0.0466     0.5095     0.1220     1.5054     3.5915   195.2000     1.3102     0.2970
  612   12.220   2571.32     1.2627     0.0453     0.5117     0.1222     1.4765     3.5796   195.5200     1.2810     0.3021
  613   12.240   2572.32     1.2508     0.0429     0.5315     0.1224     1.4709     3.4316   195.8400     1.2750     0.3150
  614   12.260   2573.34     1.2538     0.0393     0.5471     0.1226     1.4819     3.1336   196.1600     1.2858     0.3270
  615   12.280   2574.36     1.2578     0.0373     0.5589     0.1228     1.4929     2.9605   196.4800     1.2964     0.3371
  616   12.300   2575.32     1.3109     0.0384     0.5603     0.1230     1.5447     2.9398   196.8000     1.3479     0.3216
  617   12.320   2576.33     1.3740     0.0429     0.5506     0.1232     1.6085     3.1301   197.1200     1.4114     0.3082
  618   12.340   2577.33     1.4367     0.0512     0.5373     0.1234     1.6653     3.5629   197.4400     1.4679     0.2868
  619   12.360   2578.35     1.4205     0.0560     0.5270     0.1236     1.6440     3.9370   197.7600     1.4462     0.2824
  620   12.380   2579.39     1.4535     0.0568     0.5111     0.1238     1.6698     3.9353   198.0800     1.4718     0.2660
  621   12.400   2580.35     1.4863     0.0558     0.4919     0.1240     1.6937     3.7473   198.4000     1.4953     0.2473
  622   12.420   2581.36     1.4709     0.0557     0.4659     0.1242     1.6672     3.7716   198.7200     1.4685     0.2338
  623   12.440   2582.38     1.3822     0.0543     0.4595     0.1244     1.5739     3.9100   199.0400     1.3749     0.2416
  624   12.460   2583.39     1.3173     0.0501     0.4868     0.1246     1.5192     3.8014   199.3600     1.3199     0.2698
  625   12.480   2584.39     1.2938     0.0441     0.5031     0.1248     1.5033     3.4083   199.6800     1.3036     0.2868
  626   12.500   2585.43     1.2972     0.0392     0.5122     0.1250     1.5123     3.0140   200.0000     1.3123     0.2949
  627   12.520   2586.42     1.2849     0.0382     0.5350     0.1252     1.5054     2.9668   200.3200     1.3051     0.3064
  628   12.540   2587.41     1.2639     0.0374     0.5621     0.1254     1.4963     2.9690   200.6400     1.2956     0.3303
  629   12.560   2588.41     1.2908     0.0387     0.5816     0.1256     1.5336     3.0019   200.9600     1.3327     0.3396
  630   12.580   2589.39     1.3270     0.0382     0.5951     0.1258     1.5757     2.8820   201.2800     1.3744     0.3392
  631   12.600   2590.36     1.3404     0.0408     0.6112     0.1260     1.5936     3.0572   201.6000     1.3920     0.3427
  632   12.620   2591.37     1.3435     0.0441     0.6276     0.1262     1.6044     3.2674   201.9200     1.4025     0.3530
  633   12.640   2592.40     1.3379     0.0440     0.6355     0.1264     1.6033     3.2859   202.2400     1.4011     0.3608
  634   12.660   2593.44     1.3178     0.0429     0.6482     0.1266     1.5881     3.2603   202.5600     1.3855     0.3731
  635   12.680   2594.43     1.3393     0.0449     0.6569     0.1268     1.6141     3.3594   202.8800     1.4112     0.3738
  636   12.700   2595.45     1.3652     0.0482     0.6803     0.1270     1.6485     3.5414   203.2000     1.4453     0.3789
  637   12.720   2596.45     1.3869     0.0475     0.7057     0.1272     1.6807     3.4370   203.5200     1.4771     0.3874
  638   12.740   2597.45     1.4180     0.0508     0.7204     0.1274     1.7201     3.5781   203.8400     1.5162     0.3903
  639   12.760   2598.45     1.4351     0.0521     0.7145     0.1276     1.7361     3.6515   204.1600     1.5319     0.3846
  640   12.780   2599.48     1.4612     0.0517     0.7069     0.1278     1.7615     3.5436   204.4800     1.5570     0.3772
  641   12.800   2600.47     1.4637     0.0518     0.6990     0.1280     1.7588     3.5418   204.8000     1.5540     0.3698
  642   12.820   2601.46     1.4797     0.0519     0.6874     0.1282     1.7741     3.5060   205.1200     1.5689     0.3650
  643   12.840   2602.47     1.4766     0.0509     0.6896     0.1284     1.7615     3.4289   205.4400     1.5561     0.3535
  644   12.860   2603.51     1.4830     0.0487     0.6913     0.1286     1.7727     3.2832   205.7600     1.5669     0.3581
  645   12.880   2604.52     1.5006     0.0489     0.7035     0.1288     1.7933     3.2639   206.0800     1.5872     0.3579
  646   12.900   2605.52     1.5391     0.0488     0.7082     0.1290     1.8372     3.1793   206.4000     1.6308     0.3562
  647   12.920   2606.53     1.5752     0.0533     0.6932     0.1292     1.8708     3.3860   206.7200     1.6641     0.3453
  648   12.940   2607.54     1.5964     0.0553     0.6550     0.1294     1.8749     3.4677   207.0400     1.6678     0.3199
  649   12.960   2608.53     1.5940     0.0560     0.6359     0.1296     1.8628     3.5288   207.3600     1.6554     0.3083
  650   12.980   2609.55     1.6230     0.0580     0.6210     0.1298     1.8862     3.6027   207.6800     1.6785     0.2959
  651   13.000   2610.57     1.6147     0.0577     0.6005     0.1300     1.8678     3.5662   208.0000     1.6598     0.2848
  652   13.020   2611.54     1.6225     0.0568     0.6078     0.1302     1.8754     3.5139   208.3200     1.6671     0.2830
  653   13.040   2612.56     1.6182     0.0584     0.5932     0.1304     1.8707     3.6117   208.6400     1.6620     0.2833
  654   13.060   2613.56     1.6110     0.0572     0.5797     0.1306     1.8564     3.5205   208.9600     1.6475     0.2754
  655   13.080   2614.61     1.5913     0.0555     0.5814     0.1308     1.8359     3.4900   209.2800     1.6267     0.2777
  656   13.100   2615.62     1.5972     0.0553     0.5828     0.1310     1.8410     3.4509   209.6000     1.6314     0.2755
  657   13.120   2616.68     1.6025     0.0539     0.6130     0.1312     1.8549     3.3680   209.9200     1.6449     0.2854
  658   13.140   2617.65     1.5952     0.0528     0.6223     0.1314     1.8585     3.3168   210.2400     1.6482     0.3006
  659   13.160   2618.65     1.5663     0.0520     0.6212     0.1316     1.8281     3.2604   210.5600     1.6175     0.3040
  660   13.180   2619.65     1.5531     0.0524     0.6163     0.1318     1.8096     3.4012   210.8800     1.5987     0.2996
  661   13.200   2620.71     1.6100     0.0596     0.6319     0.1320     1.8728     3.7836   211.2000     1.6616     0.2972
  662   13.220   2621.72     1.6907     0.0662     0.6750     0.1322     1.9705     3.9730   211.5200     1.7589     0.3035
  663   13.240   2622.74     1.7681     0.0692     0.6917     0.1324     2.0591     4.0572   211.8400     1.8473     0.3035
  664   13.260   2623.75     1.8745     0.0691     0.6316     0.1326     2.1542     3.7944   212.1600     1.9420     0.2747
  665   13.280   2624.79     1.9852     0.0688     0.5996     0.1328     2.2435     3.5315   212.4800     2.0310     0.2374
  666   13.300   2625.84     1.9890     0.0719     0.5804     0.1330     2.2398     3.5656   212.8000     2.0270     0.2290
  667   13.320   2626.82     1.8820     0.0753     0.6094     0.1332     2.1393     3.9393   213.1200     1.9262     0.2489
  668   13.340   2627.88     1.7642     0.0725     0.5877     0.1334     2.0142     3.9845   213.4400     1.8008     0.2565
  669   13.360   2628.90     1.6464     0.0706     0.5911     0.1336     1.8945     4.1642   213.7600     1.6807     0.2719
  670   13.380   2629.96     1.6734     0.0665     0.6146     0.1338     1.9282     4.0464   214.0800     1.7141     0.2758
  671   13.400   2630.97     1.7315     0.0696     0.6275     0.1340     1.9911     4.0782   214.4000     1.7767     0.2725
  672   13.420   2632.00     1.9342     0.0671     0.6285     0.1342     2.2018     3.6593   214.7200     1.9871     0.2533
  673   13.440   2633.02     2.0419     0.0688     0.5491     0.1344     2.2857     3.3994   215.0400     2.0706     0.2152
  674   13.460   2634.04     1.9934     0.0717     0.5405     0.1346     2.2234     3.5577   215.3600     2.0081     0.2057
  675   13.480   2635.06     1.9578     0.0762     0.5261     0.1348     2.1776     3.8642   215.6800     1.9620     0.1980
  676   13.500   2636.06     1.8931     0.0803     0.4960     0.1350     2.1075     4.1702   216.0000     1.8915     0.1984
  677   13.520   2637.09     1.9385     0.0806     0.4836     0.1352     2.1452     4.2475   216.3200     1.9289     0.1850
  678   13.540   2638.14     1.9813     0.0794     0.4679     0.1354     2.1766     4.0121   216.6400     1.9599     0.1682
  679   13.560   2639.18     1.9922     0.0796     0.4646     0.1356     2.1874     4.0456   216.9600     1.9704     0.1670
  680   13.580   2640.20     2.0150     0.0786     0.4490     0.1358     2.2043     3.8609   217.2800     1.9870     0.1584
  681   13.600   2641.23     1.9483     0.0756     0.4556     0.1360     2.1395     3.8436   217.6000     1.9219     0.1661
  682   13.620   2642.24     1.8430     0.0708     0.4731     0.1362     2.0372     3.7078   217.9200     1.8193     0.1793
  683   13.640   2643.26     1.8684     0.0712     0.4840     0.1364     2.0722     3.8299   218.2400     1.8540     0.1881
  684   13.660   2644.29     1.7963     0.0699     0.4954     0.1366     2.0020     3.7963   218.5600     1.7835     0.1980
  685   13.680   2645.29     1.7024     0.0682     0.4971     0.1368     1.9085     3.8887   218.8800     1.6896     0.2095
  686   13.700   2646.32     1.5647     0.0642     0.4840     0.1370     1.7689     3.9991   219.2000     1.5497     0.2252
  687   13.720   2647.38     1.5538     0.0593     0.4760     0.1372     1.7530     3.8051   219.5200     1.5335     0.2198
  688   13.740   2648.41     1.5493     0.0549     0.4801     0.1374     1.7487     3.5019   219.8400     1.5289     0.2206
  689   13.760   2649.42     1.4867     0.0521     0.5107     0.1376     1.6964     3.4237   220.1600     1.4763     0.2453
  690   13.780   2650.45     1.3984     0.0477     0.5245     0.1378     1.6179     3.3497   220.4800     1.3974     0.2754
  691   13.800   2651.46     1.3597     0.0416     0.5387     0.1380     1.5836     3.0222   220.8000     1.3628     0.2900
  692   13.820   2652.53     1.2995     0.0386     0.5561     0.1382     1.5310     2.9103   221.1200     1.3099     0.3154
  693   13.840   2653.56     1.2855     0.0380     0.5821     0.1384     1.5259     2.9407   221.4400     1.3045     0.3329
  694   13.860   2654.58     1.2859     0.0395     0.6168     0.1386     1.5393     3.0874   221.7600     1.3175     0.3526
  695   13.880   2655.63     1.3561     0.0400     0.6532     0.1388     1.6257     3.0172   222.0800     1.4036     0.3584
  696   13.900   2656.63     1.4355     0.0430     0.6795     0.1390     1.7177     3.0755   222.4000     1.4953     0.3564
  697   13.920   2657.70     1.5355     0.0461     0.6930     0.1392     1.8269     3.0520   222.7200     1.6042     0.3457
  698   13.940   2658.75     1.5960     0.0490     0.6835     0.1394     1.8822     3.1076   223.0400     1.6592     0.3267
  699   13.960   2659.73     1.5652     0.0500     0.6807     0.1396     1.8515     3.1737   223.3600     1.6282     0.3330
  700   13.980   2660.78     1.5469     0.0496     0.6795     0.1398     1.8317     3.1878   223.6800     1.6080     0.3347
  701   14.000   2661.83     1.5258     0.0475     0.7051     0.1400     1.8193     3.0807   224.0000     1.5953     0.3503
  702   14.020   2662.91     1.5254     0.0471     0.7408     0.1402     1.8302     3.1084   224.3200     1.6058     0.3646
  703   14.040   2663.94     1.5149     0.0478     0.7874     0.1404     1.8385     3.1289   224.6400     1.6138     0.3904
  704   14.060   2664.95     1.5077     0.0494     0.8075     0.1406     1.8444     3.2361   224.9600     1.6195     0.4083
  705   14.080   2665.97     1.5337     0.0510     0.8209     0.1408     1.8761     3.3434   225.2800     1.6508     0.4086
  706   14.100   2667.00     1.6009     0.0510     0.8325     0.1410     1.9508     3.2225   225.6000     1.7252     0.4012
  707   14.120   2668.02     1.6110     0.0560     0.8332     0.1412     1.9596     3.4703   225.9200     1.7336     0.3973
  708   14.140   2673.32     1.6263     0.0602     0.8290     0.1414     1.9762     3.7307   226.2400     1.7500     0.3956
  709   14.160   2692.58     1.6848     0.0626     0.8168     0.1416     2.0296     3.8835   226.5600     1.8030     0.3778
  710   14.180   2711.83     1.7432     0.0641     0.8046     0.1418     2.0829     3.9733   226.8800     1.8560     0.3599
  711   14.200   2721.32     1.7904     0.0653     0.7458     0.1420     2.1133     3.6785   227.2000     1.8861     0.3323
  712   14.220   2722.35     1.7265     0.0667     0.7412     0.1422     2.0353     3.7720   227.5200     1.8078     0.3280
  713   14.240   2723.40     1.6896     0.0671     0.7314     0.1424     1.9951     3.9670   227.8400     1.7672     0.3309
  714   14.260   2724.41     1.7051     0.0682     0.7359     0.1426     2.0119     4.0203   228.1600     1.7838     0.3296
  715   14.280   2725.46     1.7062     0.0671     0.7169     0.1428     2.0078     3.9289   228.4800     1.7793     0.3233
  716   14.300   2726.51     1.7256     0.0652     0.7275     0.1430     2.0275     3.8156   228.8000     1.7987     0.3202
  717   14.320   2727.52     1.7552     0.0642     0.7376     0.1432     2.0667     3.6684   229.1200     1.8375     0.3256
  718   14.340   2728.56     1.7959     0.0666     0.7308     0.1434     2.1017     3.7238   229.4400     1.8723     0.3123
  719   14.360   2729.59     1.8059     0.0660     0.7487     0.1436     2.1177     3.6665   229.7600     1.8880     0.3172
  720   14.380   2730.64     1.8149     0.0640     0.7513     0.1438     2.1332     3.5185   230.0800     1.9031     0.3226
  721   14.400   2731.71     1.8258     0.0602     0.6866     0.1440     2.1254     3.3320   230.4000     1.8950     0.3005
  722   14.420   2732.73     1.8398     0.0601     0.6561     0.1442     2.1176     3.2746   230.7200     1.8869     0.2742
  723   14.440   2733.76     1.7733     0.0590     0.6762     0.1444     2.0491     3.2442   231.0400     1.8181     0.2818
  724   14.460   2734.82     1.7050     0.0567     0.7040     0.1446     1.9970     3.3036   231.3600     1.7656     0.3118
  725   14.480   2735.87     1.6743     0.0497     0.6919     0.1448     1.9708     2.9456   231.6800     1.7391     0.3227
  726   14.500   2736.87     1.6287     0.0470     0.6719     0.1450     1.9127     2.8571   232.0000     1.6807     0.3161
  727   14.520   2737.87     1.6431     0.0469     0.6922     0.1452     1.9295     2.8584   232.3200     1.6972     0.3163
  728   14.540   2738.93     1.6243     0.0479     0.7090     0.1454     1.9184     2.9431   232.6400     1.6858     0.3291
  729   14.560   2739.95     1.6151     0.0463     0.7361     0.1456     1.9180     2.8651   232.9600     1.6851     0.3416
  730   14.580   2741.05     1.6499     0.0502     0.7080     0.1458     1.9499     3.0970   233.2800     1.7166     0.3313
  731   14.600   2742.10     1.6907     0.0525     0.7174     0.1460     1.9899     3.1024   233.6000     1.7563     0.3225
  732   14.620   2743.11     1.6381     0.0553     0.7011     0.1462     1.9375     3.3427   233.9200     1.7036     0.3326
  733   14.640   2744.16     1.6309     0.0569     0.6334     0.1464     1.9114     3.5064   234.2400     1.6772     0.3109
  734   14.660   2745.19     1.6722     0.0607     0.4753     0.1466     1.8814     3.6820   234.5600     1.6468     0.2133
  735   14.680   2746.25     1.6439     0.0647     0.5081     0.1468     1.8527     3.8621   234.8800     1.6178     0.2165
  736   14.700   2747.30     1.5616     0.0642     0.5203     0.1470     1.7789     4.0058   235.2000     1.5437     0.2400
  737   14.720   2748.30     1.5218     0.0557     0.4988     0.1472     1.7340     3.6373   235.5200     1.4985     0.2389
  738   14.740   2749.39     1.4211     0.0493     0.4863     0.1474     1.6234     3.4058   235.8400     1.3876     0.2409
  739   14.760   2750.38     1.3695     0.0463     0.4836     0.1476     1.5714     3.3435   236.1600     1.3352     0.2495
  740   14.780   2751.47     1.2779     0.0426     0.5185     0.1478     1.4901     3.2754   236.4800     1.2536     0.2851
  741   14.800   2752.51     1.2543     0.0373     0.5532     0.1480     1.4825     2.9644   236.8000     1.2457     0.3173
  742   14.820   2753.59     1.2368     0.0343     0.5763     0.1482     1.4753     2.7492   237.1200     1.2381     0.3390
  743   14.840   2754.61     1.2210     0.0324     0.6015     0.1484     1.4705     2.6423   237.4400     1.2330     0.3613
  744   14.860   2755.68     1.2198     0.0322     0.6126     0.1486     1.4763     2.6293   237.7600     1.2385     0.3731
  745   14.880   2756.71     1.2295     0.0322     0.6235     0.1488     1.4891     2.6415   238.0800     1.2510     0.3751
  746   14.900   2757.74     1.2541     0.0324     0.6309     0.1490     1.5178     2.6110   238.4000     1.2794     0.3744
  747   14.920   2758.76     1.2877     0.0342     0.6349     0.1492     1.5546     2.6924   238.7200     1.3158     0.3694
  748   14.940   2759.79     1.2983     0.0352     0.6347     0.1494     1.5649     2.7096   239.0400     1.3259     0.3661
  749   14.960   2760.82     1.3199     0.0371     0.6433     0.1496     1.5885     2.8299   239.3600     1.3492     0.3632
  750   14.980   2761.93     1.2868     0.0377     0.6467     0.1498     1.5581     2.9022   239.6800     1.3185     0.3764
  751   15.000   2762.99     1.2822     0.0375     0.6440     0.1500     1.5528     2.9156   240.0000     1.3128     0.3766
  752   15.020   2764.01     1.2629     0.0361     0.6595     0.1502     1.5356     2.8350   240.3200     1.2953     0.3853
  753   15.040   2765.06     1.2328     0.0348     0.6716     0.1504     1.5130     2.8008   240.6400     1.2724     0.4060
  754   15.060   2766.12     1.2326     0.0339     0.6821     0.1506     1.5182     2.7479   240.9600     1.2772     0.4144
  755   15.080   2767.15     1.2255     0.0338     0.6913     0.1508     1.5142     2.7536   241.2800     1.2729     0.4215
  756   15.100   2768.19     1.2696     0.0347     0.6979     0.1510     1.5620     2.7867   241.6000     1.3204     0.4129
  757   15.120   2769.22     1.3119     0.0365     0.7015     0.1512     1.6058     2.8244   241.9200     1.3639     0.4022
  758   15.140   2770.23     1.2999     0.0371     0.7021     0.1514     1.5964     2.8564   242.2400     1.3542     0.4095
  759   15.160   2771.33     1.3229     0.0388     0.6848     0.1516     1.6150     2.9575   242.5600     1.3724     0.3962
  760   15.180   2772.36     1.3314     0.0393     0.6557     0.1518     1.6122     2.9674   242.8800     1.3694     0.3774
  761   15.200   2773.44     1.3516     0.0394     0.6202     0.1520     1.6121     2.9201   243.2000     1.3689     0.3422
  762   15.220   2774.47     1.3198     0.0383     0.6196     0.1522     1.5802     2.8666   243.5200     1.3367     0.3500
  763   15.240   2775.47     1.2880     0.0368     0.6250     0.1524     1.5489     2.8290   243.8400     1.3051     0.3592
  764   15.260   2776.53     1.2521     0.0350     0.6391     0.1526     1.5173     2.7725   244.1600     1.2731     0.3761
  765   15.280   2777.56     1.2431     0.0332     0.6628     0.1528     1.5177     2.6785   244.4800     1.2732     0.3935
  766   15.300   2778.60     1.2303     0.0306     0.6914     0.1530     1.5176     2.4773   244.8000     1.2728     0.4172
  767   15.320   2779.63     1.2324     0.0301     0.7086     0.1532     1.5274     2.4468   245.1200     1.2823     0.4283
  768   15.340   2780.69     1.2568     0.0287     0.7390     0.1534     1.5614     2.2952   245.4400     1.3159     0.4344
  769   15.360   2781.74     1.2728     0.0270     0.7764     0.1536     1.5941     2.1281   245.7600     1.3484     0.4534
  770   15.380   2782.79     1.2372     0.0269     0.7716     0.1538     1.5639     2.1470   246.0800     1.3178     0.4736
  771   15.400   2783.85     1.1987     0.0257     0.7767     0.1540     1.5263     2.1190   246.4000     1.2799     0.4890
  772   15.420   2784.90     1.1896     0.0266     0.8093     0.1542     1.5239     2.2200   246.7200     1.2772     0.5025
  773   15.440   2785.93     1.1853     0.0262     0.8316     0.1544     1.5304     2.2126   247.0400     1.2834     0.5200
  774   15.460   2786.98     1.2074     0.0251     0.8544     0.1546     1.5636     2.0920   247.3600     1.3163     0.5269
  775   15.480   2788.03     1.2141     0.0246     0.8620     0.1548     1.5757     2.0171   247.6800     1.3280     0.5318
  776   15.500   2789.06     1.2269     0.0253     0.8716     0.1550     1.5913     2.0707   248.0000     1.3433     0.5305
  777   15.520   2790.12     1.2117     0.0255     0.8852     0.1552     1.5824     2.0893   248.3200     1.3341     0.5454
  778   15.540   2791.12     1.1907     0.0252     0.8935     0.1554     1.5647     2.1093   248.6400     1.3161     0.5585
  779   15.560   2792.20     1.1772     0.0254     0.9034     0.1556     1.5542     2.1681   248.9600     1.3052     0.5685
  780   15.580   2793.21     1.1966     0.0258     0.9221     0.1558     1.5813     2.1678   249.2800     1.3320     0.5707
  781   15.600   2794.31     1.2008     0.0251     0.9266     0.1560     1.5907     2.0864   249.6000     1.3411     0.5758
  782   15.620   2795.36     1.1988     0.0255     0.9342     0.1562     1.5896     2.1235   249.9200     1.3397     0.5780
  783   15.640   2796.37     1.2102     0.0256     0.9485     0.1564     1.6069     2.1260   250.2400     1.3567     0.5809
  784   15.660   2797.42     1.1978     0.0252     0.9502     0.1566     1.5970     2.0864   250.5600     1.3465     0.5897
  785   15.680   2798.47     1.1723     0.0245     0.9589     0.1568     1.5731     2.0700   250.8800     1.3222     0.6032
  786   15.700   2799.45     1.1888     0.0247     0.9647     0.1570     1.5927     2.0933   251.2000     1.3415     0.5999
  787   15.720   2800.51     1.1990     0.0244     0.9739     0.1572     1.6064     2.0407   251.5200     1.3549     0.5999
  788   15.740   2801.56     1.2148     0.0252     0.9809     0.1574     1.6259     2.0918   251.8400     1.3740     0.5978
  789   15.760   2802.61     1.2339     0.0245     0.9846     0.1576     1.6467     1.9852   252.1600     1.3945     0.5919
  790   15.780   2803.69     1.2288     0.0247     0.9721     0.1578     1.6388     2.0146   252.4800     1.3863     0.5903
  791   15.800   2804.69     1.2365     0.0249     0.9710     0.1580     1.6437     2.0217   252.8000     1.3909     0.5834
  792   15.820   2805.74     1.2377     0.0246     0.9728     0.1582     1.6457     1.9845   253.1200     1.3926     0.5839
  793   15.840   2806.79     1.2120     0.0249     0.9647     0.1584     1.6195     2.0323   253.4400     1.3661     0.5944
  794   15.860   2807.81     1.1668     0.0244     0.9303     0.1586     1.5631     2.0641   253.7600     1.3093     0.5995
  795   15.880   2808.86     1.1300     0.0237     0.9190     0.1588     1.5168     2.0734   254.0800     1.2628     0.6037
  796   15.900   2809.89     1.0974     0.0234     0.9293     0.1590     1.4857     2.1158   254.4000     1.2313     0.6217
  797   15.920   2810.97     1.0956     0.0228     0.9429     0.1592     1.4901     2.0792   254.7200     1.2354     0.6314
  798   15.940   2812.02     1.1022     0.0220     0.9496     0.1594     1.4996     2.0014   255.0400     1.2446     0.6323
  799   15.960   2813.05     1.1199     0.0219     0.9508     0.1596     1.5192     1.9733   255.3600     1.2638     0.6259
  800   15.980   2814.09     1.1285     0.0220     0.9513     0.1598     1.5283     1.9549   255.6800     1.2726     0.6225
  801   16.000   2815.14     1.1203     0.0214     0.9504     0.1600     1.5197     1.8955   256.0000     1.2637     0.6259
  802   16.020   2816.15     1.1210     0.0219     0.9492     0.1602     1.5195     1.9580   256.3200     1.2632     0.6244
  803   16.040   2817.16     1.1251     0.0215     0.9417     0.1604     1.5216     1.9191   256.6400     1.2650     0.6196
  804   16.060   2818.22     1.1489     0.0232     0.9451     0.1606     1.5452     2.0401   256.9600     1.2883     0.6079
  805   16.080   2819.27     1.1496     0.0248     0.9536     0.1608     1.5495     2.1610   257.2800     1.2922     0.6124
  806   16.100   2820.33     1.1470     0.0242     0.9422     0.1610     1.5444     2.1136   257.6000     1.2868     0.6103
  807   16.120   2821.32     1.1372     0.0234     0.9361     0.1612     1.5315     2.0607   257.9200     1.2736     0.6107
  808   16.140   2822.38     1.1394     0.0231     0.9384     0.1614     1.5323     2.0240   258.2400     1.2741     0.6075
  809   16.160   2836.19     1.1401     0.0239     0.9359     0.1616     1.5336     2.1071   258.5600     1.2751     0.6080
  810   16.180   2857.87     1.1471     0.0236     0.9330     0.1618     1.5393     2.0752   258.8800     1.2805     0.6031
  811   16.200   2868.78     1.1581     0.0240     0.9307     0.1620     1.5500     2.0880   259.2000     1.2908     0.5973
  812   16.220   2869.86     1.1573     0.0241     0.9215     0.1622     1.5451     2.0754   259.5200     1.2856     0.5920
  813   16.240   2870.86     1.1568     0.0236     0.9213     0.1624     1.5427     2.0401   259.8400     1.2828     0.5895
  814   16.260   2871.90     1.1684     0.0238     0.9358     0.1626     1.5580     2.0445   260.1600     1.2979     0.5895
  815   16.280   2872.93     1.1693     0.0230     0.9549     0.1628     1.5674     1.9701   260.4800     1.3070     0.6008
  816   16.300   2873.93     1.1705     0.0235     0.9541     0.1630     1.5723     2.0112   260.8000     1.3115     0.6053
  817   16.320   2875.00     1.1842     0.0236     0.9609     0.1632     1.5863     1.9984   261.1200     1.3251     0.5993
  818   16.340   2876.06     1.1764     0.0233     0.9614     0.1634     1.5821     1.9735   261.4400     1.3207     0.6078
  819   16.360   2877.13     1.1924     0.0238     0.9605     0.1636     1.5954     2.0116   261.7600     1.3337     0.5968
  820   16.380   2878.15     1.2013     0.0240     0.9492     0.1638     1.6028     2.0136   262.0800     1.3408     0.5909
  821   16.400   2879.18     1.2103     0.0242     0.9506     0.1640     1.6084     1.9989   262.4000     1.3460     0.5823
  822   16.420   2880.27     1.2141     0.0246     0.9451     0.1642     1.6121     2.0215   262.7200     1.3494     0.5805
  823   16.440   2881.27     1.2040     0.0244     0.9439     0.1644     1.5988     2.0288   263.0400     1.3358     0.5807
  824   16.460   2882.33     1.1996     0.0250     0.9487     0.1646     1.5958     2.0787   263.3600     1.3325     0.5845
  825   16.480   2883.36     1.2083     0.0251     0.9507     0.1648     1.6066     2.0792   263.6800     1.3429     0.5835
  826   16.500   2884.41     1.2026     0.0257     0.9496     0.1650     1.6020     2.1327   264.0000     1.3380     0.5875
  827   16.520   2885.44     1.2069     0.0253     0.9686     0.1652     1.6118     2.1034   264.3200     1.3475     0.5928
  828   16.540   2886.47     1.2188     0.0249     0.9585     0.1654     1.6226     2.0543   264.6400     1.3579     0.5861
  829   16.560   2887.49     1.2125     0.0251     0.9652     0.1656     1.6161     2.0644   264.9600     1.3512     0.5886
  830   16.580   2888.55     1.2086     0.0242     0.9631     0.1658     1.6129     2.0046   265.2800     1.3476     0.5912
  831   16.600   2889.55     1.2026     0.0241     0.9506     0.1660     1.6047     1.9960   265.6000     1.3391     0.5909
  832   16.620   2890.59     1.1839     0.0247     0.9472     0.1662     1.5821     2.0800   265.9200     1.3162     0.5940
  833   16.640   2891.61     1.1858     0.0254     0.9552     0.1664     1.5874     2.1351   266.2400     1.3211     0.5978
  834   16.660   2892.67     1.1885     0.0253     0.9555     0.1666     1.5883     2.1320   266.5600     1.3217     0.5941
  835   16.680   2893.74     1.2083     0.0246     0.9650     0.1668     1.6128     2.0619   266.8800     1.3460     0.5917
  836   16.700   2894.74     1.2187     0.0252     0.9684     0.1670     1.6255     2.0688   267.2000     1.3583     0.5901
  837   16.720   2895.79     1.2012     0.0254     0.9582     0.1672     1.6067     2.0913   267.5200     1.3391     0.5960
  838   16.740   2896.83     1.1912     0.0254     0.9510     0.1674     1.5903     2.1270   267.8400     1.3224     0.5919
  839   16.760   2897.88     1.2083     0.0255     0.9672     0.1676     1.6118     2.1200   268.1600     1.3436     0.5903
  840   16.780   2898.92     1.2104     0.0254     0.9699     0.1678     1.6164     2.1018   268.4800     1.3479     0.5926
  841   16.800   2899.93     1.1888     0.0254     0.9700     0.1680     1.5968     2.1257   268.8000     1.3280     0.6049
  842   16.820   2900.97     1.1932     0.0246     0.9774     0.1682     1.6024     2.0620   269.1200     1.3333     0.6047
  843   16.840   2902.00     1.1746     0.0250     0.9847     0.1684     1.5878     2.1110   269.4400     1.3183     0.6184
  844   16.860   2903.04     1.1767     0.0242     0.9998     0.1686     1.5946     2.0635   269.7600     1.3249     0.6238
  845   16.880   2904.07     1.1835     0.0240     0.9997     0.1688     1.6020     2.0221   270.0800     1.3319     0.6213
  846   16.900   2905.10     1.1953     0.0244     1.0143     0.1690     1.6192     2.0473   270.4000     1.3488     0.6230
  847   16.920   2906.18     1.2056     0.0247     1.0180     0.1692     1.6327     2.0513   270.7200     1.3620     0.6225
  848   16.940   2907.23     1.2090     0.0248     1.0242     0.1694     1.6378     2.0508   271.0400     1.3668     0.6230
  849   16.960   2908.26     1.2548     0.0255     1.0248     0.1696     1.6855     2.0721   271.3600     1.4142     0.6053
  850   16.980   2909.31     1.2499     0.0244     1.0154     0.1698     1.6788     1.9445   271.6800     1.4071     0.6050
  851   17.000   2910.32     1.2547     0.0248     1.0127     0.1700     1.6767     1.9799   272.0000     1.4047     0.5943
  852   17.020   2911.39     1.2700     0.0263     0.9828     0.1702     1.6890     2.0809   272.3200     1.4166     0.5840
  853   17.040   2912.39     1.2658     0.0266     0.9849     0.1704     1.6765     2.0918   272.6400     1.4038     0.5751
  854   17.060   2913.43     1.2624     0.0259     0.9989     0.1706     1.6805     2.0551   272.9600     1.4075     0.5859
  855   17.080   2914.45     1.2704     0.0267     0.9995     0.1708     1.6905     2.1033   273.2800     1.4172     0.5852
  856   17.100   2915.54     1.2928     0.0267     1.0144     0.1710     1.7161     2.0890   273.6000     1.4425     0.5802
  857   17.120   2916.57     1.3045     0.0266     1.0231     0.1712     1.7342     2.0377   273.9200     1.4603     0.5834
  858   17.140   2917.59     1.2897     0.0259     1.0051     0.1714     1.7157     2.0000   274.2400     1.4415     0.5847
  859   17.160   2918.64     1.2787     0.0262     0.9882     0.1716     1.6920     2.0327   274.5600     1.4175     0.5731
  860   17.180   2919.67     1.2573     0.0265     1.0092     0.1718     1.6793     2.0907   274.8800     1.4044     0.5931
  861   17.200   2920.68     1.2457     0.0263     1.0130     0.1720     1.6710     2.0991   275.2000     1.3958     0.6022
  862   17.220   2921.68     1.2525     0.0260     1.0128     0.1722     1.6783     2.0776   275.5200     1.4028     0.5999
  863   17.240   2922.76     1.2489     0.0255     1.0142     0.1724     1.6736     2.0445   275.8400     1.3977     0.6000
  864   17.260   2923.75     1.2564     0.0253     1.0275     0.1726     1.6860     2.0280   276.1600     1.4098     0.6030
  865   17.280   2924.76     1.2659     0.0261     1.0272     0.1728     1.6960     2.0683   276.4800     1.4196     0.5997
  866   17.300   2925.81     1.2608     0.0251     1.0298     0.1730     1.6940     1.9866   276.8000     1.4172     0.6058
  867   17.320   2926.84     1.2589     0.0247     1.0306     0.1732     1.6924     1.9602   277.1200     1.4153     0.6068
  868   17.340   2927.94     1.2601     0.0257     1.0293     0.1734     1.6935     2.0474   277.4400     1.4161     0.6063
  869   17.360   2928.95     1.2625     0.0257     1.0380     0.1736     1.6987     2.0339   277.7600     1.4210     0.6087
  870   17.380   2930.00     1.2553     0.0251     1.0417     0.1738     1.6921     1.9923   278.0800     1.4140     0.6126
  871   17.400   2931.02     1.2690     0.0247     1.0485     0.1740     1.7084     1.9661   278.4000     1.4300     0.6100
  872   17.420   2932.04     1.2902     0.0246     1.0533     0.1742     1.7320     1.9055   278.7200     1.4533     0.6039
  873   17.440   2933.04     1.2704     0.0248     1.0478     0.1744     1.7113     1.9417   279.0400     1.4322     0.6111
  874   17.460   2934.09     1.2640     0.0244     1.0496     0.1746     1.7026     1.9268   279.3600     1.4232     0.6110
  875   17.480   2935.14     1.2649     0.0242     1.0593     0.1748     1.7092     1.9138   279.6800     1.4295     0.6178
  876   17.500   2936.16     1.2625     0.0245     1.0657     0.1750     1.7093     1.9359   280.0000     1.4293     0.6218
  877   17.520   2937.20     1.2657     0.0243     1.0666     0.1752     1.7137     1.9289   280.3200     1.4333     0.6219
  878   17.540   2938.26     1.2719     0.0241     1.0685     0.1754     1.7194     1.8902   280.6400     1.4387     0.6187
  879   17.560   2939.26     1.2699     0.0245     1.0729     0.1756     1.7205     1.9238   280.9600     1.4395     0.6232
  880   17.580   2940.29     1.2788     0.0256     1.0749     0.1758     1.7305     2.0089   281.2800     1.4492     0.6207
  881   17.600   2941.31     1.2871     0.0260     1.0739     0.1760     1.7378     2.0246   281.6000     1.4562     0.6160
  882   17.620   2942.32     1.2936     0.0271     1.0789     0.1762     1.7466     2.1011   281.9200     1.4647     0.6161
  883   17.640   2943.37     1.2945     0.0276     1.0740     0.1764     1.7466     2.1325   282.2400     1.4644     0.6146
  884   17.660   2944.43     1.3037     0.0266     1.0730     0.1766     1.7542     2.0438   282.5600     1.4716     0.6088
  885   17.680   2945.48     1.2929     0.0260     1.0808     0.1768     1.7454     2.0047   282.8800     1.4625     0.6157
  886   17.700   2946.50     1.3073     0.0271     1.0927     0.1770     1.7641     2.0859   283.2000     1.4809     0.6148
  887   17.720   2947.51     1.3360     0.0253     1.1116     0.1772     1.8004     1.9193   283.5200     1.5169     0.6121
  888   17.740   2948.56     1.3689     0.0200     1.1294     0.1774     1.8414     1.4794   283.8400     1.5576     0.6085
  889   17.760   2949.62     1.4183     0.0211     1.1168     0.1776     1.8904     1.5033   284.1600     1.6063     0.5893
  890   17.780   2950.61     1.4203     0.0223     1.0937     0.1778     1.8828     1.5730   284.4800     1.5983     0.5777
  891   17.800   2951.65     1.4370     0.0247     1.1033     0.1780     1.9008     1.7079   284.8000     1.6160     0.5733
  892   17.820   2952.67     1.5877     0.0249     1.0402     0.1782     2.0428     1.6493   285.1200     1.7577     0.5154
  893   17.840   2953.73     1.7551     0.0249     0.9013     0.1784     2.1439     1.4370   285.4400     1.8585     0.4021
  894   17.860   2954.75     1.6593     0.0253     0.9164     0.1786     2.0424     1.4746   285.7600     1.7566     0.4176
  895   17.880   2955.84     1.5700     0.0278     0.9420     0.1788     1.9624     1.7272   286.0800     1.6764     0.4508
  896   17.900   2956.87     1.4906     0.0273     0.9709     0.1790     1.8916     1.8018   286.4000     1.6052     0.4832
  897   17.920   2957.86     1.5054     0.0253     0.9848     0.1792     1.9171     1.6928   286.7200     1.6304     0.4914
  898   17.940   2958.95     1.5107     0.0250     0.9818     0.1794     1.9238     1.6431   287.0400     1.6367     0.4914
  899   17.960   2959.96     1.4622     0.0260     0.9928     0.1796     1.8780     1.7629   287.3600     1.5906     0.5095
  900   17.980   2961.03     1.4615     0.0263     1.0055     0.1798     1.8813     1.8041   287.6800     1.5936     0.5144
  901   18.000   2962.03     1.5179     0.0246     1.0072     0.1800     1.9423     1.6616   288.0000     1.6543     0.5022
  902   18.020   2963.09     1.5980     0.0251     0.9624     0.1802     2.0084     1.5676   288.3200     1.7200     0.4632
  903   18.040   2964.09     1.5268     0.0249     0.9595     0.1804     1.9296     1.6073   288.6400     1.6409     0.4745
  904   18.060   2965.14     1.4573     0.0246     0.9759     0.1806     1.8635     1.6644   288.9600     1.5746     0.4997
  905   18.080   2966.16     1.4309     0.0246     1.0067     0.1808     1.8494     1.7157   289.2800     1.5601     0.5227
  906   18.100   2967.22     1.4601     0.0248     1.0162     0.1810     1.8865     1.7072   289.6000     1.5969     0.5225
  907   18.120   2968.25     1.4338     0.0243     1.0147     0.1812     1.8602     1.6899   289.9200     1.5703     0.5312
  908   18.140   2976.25     1.3835     0.0233     1.0111     0.1814     1.8088     1.6623   290.2400     1.5185     0.5477
  909   18.160   2992.05     1.3406     0.0253     1.0071     0.1816     1.7642     1.8022   290.5600     1.4736     0.5619
  910   18.180   3007.84     1.2977     0.0260     1.0066     0.1818     1.7196     1.8539   290.8800     1.4287     0.5760
  911   18.200   3010.70     1.2813     0.0252     1.0123     0.1820     1.7061     1.9623   291.2000     1.4149     0.5862
  912   18.220   3011.69     1.2856     0.0241     1.0050     0.1822     1.7092     1.8766   291.5200     1.4176     0.5829
  913   18.240   3012.74     1.4636     0.0242     0.7522     0.1824     1.8296     1.8299   291.8400     1.5378     0.4492
  914   18.260   3013.73     1.2987     0.0254     0.6447     0.1826     1.5631     1.7421   292.1600     1.2709     0.3517
  915   18.280   3014.82     1.2510     0.0251     0.6988     0.1828     1.5377     1.9807   292.4800     1.2452     0.4014
  916   18.300   3015.84     1.2567     0.0238     0.7440     0.1830     1.5632     1.8992   292.8000     1.2704     0.4304
  917   18.320   3016.91     1.2700     0.0236     0.7749     0.1832     1.5915     1.8699   293.1200     1.2984     0.4486
  918   18.340   3017.93     1.2629     0.0233     0.8007     0.1834     1.5948     1.8335   293.4400     1.3013     0.4664
  919   18.360   3018.99     1.2498     0.0230     0.8292     0.1836     1.5951     1.8405   293.7600     1.3013     0.4906
  920   18.380   3019.96     1.2532     0.0228     0.8493     0.1838     1.6072     1.8253   294.0800     1.3132     0.5019
  921   18.400   3021.00     1.2710     0.0221     0.8628     0.1840     1.6316     1.7469   294.4000     1.3372     0.5044
  922   18.420   3021.99     1.2718     0.0212     0.8811     0.1842     1.6387     1.6585   294.7200     1.3440     0.5130
  923   18.440   3023.05     1.2520     0.0212     0.8944     0.1844     1.6256     1.6757   295.0400     1.3306     0.5300
  924   18.460   3024.13     1.2251     0.0219     0.9131     0.1846     1.6058     1.7680   295.3600     1.3105     0.5508
  925   18.480   3025.13     1.2142     0.0224     0.9273     0.1848     1.6014     1.8398   295.6800     1.3058     0.5645
  926   18.500   3026.18     1.2177     0.0226     0.9349     0.1850     1.6098     1.8636   296.0000     1.3138     0.5698
  927   18.520   3027.19     1.2227     0.0223     0.9425     0.1852     1.6177     1.8327   296.3200     1.3214     0.5715
  928   18.540   3028.21     1.2459     0.0222     0.9482     0.1854     1.6434     1.7962   296.6400     1.3467     0.5651
  929   18.560   3029.24     1.2780     0.0214     0.9488     0.1856     1.6770     1.6909   296.9600     1.3801     0.5540
  930   18.580   3030.29     1.2853     0.0230     0.9475     0.1858     1.6840     1.7841   297.2800     1.3868     0.5506
  931   18.600   3031.29     1.2795     0.0228     0.9476     0.1860     1.6770     1.7760   297.6000     1.3794     0.5513
  932   18.620   3032.34     1.2576     0.0219     0.9516     0.1862     1.6568     1.7340   297.9200     1.3588     0.5623
  933   18.640   3033.37     1.2510     0.0308     0.9574     0.1864     1.6528     2.4565   298.2400     1.3545     0.5686
  934   18.660   3034.39     1.2964     0.0379     0.9422     0.1866     1.6922     2.9900   298.5600     1.3936     0.5425
  935   18.680   3035.46     1.6580     0.0351     0.9220     0.1868     2.0503     2.3495   298.8800     1.7514     0.4277
  936   18.700   3036.52     2.0186     0.0317     0.8182     0.1870     2.3809     1.6865   299.2000     2.0817     0.3254
  937   18.720   3037.55     2.1883     0.0297     0.6148     0.1872     2.4739     1.3638   299.5200     2.1743     0.2260
  938   18.740   3038.59     1.9399     0.0275     0.6092     0.1874     2.1946     1.3258   299.8400     1.8948     0.2218
  939   18.760   3039.63     1.5633     0.0270     0.6575     0.1876     1.8298     1.6149   300.1600     1.5296     0.2929
  940   18.780   3040.66     1.4253     0.0251     0.7142     0.1878     1.7186     1.7408   300.4800     1.4181     0.3600
  941   18.800   3041.74     1.4245     0.0252     0.7414     0.1880     1.7329     1.7817   300.8000     1.4321     0.3814
  942   18.820   3042.76     1.4345     0.0276     0.7593     0.1882     1.7504     1.9350   301.1200     1.4493     0.3892
  943   18.840   3043.79     1.4365     0.0286     0.7828     0.1884     1.7622     1.9850   301.4400     1.4608     0.4019
  944   18.860   3044.80     1.4705     0.0302     0.7937     0.1886     1.8023     2.0821   301.7600     1.5005     0.4007
  945   18.880   3045.90     1.5294     0.0330     0.7980     0.1888     1.8644     2.1867   302.0800     1.5624     0.3897
  946   18.900   3046.90     1.5484     0.0336     0.8026     0.1890     1.8857     2.1741   302.4000     1.5833     0.3879
  947   18.920   3047.94     1.5597     0.0353     0.7997     0.1892     1.8959     2.2663   302.7200     1.5932     0.3838
  948   18.940   3048.94     1.5610     0.0356     0.7984     0.1894     1.8961     2.2854   303.0400     1.5931     0.3819
  949   18.960   3049.97     1.5737     0.0352     0.7996     0.1896     1.9095     2.2540   303.3600     1.6062     0.3798
  950   18.980   3051.04     1.6511     0.0360     0.7884     0.1898     1.9835     2.2203   303.6800     1.6798     0.3582
  951   19.000   3052.12     1.7194     0.0385     0.7830     0.1900     2.0494     2.2837   304.0000     1.7454     0.3413
  952   19.020   3053.14     1.8110     0.0416     0.7710     0.1902     2.1365     2.3503   304.3200     1.8321     0.3192
  953   19.040   3054.17     1.9036     0.0452     0.7595     0.1904     2.2247     2.4170   304.6400     1.9201     0.2991
  954   19.060   3055.23     1.9852     0.0459     0.7526     0.1906     2.3013     2.3526   304.9600     1.9963     0.2816
  955   19.080   3056.23     2.0695     0.0478     0.7527     0.1908     2.3866     2.3413   305.2800     2.0813     0.2711
  956   19.100   3057.24     2.1962     0.0499     0.7271     0.1910     2.5049     2.3132   305.6000     2.1993     0.2474
  957   19.120   3058.33     2.3470     0.0526     0.7048     0.1912     2.6450     2.2774   305.9200     2.3391     0.2217
  958   19.140   3059.38     2.4717     0.0562     0.6820     0.1914     2.7607     2.3070   306.2400     2.4544     0.2023
  959   19.160   3060.43     2.6515     0.0619     0.6860     0.1916     2.9372     2.3900   306.5600     2.6306     0.1858
  960   19.180   3061.53     3.0729     0.0732     0.7032     0.1918     3.3666     2.5142   306.8800     3.0598     0.1662
  961   19.200   3062.58     3.9994     0.0818     0.6869     0.1920     4.2922     2.2145   307.2000     3.9850     0.1274
  962   19.220   3063.64     5.2930     0.0775     0.6272     0.1922     5.5670     1.5712   307.5200     5.2595     0.0879
  963   19.240   3064.68     6.4386     0.0723     0.5203     0.1924     6.6771     1.1512   307.8400     6.3692     0.0591
  964   19.260   3065.72     7.7196     0.0737     0.3404     0.1926     7.8893     0.9843   308.1600     7.5812     0.0280
  965   19.280   3066.80     8.6413     0.0734     0.1498     0.1928     8.7313     0.8625   308.4800     8.4228     0.0025
  966   19.300   3067.89     8.7077     0.0710     0.0582     0.1930     8.7414     0.8138   308.8000     8.4326    -0.0134
  967   19.320   3068.96     8.6520     0.0675     0.0601     0.1932     8.6765     0.7808   309.1200     8.3674    -0.0161
  968   19.340   3070.10     8.9309     0.0638     0.0522     0.1934     8.9560     0.7239   309.4400     8.6466    -0.0154
  969   19.360   3071.13     9.3641     0.0635     0.0366     0.1936     9.3801     0.6914   309.7600     9.0704    -0.0171
  970   19.380   3072.21    10.0393     0.0599     0.0287     0.1938    10.0551     0.6139   310.0800     9.7451    -0.0160
  971   19.400   3073.26    10.7224     0.0557    -0.0076     0.1940    10.7251     0.5225   310.4000    10.4147    -0.0180
  972   19.420   3074.29    11.2895     0.0519    -0.0255     0.1942    11.2803     0.4638   310.7200    10.9696    -0.0197
  973   19.440   3075.35    11.8379     0.0496    -0.0577     0.1944    11.8190     0.4235   311.0400    11.5080    -0.0208
  974   19.460   3076.37    12.2769     0.0529    -0.0553     0.1946    12.2527     0.4354   311.3600    11.9413    -0.0211
  975   19.480   3077.39    12.6669     0.0580    -0.0519     0.1948    12.6439     0.4626   311.6800    12.3322    -0.0202
  976   19.500   3078.30    12.9286     0.0622    -0.0515     0.1950    12.9067     0.4846   312.0000    12.5947    -0.0196
  977   19.520   3079.27    13.1003     0.0690    -0.0464     0.1952    13.0797     0.5288   312.3200    12.7674    -0.0191
  978   19.540   3080.20    13.2571     0.0751    -0.0252     0.1954    13.2451     0.5692   312.6400    12.9325    -0.0173
  979   19.560   3081.17    13.4045     0.0792    -0.0137     0.1956    13.3968     0.5934   312.9600    13.0839    -0.0164
  980   19.580   3082.14    13.5415     0.0832    -0.0014     0.1958    13.5388     0.6167   313.2800    13.2255    -0.0153
  981   19.600   3083.09    13.6619     0.0850     0.0234     0.1960    13.6682     0.6242   313.6000    13.3546    -0.0136
  982   19.620   3084.01    13.7727     0.0885     0.0332     0.1962    13.7845     0.6439   313.9200    13.4706    -0.0125
  983   19.640   3084.97    13.8674     0.0920     0.0499     0.1964    13.8846     0.6667   314.2400    13.5704    -0.0115
  984   19.660   3085.93    13.9259     0.0953     0.0633     0.1966    13.9496     0.6885   314.5600    13.6351    -0.0103
  985   19.680   3086.89    13.9191     0.0987     0.0705     0.1968    13.9482     0.7103   314.8800    13.6334    -0.0094
  986   19.700   3087.86    13.8979     0.1019     0.0860     0.1970    13.9305     0.7321   315.2000    13.6153    -0.0088
  987   19.720   3088.77    13.8672     0.1045     0.0934     0.1972    13.9055     0.7527   315.5200    13.5900    -0.0078
  988   19.740   3089.73    13.8502     0.1076     0.0975     0.1974    13.8900     0.7765   315.8400    13.5741    -0.0076
  989   19.760   3091.71    13.8151     0.1079     0.1086     0.1976    13.8591     0.7791   316.1600    13.5430    -0.0068
  990   19.780   3093.80    13.7781     0.1088     0.1197     0.1978    13.8267     0.7857   316.4800    13.5103    -0.0061
  991   19.800   3095.89    13.7410     0.1091     0.1312     0.1980    13.7944     0.7875   316.8000    13.4776    -0.0053
  992   19.820   3097.06    13.6847     0.1076     0.1380     0.1982    13.7421     0.7852   317.1200    13.4250    -0.0046
  993   19.840   3098.04    13.6280     0.1048     0.1469     0.1984    13.6887     0.7681   317.4400    13.3712    -0.0040
  994   19.860   3098.99    13.5379     0.1012     0.1519     0.1986    13.6018     0.7454   317.7600    13.2840    -0.0035
  995   19.880   3099.94    13.4303     0.0974     0.1590     0.1988    13.4958     0.7227   318.0800    13.1778    -0.0032
  996   19.900   3100.89    13.3054     0.0925     0.1587     0.1990    13.3715     0.6930   318.4000    13.0531    -0.0032
  997   19.920   3101.83    13.2173     0.0864     0.1573     0.1992    13.2829     0.6519   318.7200    12.9641    -0.0033
  998   19.940   3102.80    13.1497     0.0812     0.1566     0.1994    13.2152     0.6161   319.0400    12.8961    -0.0034
  999   19.960   3103.74    13.1305     0.0755     0.1603     0.1996    13.1978     0.5757   319.3600    12.8784    -0.0031
 1000   19.980   3104.68    13.2155     0.0701     0.1610     0.1998    13.2842     0.5323   319.6800    12.9645    -0.0028
 1001   20.000   3105.69    13.4642     0.0663     0.1475     0.2000    13.5282     0.4968   320.0000    13.2082    -0.0036
 1002   20.020   3106.62    13.8195     0.0636     0.1400     0.2002    13.8791     0.4659   320.3200    13.5588    -0.0043
 1003   20.040   3107.55    14.2189     0.0665     0.1233     0.2004    14.2738     0.4739   320.6400    13.9531    -0.0050
 1004   20.060   3108.49    14.5806     0.0698     0.1184     0.2006    14.6308     0.4845   320.9600    14.3099    -0.0057
 1005   20.080   3109.44    14.8748     0.0730     0.1204     0.2008    14.9253     0.4950   321.2800    14.6041    -0.0055
 1006   20.100   3110.40    14.9891     0.0765     0.1281     0.2010    15.0430     0.5110   321.6000    14.7214    -0.0049
 1007   20.120   3111.32    14.9659     0.0794     0.1349     0.2012    15.0214     0.5297   321.9200    14.6995    -0.0047
 1008   20.140   3120.56    14.8951     0.0818     0.1475     0.2014    14.9552     0.5480   322.2400    14.6329    -0.0040
 1009   20.160   3136.85    14.8430     0.0846     0.1608     0.2016    14.9087     0.5666   322.5600    14.5861    -0.0031
 1010   20.180   3153.14    14.7909     0.0857     0.1741     0.2018    14.8621     0.5744   322.8800    14.5393    -0.0022
 1011   20.200   3164.14    14.7638     0.0861     0.1747     0.2020    14.8381     0.5821   323.2000    14.5149    -0.0017
 1012   20.220   3165.09    14.8049     0.0864     0.1730     0.2022    14.8775     0.5846   323.5200    14.5539    -0.0020
 1013   20.240   3166.01    14.8583     0.0859     0.1752     0.2024    14.9315     0.5793   323.8400    14.6076    -0.0019
 1014   20.260   3166.95    14.9832     0.0839     0.1807     0.2026    15.0573     0.5615   324.1600    14.7332    -0.0018
 1015   20.280   3167.86    15.0401     0.0811     0.1784     0.2028    15.1155     0.5397   324.4800    14.7910    -0.0016
 1016   20.300   3168.82    15.1419     0.0789     0.1753     0.2030    15.2164     0.5223   324.8000    14.8916    -0.0017
 1017   20.320   3169.86    15.3029     0.0779     0.1741     0.2032    15.3760     0.5110   325.1200    15.0509    -0.0019
 1018   20.340   3170.79    15.5718     0.0788     0.1620     0.2034    15.6434     0.5096   325.4400    15.3179    -0.0022
 1019   20.360   3171.77    15.7901     0.0860     0.1351     0.2036    15.8517     0.5478   325.7600    15.5259    -0.0037
 1020   20.380   3172.74    16.0020     0.0838     0.1299     0.2038    16.0609     0.5262   326.0800    15.7348    -0.0040
 1021   20.400   3173.67    16.2659     0.0683     0.1019     0.2040    16.3132     0.4223   326.4000    15.9868    -0.0057
 1022   20.420   3174.63    16.6315     0.0584     0.0710     0.2042    16.6658     0.3542   326.7200    16.3390    -0.0075
 1023   20.440   3175.58    17.1157     0.0524     0.0042     0.2044    17.1304     0.3092   327.0400    16.8033    -0.0101
 1024   20.460   3176.54    17.7342     0.0483    -0.1070     0.2046    17.7052     0.2757   327.3600    17.3778    -0.0157
 1025   20.480   3177.51    18.2756     0.0452    -0.1724     0.2048    18.2102     0.2497   327.6800    17.8826    -0.0201
 1026   20.500   3178.45    18.7366     0.0470    -0.1624     0.2050    18.6629     0.2529   328.0000    18.3349    -0.0207
 1027   20.520   3179.40    18.9430     0.0514    -0.1547     0.2052    18.8777     0.2719   328.3200    18.5494    -0.0194
 1028   20.540   3180.42    18.9293     0.0564    -0.1404     0.2054    18.8689     0.2976   328.6400    18.5403    -0.0188
 1029   20.560   3181.35    18.7303     0.0590    -0.1233     0.2056    18.6751     0.3134   328.9600    18.3462    -0.0184
 1030   20.580   3182.30    18.2960     0.0597    -0.1061     0.2058    18.2470     0.3222   329.2800    17.9177    -0.0180
 1031   20.600   3183.26    17.8599     0.0602    -0.0585     0.2060    17.8263     0.3333   329.6000    17.4967    -0.0163
 1032   20.620   3184.17    17.5468     0.0628     0.0013     0.2062    17.5413     0.3555   329.9200    17.2113    -0.0127
 1033   20.640   3185.14    17.2732     0.0657     0.0508     0.2064    17.2843     0.3793   330.2400    16.9541    -0.0106
 1034   20.660   3186.06    17.0841     0.0681     0.1164     0.2066    17.1262     0.3985   330.5600    16.7956    -0.0063
 1035   20.680   3187.01    17.0297     0.0701     0.1339     0.2068    17.0842     0.4102   330.8800    16.7533    -0.0046
 1036   20.700   3187.97    17.1246     0.0826     0.1634     0.2070    17.1947     0.4517   331.2000    16.8635    -0.0024
 1037   20.720   3188.96    17.6439     0.0950     0.1732     0.2072    17.7097     0.4932   331.5200    17.3782    -0.0029
 1038   20.740   3189.94    18.6890     0.1075     0.1935     0.2074    18.7687     0.5347   331.8400    18.4369    -0.0010
 1039   20.760   3190.96    20.3377     0.1200     0.1639     0.2076    20.4095     0.5761   332.1600    20.0773    -0.0018
 1040   20.780   3191.95    22.0828     0.1325     0.1080     0.2078    22.1389     0.6176   332.4800    21.8065    -0.0034
 1041   20.800   3194.82    24.1790     0.1450     0.1081     0.2080    24.2243     0.6591   332.8000    23.8915    -0.0043
 1042   20.820   3198.76    26.3546     0.1575     0.1091     0.2082    26.4002     0.7006   333.1200    26.0671    -0.0040
 1043   20.840   3202.71    28.5301     0.1723     0.1100     0.2084    28.5761     0.7565   333.4400    28.2427    -0.0038
 1044   20.860   3206.66    30.7054     0.1909     0.1110     0.2086    30.7518     0.8380   333.7600    30.4181    -0.0035
 1045   20.880   3210.60    32.8809     0.2447     0.1119     0.2088    32.9278     1.0741   334.0800    32.5937    -0.0032
 1046   20.900   3214.55    35.0564     0.2369     0.1129     0.2090    35.1037     1.0398   334.4000    34.7693    -0.0030
 1047   20.920   3218.50    37.2319     0.2257     0.1139     0.2092    37.2796     0.9907   334.7200    36.9449    -0.0027
 1048   20.940   3222.44    39.4072     0.2504     0.1200     0.2094    39.4553     0.8014   335.0400    39.1202    -0.0024
 1049   20.960   3226.26    36.2833     0.2264     0.1538     0.2096    36.3678     0.6203   335.3600    36.0325    -0.0002
 1050   20.980   3227.49    39.7455     0.2449     0.2139     0.2098    39.8030     0.6788   335.6800    39.4673    -0.0018
 1051   21.000   3231.65    35.8915     0.2633     0.1999     0.2100    35.9785     0.7373   336.0000    35.6425    -0.0001
 1052   21.020   3234.06    36.8620     0.2719     0.1789     0.2102    36.9402     0.7722   336.3200    36.6039    -0.0006
 1053   21.040   3237.11    36.5292     0.2690     0.2190     0.2104    36.6061     0.7796   336.6400    36.2695    -0.0007
 1054   21.060   3239.84    37.1732     0.2754     0.1801     0.2106    37.2500     0.7929   336.9600    36.9130    -0.0008
 1055   21.080   3241.69    36.9041     0.2649     0.1722     0.2108    36.9776     0.7125   337.2800    36.6403    -0.0010
 1056   21.100   3243.53    36.6350                0.1644     0.2110    36.7052              337.6000    36.3676    -0.0012
 1057   21.120   3245.49    36.3684                0.1611     0.2112    36.4356              337.9200    36.0977    -0.0014
 1058   21.140   3248.85    36.1341                0.1640     0.2114    36.2025              338.2400    35.8643    -0.0013
 1059   21.160   3252.22    35.8997                0.1710     0.2116    35.9694              338.5600    35.6308    -0.0013
 1060   21.180   3256.33    34.8544                0.1967     0.2118    34.9394              338.8800    34.6005    -0.0003
 1061   21.189   3257.31    35.6468                           0.2119    35.7285              339.0317    35.3895    -0.0005
 
 
