

 Program UNIPLOT                         version 05.36.02
 _______________
 (c) Fugro Netherlands Marine, Nootdorp, The Netherlands


 ASCII representation of data plotted on a graph.

 This ASCII file presents data interpolated to values per fixed depth interval.
 The data are corrected for the depth-offset differences between the various 
 transducers in the penetrometer.

 The records at the start of penetration may include no values or anomalous
 values where a depth offset implies incomplete penetration of a particular
 sensor into the ground.

 The records at the end of penetration may include no values for data channels
 where the transducer did not reach this depth.

 The reference level for test values is (1) the ground surface for onshore tests and (2) the seafloor for nearshore and offshore tests.

 UNICAS data file          : CPT-2015.000                            
 Output using command file : PlotASCII.cmd

 ASCII file created at : date          :28-Apr-2022
                         time          :15:45:08
 Project number                        :20024805
 Date of testing                       :27-Apr-2022
 Location                              :Hong Kong Offshore Wind Farm Project
 Test name                             :CPT-2015
 Penetrometer                          :F7.5CKE2HAW2/B/3342
 Serial no                             :1701-3342

 Table description:
 Column ID                             :Parameter name
 ___________________________________________________________________________________
 Rec                                   :Record ID, Record ID [-]
 Depth                                 :Depth, Depth [m]
 Time                                  :Time, Time [s]
 Cone                                  :Cone Resistance, Cone Resistance [MPa]
 Friction                              :Sleeve Friction, Sleeve Friction [MPa]
 Pore 2                                :Porewater Pressure, Porewater Pressure at Shoulder [MPa]
 HydroPress                            :Hydrostatic Pressure, Hydrostatic Pressure [MPa]
 qt                                    :Total Cone Resistance, Total Cone Resistance [MPa]
 Fric_ratio                            :Friction Ratio, Friction Ratio [%]
 SigmaVert                             :Vertical stress, Vertical stress [kPa] as specified in ground model
 Qnet                                  :Net Cone Resistance, Net Cone Resistance [MPa], unit weight as specified in ground model
 Bq                                    :Porewater Pressure Ratio, Porewater Pressure Ratio [-], unit weight as specified in ground model


 Data table:
  Rec    Depth      Time       Cone   Friction     Pore 2 HydroPress         qt Fric_ratio  SigmaVert       Qnet         Bq
   No        m         s        MPa        MPa        MPa        MPa        MPa          %        kPa        MPa          -
    1    0.000   1556.94     0.0000                           0.0000     0.0000                0.0000     0.0000           
    2    0.020   1557.89     0.0022                0.0001     0.0002     0.0023                0.3200     0.0020     0.0352
    3    0.040   1558.85     0.0020                0.0001     0.0004     0.0020                0.6400     0.0014    -0.3586
    4    0.060   1559.76     0.0014     0.0004     0.0004     0.0006     0.0015    25.4495     0.9600     0.0005    -0.8898
    5    0.080   1560.72     0.0021     0.0002     0.0012     0.0008     0.0025    12.7293     1.2800     0.0012     0.1199
    6    0.100   1561.66     0.0038     0.0003     0.0016     0.0010     0.0044    11.5994     1.6000     0.0028     0.1945
    7    0.120   1562.59     0.0024     0.0003     0.0019     0.0012     0.0032     7.7755     1.9200     0.0012     0.5508
    8    0.140   1563.51     0.0029     0.0003     0.0023     0.0014     0.0039    13.5430     2.2400     0.0017     0.6199
    9    0.160   1564.42     0.0021     0.0004     0.0022     0.0016     0.0030    13.5821     2.5600     0.0005     1.6036
   10    0.180   1565.35     0.0040     0.0004     0.0021     0.0018     0.0048    11.9215     2.8800     0.0020     0.1797
   11    0.200   1566.31     0.0024     0.0001     0.0021     0.0020     0.0033     3.6183     3.2000     0.0001    -0.2391
   12    0.220   1567.25     0.0056     0.0006     0.0023     0.0022     0.0065    11.7145     3.5200     0.0030    -0.0436
   13    0.240   1568.21     0.0054     0.0005     0.0031     0.0024     0.0065    10.3480     3.8400     0.0027     0.1080
   14    0.260   1569.19     0.0054     0.0005     0.0038     0.0026     0.0069     8.7949     4.1600     0.0027     0.3391
   15    0.280   1570.20     0.0065     0.0003     0.0043     0.0028     0.0082     6.4662     4.4800     0.0037     0.4799
   16    0.300   1571.16     0.0078     0.0005     0.0046     0.0030     0.0097     9.0028     4.8000     0.0049     0.4088
   17    0.320   1572.15     0.0093     0.0006     0.0049     0.0032     0.0112     5.6257     5.1200     0.0061     0.2555
   18    0.340   1573.13     0.0103     0.0001     0.0048     0.0034     0.0123     1.3676     5.4400     0.0069     0.1921
   19    0.360   1574.14     0.0105     0.0005     0.0053     0.0036     0.0127     5.0956     5.7600     0.0069     0.2230
   20    0.380   1575.14     0.0111     0.0006     0.0058     0.0038     0.0134     5.5768     6.0800     0.0074     0.2443
   21    0.400   1576.11     0.0126     0.0006     0.0045     0.0040     0.0147     5.1035     6.4000     0.0083     0.1170
   22    0.420   1577.10     0.0126     0.0005     0.0035     0.0042     0.0142     4.0448     6.7200     0.0075    -0.0359
   23    0.440   1578.10     0.0262     0.0010     0.0039     0.0044     0.0279     3.9911     7.0400     0.0209    -0.0177
   24    0.460   1579.10     0.0245     0.0010     0.0039     0.0046     0.0260     4.0832     7.3600     0.0186    -0.0495
   25    0.480   1580.11     0.0256     0.0011     0.0036     0.0048     0.0270     4.3591     7.6800     0.0194    -0.0643
   26    0.500   1581.10     0.0266     0.0013     0.0047     0.0050     0.0284     4.7592     8.0000     0.0204    -0.0396
   27    0.520   1582.09     0.0235     0.0017     0.0054     0.0052     0.0253     7.1014     8.3200     0.0170    -0.0510
   28    0.540   1583.06     0.0161     0.0015     0.0066     0.0054     0.0186     9.3583     8.6400     0.0099     0.0485
   29    0.560   1584.06     0.0165     0.0017     0.0055     0.0056     0.0190    10.7697     8.9600     0.0101     0.0401
   30    0.580   1585.06     0.0185     0.0018     0.0044     0.0058     0.0206     9.7396     9.2800     0.0114    -0.0689
   31    0.600   1586.06     0.0179     0.0017     0.0045     0.0060     0.0196     9.6901     9.6000     0.0100    -0.1927
   32    0.620   1587.02     0.0172     0.0019     0.0051     0.0062     0.0192    10.6571     9.9200     0.0093    -0.1482
   33    0.640   1588.01     0.0219     0.0020     0.0061     0.0064     0.0244     9.2755    10.2400     0.0141    -0.0370
   34    0.660   1589.01     0.0189     0.0021     0.0064     0.0066     0.0215    11.0892    10.5600     0.0109    -0.0256
   35    0.680   1589.99     0.0173     0.0019     0.0063     0.0068     0.0199    10.9845    10.8800     0.0090    -0.0538
   36    0.700   1591.03     0.0202     0.0021     0.0061     0.0070     0.0227    10.9090    11.2000     0.0115    -0.0986
   37    0.720   1591.98     0.0177     0.0019     0.0064     0.0072     0.0203    11.0556    11.5200     0.0088    -0.1103
   38    0.740   1592.99     0.0161     0.0019     0.0076     0.0074     0.0191    11.7773    11.8400     0.0072    -0.0543
   39    0.760   1593.94     0.0153     0.0020     0.0086     0.0076     0.0188    12.7290    12.1600     0.0067     0.1160
   40    0.780   1594.94     0.0147     0.0022     0.0095     0.0078     0.0185    14.9359    12.4800     0.0061     0.2349
   41    0.800   1595.96     0.0134     0.0021     0.0092     0.0080     0.0173    14.7512    12.8000     0.0045     0.2845
   42    0.820   1596.92     0.0138     0.0023     0.0096     0.0082     0.0178    17.2160    13.1200     0.0047     0.3047
   43    0.840   1597.92     0.0112     0.0020     0.0095     0.0084     0.0152    16.5599    13.4400     0.0017     0.6650
   44    0.860   1598.91     0.0131     0.0024     0.0093     0.0086     0.0171    18.3667    13.7600     0.0033     0.2800
   45    0.880   1599.86     0.0089     0.0022     0.0104     0.0088     0.0130    23.4106    14.0800    -0.0011    -0.4454
   46    0.900   1600.91     0.0104     0.0023     0.0117     0.0090     0.0152    26.7956    14.4000     0.0008     1.6899
   47    0.920   1601.90     0.0073     0.0023     0.0122     0.0092     0.0124    32.8032    14.7200    -0.0023    -1.2975
   48    0.940   1602.87     0.0090     0.0025     0.0125     0.0094     0.0142    26.8057    15.0400    -0.0009           
   49    0.960   1603.88     0.0060     0.0025     0.0115     0.0096     0.0111    38.7359    15.3600    -0.0043    -0.7985
   50    0.980   1604.88     0.0064     0.0021     0.0110     0.0098     0.0109    31.0688    15.6800    -0.0048    -0.2520
   51    1.000   1605.87     0.0049     0.0022     0.0116     0.0100     0.0097    40.4282    16.0000    -0.0063    -0.2171
   52    1.020   1606.89     0.0055     0.0026     0.0127     0.0102     0.0107    43.8193    16.3200    -0.0056    -0.4163
   53    1.040   1607.84     0.0035     0.0024     0.0130     0.0104     0.0089    64.9892    16.6400    -0.0078    -0.3180
   54    1.060   1608.84     0.0048     0.0023     0.0136     0.0106     0.0104    45.7583    16.9600    -0.0065    -0.4242
   55    1.080   1609.82     0.0053     0.0024     0.0147     0.0108     0.0113    67.8092    17.2800    -0.0059    -0.6334
   56    1.100   1610.86     0.0047     0.0026     0.0153     0.0110     0.0112    53.1692    17.6000    -0.0064    -0.6903
   57    1.120   1611.86     0.0078     0.0029     0.0158     0.0112     0.0143    32.2345    17.9200    -0.0036     1.8876
   58    1.140   1612.83     0.0079     0.0028     0.0146     0.0114     0.0143    43.0716    18.2400    -0.0039    -1.0265
   59    1.160   1613.86     0.0101     0.0030     0.0144     0.0116     0.0160    31.9233    18.5600    -0.0026    -0.9583
   60    1.180   1614.81     0.0064     0.0030     0.0151     0.0118     0.0127    43.0507    18.8800    -0.0061    -0.5267
   61    1.200   1615.79     0.0038     0.0031     0.0155     0.0120     0.0102    73.6153    19.2000    -0.0090    -0.3610
   62    1.220   1616.81     0.0026     0.0026     0.0160     0.0122     0.0093   123.4918    19.5200    -0.0103    -0.3639
   63    1.240   1617.78     0.0039     0.0027     0.0163     0.0124     0.0107    67.9224    19.8400    -0.0091    -0.4217
   64    1.260   1618.76     0.0039     0.0027     0.0171     0.0126     0.0110    72.5639    20.1600    -0.0092    -0.4746
   65    1.280   1619.76     0.0031     0.0028     0.0177     0.0128     0.0105   111.1663    20.4800    -0.0100    -0.4862
   66    1.300   1620.77     0.0046     0.0028     0.0174     0.0130     0.0120    56.7221    20.8000    -0.0088    -0.5342
   67    1.320   1621.75     0.0053     0.0027     0.0170     0.0132     0.0125    68.9190    21.1200    -0.0086    -0.4742
   68    1.340   1622.75     0.0044     0.0027     0.0169     0.0134     0.0114    55.7432    21.4400    -0.0100    -0.3443
   69    1.360   1623.74     0.0076     0.0028     0.0172     0.0136     0.0147    38.7268    21.7600    -0.0070    -0.4829
   70    1.380   1624.75     0.0018     0.0030     0.0182     0.0138     0.0094   168.5356    22.0800    -0.0127    -0.3220
   71    1.400   1625.73     0.0017     0.0027     0.0192     0.0140     0.0097   259.3988    22.4000    -0.0127    -0.3919
   72    1.420   1626.72     0.0034     0.0029     0.0194     0.0142     0.0115   117.8804    22.7200    -0.0112    -0.4680
   73    1.440   1627.72     0.0021     0.0027     0.0199     0.0144     0.0103   139.7138    23.0400    -0.0127    -0.4055
   74    1.460   1628.74     0.0012     0.0026     0.0204     0.0146     0.0097   521.6544    23.3600    -0.0136    -0.4190
   75    1.480   1629.75     0.0004     0.0025     0.0215     0.0148     0.0092   643.7413    23.6800    -0.0145    -0.4301
   76    1.500   1630.75     0.0028     0.0025     0.0223     0.0150     0.0121    98.0177    24.0000    -0.0119    -0.6026
   77    1.520   1631.75     0.0035     0.0027     0.0240     0.0152     0.0132    74.7504    24.3200    -0.0111    -0.7312
   78    1.540   1632.71     0.0054     0.0023     0.0251     0.0154     0.0159    40.8770    24.6400    -0.0087    -1.0981
   79    1.560   1633.73     0.0055     0.0028     0.0242     0.0156     0.0158    45.8252    24.9600    -0.0092    -1.0011
   80    1.580   1634.69     0.0090     0.0025     0.0233     0.0158     0.0189    26.7052    25.2800    -0.0063    -1.2684
   81    1.600   1635.69     0.0076     0.0025     0.0238     0.0160     0.0175    30.1140    25.6000    -0.0081    -0.9472
   82    1.620   1636.72     0.0086     0.0027     0.0251     0.0162     0.0190    27.9635    25.9200    -0.0069    -1.3138
   83    1.640   1637.69     0.0086     0.0024     0.0251     0.0164     0.0190    27.2354    26.2400    -0.0072    -1.1787
   84    1.660   1638.68     0.0092     0.0027     0.0262     0.0166     0.0201    26.2952    26.5600    -0.0065    -1.5137
   85    1.680   1639.70     0.0080     0.0026     0.0267     0.0168     0.0192    35.7679    26.8800    -0.0077    -1.3158
   86    1.700   1640.66     0.0105     0.0027     0.0273     0.0170     0.0218    25.9766    27.2000    -0.0054    -1.8759
   87    1.720   1641.66     0.0123     0.0026     0.0272     0.0172     0.0238    19.0973    27.5200    -0.0037    -3.4597
   88    1.740   1642.62     0.0111     0.0026     0.0269     0.0174     0.0226    26.2795    27.8400    -0.0053    -1.9869
   89    1.760   1643.59     0.0120     0.0030     0.0276     0.0176     0.0235    24.0773    28.1600    -0.0047    -2.0931
   90    1.780   1644.62     0.0127     0.0026     0.0262     0.0178     0.0241    20.7554    28.4800    -0.0044    -2.2761
   91    1.800   1645.62     0.0125     0.0023     0.0269     0.0180     0.0236    17.1649    28.8000    -0.0052    -1.7040
   92    1.820   1646.60     0.0141     0.0022     0.0282     0.0182     0.0257    14.9390    29.1200    -0.0034    -2.9486
   93    1.840   1647.48     0.0136     0.0021     0.0281     0.0184     0.0255    16.7018    29.4400    -0.0039    -2.5922
   94    1.860   1648.44     0.0074     0.0026     0.0284     0.0186     0.0193    21.1643    29.7600    -0.0104    -0.9368
   95    1.880   1661.00     0.0156     0.0022     0.0290     0.0188     0.0277    21.3535    30.0800    -0.0024    -0.8035
   96    1.900   1687.36     0.0276     0.0022     0.0296     0.0190     0.0400    22.0520    30.4000     0.0096     0.1544
   97    1.920   1703.04     0.0283     0.0021     0.0304     0.0192     0.0421     7.5595    30.7200     0.0113     1.2006
   98    1.940   1704.10     0.0358     0.0023     0.0282     0.0194     0.0478     6.4212    31.0400     0.0167     0.5506
   99    1.960   1705.08     0.0358     0.0026     0.0281     0.0196     0.0475     7.1940    31.3600     0.0162     0.5145
  100    1.980   1706.09     0.0386     0.0024     0.0285     0.0198     0.0506     6.1404    31.6800     0.0189     0.4702
  101    2.000   1707.09     0.0378     0.0021     0.0285     0.0200     0.0497     5.6697    32.0000     0.0177     0.4684
  102    2.020   1708.06     0.0385     0.0021     0.0299     0.0202     0.0508     5.5699    32.3200     0.0185     0.4904
  103    2.040   1709.10     0.0418     0.0021     0.0296     0.0204     0.0541     4.9683    32.6400     0.0215     0.4174
  104    2.060   1710.11     0.0456     0.0027     0.0319     0.0206     0.0585     5.8611    32.9600     0.0256     0.4015
  105    2.080   1711.06     0.0463     0.0022     0.0345     0.0208     0.0608     4.9167    33.2800     0.0275     0.5009
  106    2.100   1711.90     0.0518     0.0026     0.0337     0.0210     0.0661     4.9359    33.6000     0.0325     0.4005
  107    2.120   1712.72     0.0511     0.0028     0.0325     0.0212     0.0649     5.3101    33.9200     0.0310     0.3792
  108    2.140   1713.52     0.0506     0.0027     0.0325     0.0214     0.0641     5.2870    34.2400     0.0298     0.3568
  109    2.160   1714.48     0.0490     0.0029     0.0348     0.0216     0.0635     5.8856    34.5600     0.0289     0.4445
  110    2.180   1715.51     0.0539     0.0030     0.0372     0.0218     0.0695     5.8060    34.8800     0.0346     0.4419
  111    2.200   1716.45     0.0555     0.0031     0.0362     0.0220     0.0713     5.5909    35.2000     0.0361     0.4308
  112    2.220   1717.45     0.0529     0.0027     0.0361     0.0222     0.0684     5.0499    35.5200     0.0329     0.4455
  113    2.240   1718.42     0.0549     0.0027     0.0360     0.0224     0.0697     4.9777    35.8400     0.0338     0.3769
  114    2.260   1719.38     0.0528     0.0028     0.0384     0.0226     0.0687     5.2198    36.1600     0.0325     0.4724
  115    2.280   1720.38     0.0551     0.0029     0.0421     0.0228     0.0724     5.3350    36.4800     0.0359     0.5106
  116    2.300   1721.39     0.0597     0.0033     0.0432     0.0230     0.0775     5.5014    36.8000     0.0407     0.4735
  117    2.320   1722.35     0.0676     0.0035     0.0396     0.0232     0.0853     5.4474    37.1200     0.0482     0.3951
  118    2.340   1723.35     0.0721     0.0038     0.0325     0.0234     0.0873     5.3504    37.4400     0.0499     0.2554
  119    2.360   1724.35     0.0711     0.0036     0.0309     0.0236     0.0840     5.1029    37.7600     0.0463     0.1571
  120    2.380   1725.35     0.0691     0.0037     0.0340     0.0238     0.0823     5.4164    38.0800     0.0442     0.1715
  121    2.400   1726.34     0.0654     0.0038     0.0439     0.0240     0.0825     5.7250    38.4000     0.0441     0.3755
  122    2.420   1727.30     0.0664     0.0036     0.0473     0.0242     0.0860     5.3768    38.7200     0.0473     0.4783
  123    2.440   1728.28     0.0664     0.0035     0.0510     0.0244     0.0873     5.3951    39.0400     0.0483     0.5259
  124    2.460   1729.29     0.0674     0.0033     0.0524     0.0246     0.0893     4.9713    39.3600     0.0499     0.5513
  125    2.480   1730.31     0.0687     0.0028     0.0510     0.0248     0.0902     4.0326    39.6800     0.0505     0.5232
  126    2.500   1731.32     0.0649     0.0033     0.0523     0.0250     0.0869     4.9799    40.0000     0.0469     0.5823
  127    2.520   1732.30     0.0653     0.0037     0.0545     0.0252     0.0878     5.6663    40.3200     0.0474     0.5975
  128    2.540   1733.29     0.0790     0.0041     0.0557     0.0254     0.1022     5.2988    40.6400     0.0616     0.4858
  129    2.560   1734.26     0.0901     0.0037     0.0557     0.0256     0.1137     4.1950    40.9600     0.0727     0.4217
  130    2.580   1735.29     0.0935     0.0034     0.0476     0.0258     0.1145     3.5762    41.2800     0.0732     0.3292
  131    2.600   1736.26     0.0813     0.0035     0.0484     0.0260     0.1014     4.1793    41.6000     0.0598     0.3673
  132    2.620   1737.25     0.0771     0.0038     0.0516     0.0262     0.0982     4.8914    41.9200     0.0562     0.4258
  133    2.640   1738.25     0.0859     0.0034     0.0577     0.0264     0.1093     3.9418    42.2400     0.0671     0.4385
  134    2.660   1739.26     0.0926     0.0036     0.0553     0.0266     0.1169     4.0299    42.5600     0.0743     0.4193
  135    2.680   1740.24     0.0994     0.0033     0.0502     0.0268     0.1207     3.3234    42.8800     0.0778     0.3088
  136    2.700   1741.22     0.0925     0.0028     0.0495     0.0270     0.1131     3.0412    43.2000     0.0699     0.3157
  137    2.720   1742.17     0.0799     0.0028     0.0511     0.0272     0.1014     3.4108    43.5200     0.0579     0.4164
  138    2.740   1743.18     0.0758     0.0025     0.0556     0.0274     0.0987     3.3601    43.8400     0.0549     0.4961
  139    2.760   1744.18     0.0701     0.0028     0.0591     0.0276     0.0947     3.9018    44.1600     0.0505     0.6140
  140    2.780   1745.20     0.0695     0.0029     0.0634     0.0278     0.0960     4.1141    44.4800     0.0515     0.6859
  141    2.800   1746.19     0.0684     0.0029     0.0622     0.0280     0.0948     4.3344    44.8000     0.0500     0.6965
  142    2.820   1747.17     0.0716     0.0035     0.0623     0.0282     0.0975     4.8767    45.1200     0.0523     0.6382
  143    2.840   1748.18     0.0749     0.0035     0.0620     0.0284     0.1008     4.8061    45.4400     0.0554     0.6010
  144    2.860   1749.10     0.0776     0.0041     0.0650     0.0286     0.1043     5.3031    45.7600     0.0585     0.5947
  145    2.880   1750.09     0.0814     0.0041     0.0644     0.0288     0.1079     5.0550    46.0800     0.0619     0.5555
  146    2.900   1751.07     0.0896     0.0041     0.0647     0.0290     0.1168     4.8070    46.4000     0.0704     0.5100
  147    2.920   1752.11     0.2336     0.0039     0.0639     0.0292     0.2599     2.9477    46.7200     0.2132     0.1857
  148    2.940   1753.10     0.9510     0.0029     0.0366     0.0294     0.9728     0.3580    47.0400     0.9257     0.0275
  149    2.960   1754.12     1.8796     0.0030     0.0160     0.0296     1.8871     0.1973    47.3600     1.8397    -0.0063
  150    2.980   1773.29     2.3796     0.0038     0.0197     0.0298     2.3874     0.1669    47.6800     2.3397    -0.0050
  151    3.000   1801.53     2.5494     0.0041     0.0232     0.0300     2.5587     0.1819    48.0000     2.5107    -0.0033
  152    3.020   1822.59     2.7383     0.0041     0.0262     0.0302     2.7489     0.1514    48.3200     2.7006    -0.0018
  153    3.040   1823.20     2.9538     0.0045     0.0302     0.0304     2.9659     0.1548    48.6400     2.9172    -0.0006
  154    3.060   1823.85     3.0434     0.0042     0.0312     0.0306     3.0560     0.1372    48.9600     3.0071    -0.0001
  155    3.080   1824.48     3.0359     0.0037     0.0354     0.0308     3.0504     0.1234    49.2800     3.0011     0.0012
  156    3.100   1825.11     3.0945     0.0038     0.0397     0.0310     3.1104     0.1245    49.6000     3.0608     0.0022
  157    3.120   1825.74     3.1899     0.0043     0.0393     0.0312     3.2067     0.1374    49.9200     3.1568     0.0028
  158    3.140   1826.37     3.3298     0.0053     0.0437     0.0314     3.3473     0.1635    50.2400     3.2971     0.0032
  159    3.160   1827.00     3.4970     0.0056     0.0460     0.0316     3.5168     0.1628    50.5600     3.4662     0.0045
  160    3.180   1827.63     3.7885     0.0073     0.0412     0.0318     3.8067     0.1927    50.8800     3.7558     0.0031
  161    3.200   1828.30     4.1209     0.0090     0.0490     0.0320     4.1405     0.2225    51.2000     4.0893     0.0035
  162    3.220   1828.97     4.5767     0.0108     0.0386     0.0322     4.5960     0.2511    51.5200     4.5445     0.0031
  163    3.240   1829.61     5.3605     0.0143     0.0308     0.0324     5.3729     0.2798    51.8400     5.3211    -0.0005
  164    3.260   1830.31     6.7022     0.0168     0.0268     0.0326     6.7144     0.2700    52.1600     6.6622    -0.0005
  165    3.280   1845.88     8.2035     0.0177     0.0194     0.0328     8.2127     0.2543    52.4800     8.1602    -0.0011
  166    3.300   1864.84     9.7050     0.0169     0.0120     0.0330     9.7111     0.2415    52.8000     9.6583    -0.0017
  167    3.320   1883.79    11.2065     0.0228     0.0080     0.0332    11.2095     0.3266    53.1200    11.1564    -0.0023
  168    3.340   1889.71    12.0266     0.0240     0.0094     0.0334    12.0335     0.2905    53.4400    11.9801    -0.0014
  169    3.360   1890.73    12.5243     0.0228     0.0271     0.0336    12.5309     0.2137    53.7600    12.4772    -0.0014
  170    3.380   1891.82    12.8644     0.0224     0.0214     0.0338    12.8739     0.1745    54.0800    12.8198    -0.0009
  171    3.400   1892.88    13.1943     0.0221     0.0294     0.0340    13.2049     0.1692    54.4000    13.1505    -0.0007
  172    3.420   1893.97    11.7446     0.0224     0.0296     0.0342    11.7588     0.1740    54.7200    11.7041     0.0000
  173    3.440   1899.06    13.6109     0.0221     0.0265     0.0344    13.6222     0.1630    55.0400    13.5672    -0.0005
  174    3.460   1908.28    13.7825     0.0221     0.0251     0.0346    13.7932     0.1631    55.3600    13.7379    -0.0007
  175    3.480   1916.60    13.9383     0.0221     0.0269     0.0348    13.9489     0.1615    55.6800    13.8932    -0.0007
  176    3.500   1917.69    13.8433     0.0223     0.0167     0.0350    13.8517     0.1609    56.0000    13.7957    -0.0011
  177    3.520   1918.70    13.5779     0.0188     0.0198     0.0352    13.5859     0.1382    56.3200    13.5296    -0.0012
  178    3.540   1919.73    12.9433     0.0183     0.0213     0.0354    12.9524     0.1411    56.6400    12.8957    -0.0011
  179    3.560   1920.73    12.0366     0.0203     0.0284     0.0356    12.0459     0.1669    56.9600    11.9889    -0.0011
  180    3.580   1921.74    10.8796     0.0255     0.0036     0.0358    10.8856     0.2315    57.2800    10.8283    -0.0020
  181    3.600   1922.74     9.3774     0.0336     0.0277     0.0360     9.3864     0.3515    57.6000     9.3288    -0.0016
  182    3.620   1923.77     7.5676     0.0454     0.0357     0.0362     7.5824     0.5751    57.9200     7.5245    -0.0001
  183    3.640   1924.77     5.7027     0.0689     0.0410     0.0364     5.7181     1.1364    58.2400     5.6599     0.0001
  184    3.660   1925.75     3.9782     0.0681     0.0458     0.0366     3.9984     1.6275    58.5600     3.9398     0.0029
  185    3.680   1926.75     2.8069     0.0652     0.0503     0.0368     2.8267     2.2496    58.8800     2.7678     0.0039
  186    3.700   1927.75     2.2051     0.0600     0.0531     0.0370     2.2271     2.6724    59.2000     2.1679     0.0071
  187    3.720   1928.71     1.8608     0.0564     0.0522     0.0372     1.8827     2.9654    59.5200     1.8231     0.0082
  188    3.740   1929.69     1.4383     0.0490     0.0572     0.0374     1.4608     3.2308    59.8400     1.4010     0.0119
  189    3.760   1930.69     1.0870     0.0416     0.1239     0.0376     1.1209     3.4963    60.1600     1.0608     0.0413
  190    3.780   1931.73     1.0159     0.0326     0.3551     0.0378     1.1456     3.2319    60.4800     1.0851     0.2491
  191    3.800   1932.71     1.0130     0.0224     0.4110     0.0380     1.1798     2.1980    60.8000     1.1190     0.3209
  192    3.820   1933.69     0.9795     0.0199     0.3823     0.0382     1.1461     2.0178    61.1200     1.0850     0.3302
  193    3.840   1946.95     0.9360     0.0204     0.3831     0.0384     1.0968     2.1043    61.4400     1.0354     0.3336
  194    3.860   1964.60     0.8928     0.0205     0.3839     0.0386     1.0539     2.1144    61.7600     0.9921     0.3488
  195    3.880   1980.59     0.8546     0.0200     0.3989     0.0388     1.0174     2.3386    62.0800     0.9553     0.3651
  196    3.900   1981.58     0.8574     0.0194     0.4170     0.0390     1.0332     2.2694    62.4000     0.9708     0.3911
  197    3.920   1982.63     0.8332     0.0178     0.4073     0.0392     1.0084     2.1327    62.7200     0.9456     0.3995
  198    3.940   1983.66     0.8081     0.0165     0.3864     0.0394     0.9739     2.0317    63.0400     0.9109     0.3901
  199    3.960   1984.64     0.7833     0.0164     0.3737     0.0396     0.9407     2.0896    63.3600     0.8774     0.3820
  200    3.980   1985.59     0.7620     0.0159     0.3606     0.0398     0.9160     2.0821    63.6800     0.8523     0.3834
  201    4.000   1986.63     0.7504     0.0167     0.3859     0.0400     0.9076     2.2189    64.0000     0.8436     0.3961
  202    4.020   1987.65     0.7545     0.0175     0.4002     0.0402     0.9203     2.3220    64.3200     0.8560     0.4141
  203    4.040   1988.66     0.7598     0.0189     0.4098     0.0404     0.9320     2.4830    64.6400     0.8673     0.4261
  204    4.060   1989.61     0.7716     0.0206     0.3732     0.0406     0.9422     2.7082    64.9600     0.8772     0.4172
  205    4.080   1990.62     0.9446     0.0218     0.2371     0.0408     1.0400     2.3445    65.2800     0.9747     0.1912
  206    4.100   1991.63     0.9866     0.0237     0.2170     0.0410     1.0800     2.3977    65.6000     1.0144     0.1789
  207    4.120   1992.66     0.9587     0.0267     0.2284     0.0412     1.0565     2.7491    65.9200     0.9906     0.1935
  208    4.140   1993.63     0.9234     0.0270     0.2262     0.0414     1.0168     2.9647    66.2400     0.9505     0.1901
  209    4.160   1994.65     1.0197     0.0268     0.1789     0.0416     1.1003     2.6533    66.5600     1.0338     0.1456
  210    4.180   1995.62     0.9944     0.0252     0.1735     0.0418     1.0702     2.5066    66.8800     1.0034     0.1382
  211    4.200   1996.59     0.9203     0.0242     0.1792     0.0420     0.9954     2.6132    67.2000     0.9282     0.1475
  212    4.220   1997.58     0.8934     0.0251     0.1465     0.0422     0.9582     2.7972    67.5200     0.8907     0.1256
  213    4.240   1998.60     0.7932     0.0238     0.1489     0.0424     0.8563     2.9596    67.8400     0.7885     0.1368
  214    4.260   1999.61     0.6635     0.0196     0.2123     0.0426     0.7417     2.9163    68.1600     0.6736     0.2138
  215    4.280   2000.63     0.6104     0.0177     0.2235     0.0428     0.7007     2.8789    68.4800     0.6322     0.2724
  216    4.300   2001.60     0.5809     0.0152     0.2422     0.0430     0.6812     2.6022    68.8000     0.6124     0.3199
  217    4.320   2002.59     0.5469     0.0141     0.2714     0.0432     0.6566     2.5467    69.1200     0.5874     0.3713
  218    4.340   2003.57     0.5140     0.0136     0.2600     0.0434     0.6279     2.6264    69.4400     0.5584     0.4078
  219    4.360   2004.58     0.5018     0.0125     0.2551     0.0436     0.6084     2.4957    69.7600     0.5386     0.3903
  220    4.380   2005.58     0.4900     0.0119     0.2672     0.0438     0.6012     2.4156    70.0800     0.5311     0.4160
  221    4.400   2006.58     0.4761     0.0119     0.2651     0.0440     0.5875     2.4908    70.4000     0.5171     0.4277
  222    4.420   2007.55     0.4777     0.0117     0.2696     0.0442     0.5900     2.4551    70.7200     0.5193     0.4298
  223    4.440   2008.57     0.4813     0.0117     0.2877     0.0444     0.5995     2.4281    71.0400     0.5284     0.4484
  224    4.460   2009.61     0.4900     0.0117     0.3039     0.0446     0.6168     2.4011    71.3600     0.5454     0.4717
  225    4.480   2010.61     0.5258     0.0114     0.3184     0.0448     0.6552     2.1745    71.6800     0.5835     0.4510
  226    4.500   2011.61     0.5330     0.0113     0.3331     0.0450     0.6706     2.1279    72.0000     0.5986     0.4724
  227    4.520   2012.61     0.5534     0.0119     0.3390     0.0452     0.6952     2.1462    72.3200     0.6228     0.4695
  228    4.540   2013.64     0.5567     0.0123     0.3460     0.0454     0.7017     2.2035    72.6400     0.6290     0.4766
  229    4.560   2014.58     0.5644     0.0126     0.3429     0.0456     0.7100     2.2337    72.9600     0.6370     0.4726
  230    4.580   2015.58     0.5795     0.0114     0.3481     0.0458     0.7243     1.9769    73.2800     0.6511     0.4593
  231    4.600   2016.58     0.5687     0.0115     0.3045     0.0460     0.7064     2.0201    73.6000     0.6328     0.4452
  232    4.620   2017.58     0.5465     0.0112     0.2753     0.0462     0.6667     2.0405    73.9200     0.5928     0.4048
  233    4.640   2018.61     0.5300     0.0115     0.2499     0.0464     0.6386     2.1627    74.2400     0.5644     0.3759
  234    4.660   2019.59     0.5359     0.0113     0.2896     0.0466     0.6511     2.1141    74.5600     0.5765     0.3945
  235    4.680   2020.58     0.5513     0.0107     0.2969     0.0468     0.6795     1.9406    74.8800     0.6047     0.4277
  236    4.700   2021.60     0.5547     0.0107     0.3133     0.0470     0.6807     1.9375    75.2000     0.6055     0.4179
  237    4.720   2022.61     0.5739     0.0110     0.3242     0.0472     0.7084     1.9120    75.5200     0.6329     0.4314
  238    4.740   2023.55     0.5714     0.0117     0.3539     0.0474     0.7175     2.0438    75.8400     0.6416     0.4680
  239    4.760   2024.53     0.5708     0.0116     0.3555     0.0476     0.7204     2.0327    76.1600     0.6442     0.4791
  240    4.780   2025.57     0.6012     0.0117     0.3630     0.0478     0.7535     1.9542    76.4800     0.6770     0.4649
  241    4.800   2026.59     0.6266     0.0121     0.3419     0.0480     0.7743     1.9375    76.8000     0.6975     0.4354
  242    4.820   2027.59     0.6201     0.0135     0.3627     0.0482     0.7676     2.1814    77.1200     0.6905     0.4387
  243    4.840   2028.57     0.6227     0.0189     0.3788     0.0484     0.7767     3.0450    77.4400     0.6993     0.4553
  244    4.860   2029.53     0.6349     0.0221     0.4027     0.0486     0.8016     3.5096    77.7600     0.7239     0.4813
  245    4.880   2030.53     0.6573     0.0187     0.4167     0.0488     0.8311     2.8404    78.0800     0.7530     0.4846
  246    4.900   2031.54     0.6750     0.0183     0.4173     0.0490     0.8498     2.7130    78.4000     0.7714     0.4761
  247    4.920   2032.57     0.7307     0.0232     0.3944     0.0492     0.9012     3.1883    78.7200     0.8225     0.4338
  248    4.940   2033.57     0.8908     0.0237     0.3893     0.0494     1.0569     2.7325    79.0400     0.9778     0.3552
  249    4.960   2034.60     1.2057     0.0248     0.3062     0.0496     1.3479     2.1363    79.3600     1.2686     0.2290
  250    4.980   2035.59     1.1318     0.0245     0.0062     0.0498     1.2034     2.1035    79.6800     1.1237     0.0993
  251    5.000   2036.60     0.9414     0.0223    -0.0441     0.0500     0.9104     2.3397    80.0000     0.8304    -0.1487
  252    5.020   2037.60     0.8496     0.0218     0.0921     0.0502     0.8701     2.5439    80.3200     0.7898    -0.0016
  253    5.040   2038.60     0.8048     0.0172     0.1640     0.0504     0.8626     2.1360    80.6400     0.7820     0.1116
  254    5.060   2039.59     0.7623     0.0140     0.2444     0.0506     0.8540     1.8229    80.9600     0.7730     0.2169
  255    5.080   2040.56     0.7330     0.0117     0.2981     0.0508     0.8539     1.5950    81.2800     0.7727     0.3070
  256    5.100   2041.57     0.7339     0.0113     0.3321     0.0510     0.8695     1.5354    81.6000     0.7879     0.3448
  257    5.120   2042.56     0.7112     0.0118     0.3618     0.0512     0.8598     1.6428    81.9200     0.7779     0.3891
  258    5.140   2043.62     0.6791     0.0117     0.3537     0.0514     0.8308     1.7219    82.2400     0.7486     0.4139
  259    5.160   2044.60     0.6680     0.0108     0.3650     0.0516     0.8211     1.6259    82.5600     0.7385     0.4237
  260    5.180   2045.56     0.6438     0.0106     0.3858     0.0518     0.8018     1.6323    82.8800     0.7189     0.4514
  261    5.200   2046.61     0.6248     0.0107     0.4041     0.0520     0.7913     1.7143    83.2000     0.7081     0.4865
  262    5.220   2047.56     0.6273     0.0106     0.4072     0.0522     0.8002     1.6923    83.5200     0.7167     0.5016
  263    5.240   2048.57     0.6095     0.0109     0.4327     0.0524     0.7865     1.7773    83.8400     0.7027     0.5252
  264    5.260   2049.58     0.6095     0.0108     0.4570     0.0526     0.7988     1.7798    84.1600     0.7146     0.5569
  265    5.280   2050.60     0.6174     0.0106     0.4725     0.0528     0.8141     1.7296    84.4800     0.7297     0.5697
  266    5.300   2051.57     0.6235     0.0106     0.4733     0.0530     0.8222     1.6919    84.8000     0.7374     0.5698
  267    5.320   2052.56     0.6241     0.0111     0.4709     0.0532     0.8227     1.7754    85.1200     0.7376     0.5689
  268    5.340   2053.52     0.6273     0.0108     0.4535     0.0534     0.8204     1.7172    85.4400     0.7350     0.5531
  269    5.360   2054.58     0.6229     0.0105     0.4543     0.0536     0.8143     1.6954    85.7600     0.7285     0.5520
  270    5.380   2055.58     0.6246     0.0107     0.4514     0.0538     0.8159     1.7214    86.0800     0.7298     0.5502
  271    5.400   2056.60     0.6300     0.0105     0.4537     0.0540     0.8193     1.6727    86.4000     0.7329     0.5414
  272    5.420   2057.56     0.6290     0.0099     0.4628     0.0542     0.8218     1.5840    86.7200     0.7351     0.5508
  273    5.440   2058.59     0.6361     0.0100     0.4596     0.0544     0.8296     1.5796    87.0400     0.7426     0.5471
  274    5.460   2059.56     0.6428     0.0102     0.4547     0.0546     0.8353     1.5809    87.3600     0.7479     0.5397
  275    5.480   2060.58     0.6295     0.0107     0.4611     0.0548     0.8220     1.6938    87.6800     0.7343     0.5494
  276    5.500   2061.63     0.6292     0.0101     0.4610     0.0550     0.8209     1.5991    88.0000     0.7329     0.5475
  277    5.520   2062.61     0.6240     0.0104     0.4594     0.0552     0.8172     1.6640    88.3200     0.7288     0.5553
  278    5.540   2063.62     0.6275     0.0104     0.4595     0.0554     0.8207     1.6578    88.6400     0.7321     0.5529
  279    5.560   2064.61     0.6368     0.0109     0.4559     0.0556     0.8291     1.7150    88.9600     0.7402     0.5435
  280    5.580   2065.60     0.6431     0.0108     0.4648     0.0558     0.8365     1.6695    89.2800     0.7472     0.5415
  281    5.600   2066.63     0.6442     0.0109     0.4601     0.0560     0.8392     1.6869    89.6000     0.7496     0.5446
  282    5.620   2067.60     0.6422     0.0105     0.4658     0.0562     0.8370     1.6355    89.9200     0.7470     0.5454
  283    5.640   2068.59     0.6424     0.0110     0.4619     0.0564     0.8365     1.7082    90.2400     0.7462     0.5436
  284    5.660   2069.60     0.6523     0.0109     0.4731     0.0566     0.8486     1.6764    90.5600     0.7581     0.5419
  285    5.680   2070.57     0.6593     0.0105     0.4852     0.0568     0.8617     1.5887    90.8800     0.7708     0.5513
  286    5.700   2071.60     0.6608     0.0102     0.4907     0.0570     0.8673     1.5489    91.2000     0.7761     0.5599
  287    5.720   2072.62     0.6665     0.0102     0.4817     0.0572     0.8708     1.5311    91.5200     0.7793     0.5509
  288    5.740   2073.62     0.6721     0.0099     0.4831     0.0574     0.8752     1.4757    91.8400     0.7834     0.5439
  289    5.760   2074.62     0.6911     0.0103     0.4852     0.0576     0.8958     1.4981    92.1600     0.8037     0.5350
  290    5.780   2075.61     0.7049     0.0099     0.4684     0.0578     0.9040     1.4152    92.4800     0.8115     0.5129
  291    5.800   2076.59     0.7095     0.0099     0.4821     0.0580     0.9084     1.3980    92.8000     0.8156     0.5096
  292    5.820   2077.59     0.7191     0.0100     0.4739     0.0582     0.9212     1.3996    93.1200     0.8281     0.5107
  293    5.840   2078.58     0.7191     0.0106     0.4683     0.0584     0.9163     1.4632    93.4400     0.8228     0.4996
  294    5.860   2079.62     0.7139     0.0110     0.4701     0.0586     0.9131     1.5283    93.7600     0.8193     0.5072
  295    5.880   2081.12     0.7112     0.0110     0.4608     0.0588     0.9080     1.5737    94.0800     0.8139     0.5035
  296    5.900   2097.47     0.7296     0.0106     0.4381     0.0590     0.9169     1.5692    94.4000     0.8225     0.4709
  297    5.920   2113.83     0.7481     0.0108     0.4179     0.0592     0.9258     1.5754    94.7200     0.8311     0.4382
  298    5.940   2119.20     0.7489     0.0106     0.4325     0.0594     0.9285     1.4155    95.0400     0.8334     0.4417
  299    5.960   2120.22     0.7458     0.0105     0.4408     0.0596     0.9314     1.4111    95.3600     0.8360     0.4571
  300    5.980   2121.23     0.7501     0.0105     0.4378     0.0598     0.9344     1.3947    95.6800     0.8388     0.4519
  301    6.000   2122.19     0.7412     0.0104     0.4372     0.0600     0.9254     1.4057    96.0000     0.8294     0.4564
  302    6.020   2123.17     0.7209     0.0103     0.4452     0.0602     0.9044     1.4199    96.3200     0.8081     0.4662
  303    6.040   2124.14     0.7020     0.0103     0.4624     0.0604     0.8935     1.4721    96.6400     0.7969     0.4964
  304    6.060   2125.20     0.7060     0.0100     0.4561     0.0606     0.8984     1.4192    96.9600     0.8014     0.4961
  305    6.080   2126.21     0.7052     0.0100     0.4549     0.0608     0.8954     1.4167    97.2800     0.7981     0.4914
  306    6.100   2127.22     0.7101     0.0107     0.4646     0.0610     0.9047     1.5170    97.6000     0.8071     0.4985
  307    6.120   2128.18     0.7296     0.0107     0.4517     0.0612     0.9214     1.4770    97.9200     0.8235     0.4803
  308    6.140   2129.14     0.7342     0.0111     0.4619     0.0614     0.9276     1.5120    98.2400     0.8294     0.4813
  309    6.160   2130.14     0.7408     0.0105     0.4375     0.0616     0.9271     1.4218    98.5600     0.8286     0.4611
  310    6.180   2131.17     0.7356     0.0101     0.4356     0.0618     0.9183     1.3686    98.8800     0.8194     0.4555
  311    6.200   2132.18     0.7255     0.0105     0.4443     0.0620     0.9100     1.4466    99.2000     0.8108     0.4652
  312    6.220   2133.19     0.7232     0.0101     0.4519     0.0622     0.9120     1.4008    99.5200     0.8125     0.4769
  313    6.240   2134.21     0.7244     0.0103     0.4555     0.0624     0.9142     1.4240    99.8400     0.8144     0.4783
  314    6.260   2135.19     0.7333     0.0117     0.4541     0.0626     0.9268     1.5979   100.1600     0.8266     0.4815
  315    6.280   2136.17     0.7490     0.0114     0.4342     0.0628     0.9326     1.5353   100.4800     0.8321     0.4497
  316    6.300   2137.18     0.7727     0.0116     0.4174     0.0630     0.9500     1.4954   100.8000     0.8492     0.4228
  317    6.320   2138.12     0.7765     0.0115     0.3980     0.0632     0.9461     1.4845   101.1200     0.8450     0.4032
  318    6.340   2139.11     0.7808     0.0109     0.4078     0.0634     0.9493     1.3966   101.4400     0.8478     0.3983
  319    6.360   2140.15     0.7695     0.0110     0.3831     0.0636     0.9339     1.4299   101.7600     0.8322     0.3940
  320    6.380   2141.21     0.7745     0.0102     0.3810     0.0638     0.9344     1.3316   102.0800     0.8323     0.3807
  321    6.400   2142.20     0.8234     0.0105     0.4000     0.0640     0.9890     1.2766   102.4000     0.8866     0.3726
  322    6.420   2143.20     0.8451     0.0105     0.3962     0.0642     1.0116     1.2382   102.7200     0.9089     0.3656
  323    6.440   2144.22     0.8254     0.0101     0.3962     0.0644     0.9902     1.2170   103.0400     0.8872     0.3697
  324    6.460   2145.16     0.8001     0.0104     0.3990     0.0646     0.9661     1.2851   103.3600     0.8627     0.3833
  325    6.480   2146.15     0.7673     0.0110     0.4293     0.0648     0.9442     1.4252   103.6800     0.8405     0.4241
  326    6.500   2147.18     0.7652     0.0106     0.4369     0.0650     0.9483     1.3916   104.0000     0.8443     0.4394
  327    6.520   2148.19     0.7746     0.0108     0.4394     0.0652     0.9590     1.3942   104.3200     0.8547     0.4376
  328    6.540   2149.18     0.7876     0.0108     0.4566     0.0654     0.9780     1.3758   104.6400     0.8733     0.4442
  329    6.560   2150.20     0.7997     0.0105     0.4600     0.0656     0.9895     1.3134   104.9600     0.8845     0.4368
  330    6.580   2151.25     0.7834     0.0109     0.4767     0.0658     0.9824     1.3922   105.2800     0.8771     0.4652
  331    6.600   2152.20     0.7858     0.0115     0.4833     0.0660     0.9871     1.4591   105.6000     0.8815     0.4687
  332    6.620   2153.21     0.8014     0.0115     0.4947     0.0662     1.0068     1.4331   105.9200     0.9009     0.4695
  333    6.640   2154.17     0.8067     0.0107     0.4965     0.0664     1.0157     1.3210   106.2400     0.9095     0.4743
  334    6.660   2155.14     0.7915     0.0099     0.4963     0.0666     0.9998     1.2554   106.5600     0.8932     0.4807
  335    6.680   2156.17     0.7897     0.0099     0.5055     0.0668     1.0003     1.2471   106.8800     0.8934     0.4863
  336    6.700   2157.23     0.7994     0.0109     0.5121     0.0670     1.0135     1.3631   107.2000     0.9063     0.4885
  337    6.720   2158.21     0.8131     0.0133     0.5178     0.0672     1.0299     1.6353   107.5200     0.9224     0.4868
  338    6.740   2159.20     0.8646     0.0141     0.5016     0.0674     1.0807     1.6433   107.8400     0.9728     0.4599
  339    6.760   2160.17     0.9552     0.0129     0.4939     0.0676     1.1640     1.3649   108.1600     1.0558     0.4070
  340    6.780   2161.19     1.0351     0.0126     0.4378     0.0678     1.2267     1.2189   108.4800     1.1182     0.3474
  341    6.800   2162.22     1.0276     0.0112     0.4085     0.0680     1.2021     1.0816   108.8000     1.0933     0.3177
  342    6.820   2163.26     0.9514     0.0106     0.4068     0.0682     1.1207     1.1124   109.1200     1.0115     0.3310
  343    6.840   2164.26     0.8700     0.0114     0.4486     0.0684     1.0518     1.3023   109.4400     0.9423     0.3869
  344    6.860   2165.27     0.8442     0.0118     0.5107     0.0686     1.0513     1.4012   109.7600     0.9415     0.4507
  345    6.880   2166.25     0.8572     0.0123     0.5245     0.0688     1.0776     1.4430   110.0800     0.9676     0.4712
  346    6.900   2167.25     0.8920     0.0118     0.5107     0.0690     1.1078     1.3323   110.4000     0.9974     0.4460
  347    6.920   2168.25     0.9413     0.0127     0.5068     0.0692     1.1556     1.3514   110.7200     1.0449     0.4223
  348    6.940   2169.29     0.9905     0.0124     0.4882     0.0694     1.1981     1.2622   111.0400     1.0870     0.3910
  349    6.960   2170.31     1.0651     0.0123     0.4647     0.0696     1.2643     1.1664   111.3600     1.1529     0.3510
  350    6.980   2171.27     1.1042     0.0129     0.4362     0.0698     1.2906     1.1768   111.6800     1.1789     0.3174
  351    7.000   2172.32     1.1341     0.0121     0.4228     0.0700     1.3154     1.0657   112.0000     1.2034     0.3005
  352    7.020   2173.33     1.0685     0.0117     0.4100     0.0702     1.2400     1.0875   112.3200     1.1276     0.2998
  353    7.040   2174.29     1.0002     0.0119     0.4560     0.0704     1.1853     1.1818   112.6400     1.0726     0.3454
  354    7.060   2175.30     0.9542     0.0128     0.4745     0.0706     1.1511     1.3373   112.9600     1.0381     0.3837
  355    7.080   2176.29     0.9216     0.0133     0.5161     0.0708     1.1315     1.4399   113.2800     1.0182     0.4213
  356    7.100   2177.26     0.9024     0.0134     0.5303     0.0710     1.1247     1.4831   113.6000     1.0111     0.4533
  357    7.120   2178.28     0.9057     0.0128     0.5279     0.0712     1.1273     1.4148   113.9200     1.0134     0.4503
  358    7.140   2179.36     0.9129     0.0132     0.5341     0.0714     1.1366     1.4411   114.2400     1.0224     0.4511
  359    7.160   2180.32     0.9179     0.0139     0.4913     0.0716     1.1301     1.5129   114.5600     1.0155     0.4270
  360    7.180   2181.30     0.9103     0.0141     0.4865     0.0718     1.1154     1.5425   114.8800     1.0005     0.4163
  361    7.200   2182.33     0.9204     0.0139     0.4877     0.0720     1.1244     1.5128   115.2000     1.0092     0.4100
  362    7.220   2183.32     0.9277     0.0133     0.4860     0.0722     1.1308     1.4326   115.5200     1.0153     0.4054
  363    7.240   2184.29     0.9309     0.0133     0.4722     0.0724     1.1334     1.4244   115.8400     1.0175     0.4026
  364    7.260   2185.27     0.9270     0.0131     0.4575     0.0726     1.1200     1.4169   116.1600     1.0039     0.3855
  365    7.280   2186.28     0.9051     0.0132     0.4581     0.0728     1.0979     1.4588   116.4800     0.9815     0.3937
  366    7.300   2187.31     0.8823     0.0140     0.4574     0.0730     1.0755     1.5833   116.8000     0.9587     0.4035
  367    7.320   2188.34     0.8940     0.0139     0.4640     0.0732     1.0851     1.5615   117.1200     0.9680     0.3946
  368    7.340   2189.34     0.9044     0.0142     0.4838     0.0734     1.1050     1.5799   117.4400     0.9876     0.4094
  369    7.360   2190.32     0.9410     0.0140     0.4983     0.0736     1.1488     1.5024   117.7600     1.0310     0.4084
  370    7.380   2191.32     0.9774     0.0134     0.5081     0.0738     1.1913     1.3677   118.0800     1.0732     0.4058
  371    7.400   2192.33     0.9884     0.0137     0.4934     0.0740     1.1945     1.3877   118.4000     1.0761     0.3874
  372    7.420   2193.27     0.9959     0.0137     0.5173     0.0742     1.2112     1.3790   118.7200     1.0925     0.4013
  373    7.440   2194.30     1.0686     0.0129     0.5040     0.0744     1.2822     1.2152   119.0400     1.1632     0.3735
  374    7.460   2195.31     1.0998     0.0126     0.4920     0.0746     1.3100     1.1428   119.3600     1.1907     0.3578
  375    7.480   2196.37     1.1199     0.0121     0.4371     0.0748     1.3089     1.0844   119.6800     1.1892     0.3154
  376    7.500   2197.40     1.0797     0.0120     0.4198     0.0750     1.2594     1.0992   120.0000     1.1394     0.3098
  377    7.520   2198.34     0.9899     0.0119     0.4611     0.0752     1.1727     1.1881   120.3200     1.0524     0.3424
  378    7.540   2199.34     0.9490     0.0122     0.5094     0.0754     1.1580     1.2816   120.6400     1.0374     0.4070
  379    7.560   2200.35     0.9451     0.0120     0.5235     0.0756     1.1643     1.2657   120.9600     1.0434     0.4278
  380    7.580   2201.31     0.9333     0.0118     0.5305     0.0758     1.1553     1.2626   121.2800     1.0340     0.4380
  381    7.600   2202.33     0.9101     0.0121     0.5338     0.0760     1.1343     1.3287   121.6000     1.0127     0.4522
  382    7.620   2203.31     0.9030     0.0118     0.5361     0.0762     1.1264     1.3041   121.9200     1.0045     0.4536
  383    7.640   2204.33     0.8875     0.0117     0.5637     0.0764     1.1197     1.3212   122.2400     0.9974     0.4777
  384    7.660   2205.36     0.8792     0.0115     0.5754     0.0766     1.1213     1.3058   122.5600     0.9988     0.5006
  385    7.680   2206.36     0.8839     0.0120     0.5618     0.0768     1.1218     1.3583   122.8800     0.9989     0.4902
  386    7.700   2207.37     0.8799     0.0123     0.5657     0.0770     1.1163     1.4058   123.2000     0.9931     0.4892
  387    7.720   2208.37     0.8877     0.0128     0.5582     0.0772     1.1233     1.4384   123.5200     0.9998     0.4838
  388    7.740   2209.36     0.8803     0.0131     0.5588     0.0774     1.1162     1.4855   123.8400     0.9924     0.4880
  389    7.760   2210.37     0.8824     0.0137     0.5571     0.0776     1.1169     1.5499   124.1600     0.9927     0.4843
  390    7.780   2211.31     0.8920     0.0137     0.5426     0.0778     1.1213     1.5497   124.4800     0.9968     0.4696
  391    7.800   2212.32     0.8897     0.0135     0.5427     0.0780     1.1163     1.5203   124.8000     0.9915     0.4653
  392    7.820   2213.37     0.8758     0.0140     0.5414     0.0782     1.1031     1.6003   125.1200     0.9780     0.4735
  393    7.840   2214.38     0.8860     0.0144     0.5391     0.0784     1.1144     1.6280   125.4400     0.9890     0.4706
  394    7.860   2215.34     0.8834     0.0136     0.5313     0.0786     1.1057     1.5417   125.7600     0.9799     0.4599
  395    7.880   2233.61     0.9042     0.0130     0.4811     0.0788     1.1139     1.4710   126.0800     0.9879     0.4261
  396    7.900   2262.06     0.9374     0.0119     0.4395     0.0790     1.1249     1.2984   126.4000     0.9985     0.3683
  397    7.920   2267.87     0.9179     0.0119     0.4683     0.0792     1.1068     1.2986   126.7200     0.9801     0.3781
  398    7.940   2268.84     0.9565     0.0165     0.5240     0.0794     1.1693     1.7314   127.0400     1.0422     0.4099
  399    7.960   2269.87     1.2171     0.0195     0.4979     0.0796     1.4386     1.6793   127.3600     1.3113     0.3424
  400    7.980   2270.89     1.4404     0.0198     0.4131     0.0798     1.6207     1.3952   127.6800     1.4930     0.2345
  401    8.000   2271.91     1.6465     0.0218     0.3686     0.0800     1.8076     1.3422   128.0000     1.6796     0.1809
  402    8.020   2272.89     2.0584     0.0199     0.2744     0.0802     2.1914     1.0111   128.3200     2.0631     0.1151
  403    8.040   2273.85     2.4346     0.0148     0.1324     0.0804     2.5135     0.6123   128.6400     2.3849     0.0451
  404    8.060   2274.88     2.2454     0.0143     0.0534     0.0806     2.2670     0.6302   128.9600     2.1381    -0.0138
  405    8.080   2275.86     1.8318     0.0157     0.1272     0.0808     1.8694     0.8413   129.2800     1.7401     0.0055
  406    8.100   2276.91     1.3409     0.0166     0.1742     0.0810     1.4185     1.1749   129.6000     1.2889     0.0808
  407    8.120   2277.90     1.0304     0.0173     0.2508     0.0812     1.1110     1.6327   129.9200     0.9811     0.1137
  408    8.140   2278.90     0.9226     0.0162     0.3676     0.0814     1.0663     1.7429   130.2400     0.9361     0.2784
  409    8.160   2279.90     0.9368     0.0141     0.4293     0.0816     1.1088     1.5075   130.5600     0.9783     0.3353
  410    8.180   2280.86     0.9604     0.0134     0.4613     0.0818     1.1508     1.4050   130.8800     1.0199     0.3642
  411    8.200   2281.88     0.9913     0.0132     0.4834     0.0820     1.1930     1.3348   131.2000     1.0618     0.3750
  412    8.220   2282.89     0.9924     0.0120     0.5003     0.0822     1.2013     1.2081   131.5200     1.0698     0.3880
  413    8.240   2283.87     1.0078     0.0102     0.4862     0.0824     1.2160     1.0088   131.8400     1.0841     0.3811
  414    8.260   2284.87     0.9802     0.0116     0.4912     0.0826     1.1817     1.1821   132.1600     1.0495     0.3784
  415    8.280   2285.84     1.0060     0.0134     0.5273     0.0828     1.2220     1.3360   132.4800     1.0895     0.3959
  416    8.300   2286.85     1.0976     0.0138     0.5347     0.0830     1.3281     1.2734   132.8000     1.1953     0.3898
  417    8.320   2287.89     1.2076     0.0152     0.4205     0.0832     1.4012     1.2626   133.1200     1.2681     0.2980
  418    8.340   2288.86     1.2129     0.0159     0.3248     0.0834     1.3608     1.3080   133.4400     1.2273     0.2189
  419    8.360   2289.89     1.1578     0.0151     0.3327     0.0836     1.2956     1.3061   133.7600     1.1619     0.2106
  420    8.380   2290.86     1.1365     0.0170     0.3356     0.0838     1.2748     1.4995   134.0800     1.1407     0.2152
  421    8.400   2291.86     1.1820     0.0194     0.3346     0.0840     1.3289     1.6952   134.4000     1.1945     0.2223
  422    8.420   2292.90     1.4051     0.0225     0.2930     0.0842     1.5331     1.6231   134.7200     1.3984     0.1580
  423    8.440   2293.93     1.7683     0.0215     0.2573     0.0844     1.8798     1.2488   135.0400     1.7448     0.1038
  424    8.460   2294.92     1.9098     0.0197     0.1971     0.0846     2.0001     1.0362   135.3600     1.8647     0.0700
  425    8.480   2295.95     2.0089     0.0192     0.1533     0.0848     2.0771     0.9536   135.6800     1.9414     0.0399
  426    8.500   2296.90     1.7839     0.0157     0.1594     0.0850     1.8552     0.8714   136.0000     1.7192     0.0494
  427    8.520   2297.96     1.5161     0.0120     0.1988     0.0852     1.5849     0.7769   136.3200     1.4485     0.0543
  428    8.540   2298.95     1.3016     0.0123     0.2525     0.0854     1.4042     0.9325   136.6400     1.2675     0.1254
  429    8.560   2299.97     1.1564     0.0214     0.3181     0.0856     1.2755     1.8336   136.9600     1.1385     0.1739
  430    8.580   2300.96     1.2004     0.0192     0.4378     0.0858     1.3737     1.6470   137.2800     1.2365     0.2648
  431    8.600   2301.95     1.7691     0.0183     0.4549     0.0860     1.9689     1.0614   137.6000     1.8313     0.2129
  432    8.620   2302.94     1.9338     0.0230     0.1592     0.0862     2.0755     1.1895   137.9200     1.9376     0.1295
  433    8.640   2303.94     1.8665     0.0268     0.0002     0.0864     1.8739     1.4339   138.2400     1.7356    -0.0399
  434    8.660   2304.94     1.5559     0.0326     0.0940     0.0866     1.5795     2.0815   138.5600     1.4409    -0.0207
  435    8.680   2305.96     1.4155     0.0367     0.2054     0.0868     1.4725     2.5766   138.8800     1.3336     0.0366
  436    8.700   2306.97     1.6582     0.0338     0.3161     0.0870     1.7687     2.0667   139.2000     1.6295     0.1080
  437    8.720   2307.95     1.6223     0.0275     0.2277     0.0872     1.7306     1.5927   139.5200     1.5911     0.1070
  438    8.740   2308.98     1.4937     0.0323     0.2186     0.0874     1.5769     2.1001   139.8400     1.4370     0.0770
  439    8.760   2309.96     1.3990     0.0380     0.3570     0.0876     1.5201     2.7447   140.1600     1.3800     0.1454
  440    8.780   2311.01     2.0214     0.0412     0.4481     0.0878     2.2026     2.4679   140.4800     2.0622     0.1680
  441    8.800   2312.04     3.8019     0.0393     0.3371     0.0880     3.9760     1.2772   140.8000     3.8352     0.0868
  442    8.820   2313.08     6.5404     0.0455     0.0834     0.0882     6.6189     0.7955   141.1200     6.4778     0.0158
  443    8.840   2314.08     9.2533     0.0526    -0.1255     0.0884     9.2375     0.6128   141.4400     9.0960    -0.0137
  444    8.860   2315.15    11.2522     0.0620    -0.2037     0.0886    11.1754     0.5683   141.7600    11.0337    -0.0246
  445    8.880   2316.24    12.6560     0.0751    -0.2258     0.0888    12.5636     0.6069   142.0800    12.4215    -0.0249
  446    8.900   2317.31    13.9209     0.0881    -0.2089     0.0890    13.8299     0.6480   142.4000    13.6875    -0.0223
  447    8.920   2318.37    14.6305     0.0973    -0.1949     0.0892    14.5471     0.6819   142.7200    14.4044    -0.0200
  448    8.940   2319.42    15.1751     0.1111    -0.1925     0.0894    15.0930     0.7368   143.0400    14.9499    -0.0191
  449    8.960   2320.48    15.3560     0.1223    -0.1947     0.0896    15.2746     0.7990   143.3600    15.1313    -0.0187
  450    8.980   2321.59    15.3329     0.1291    -0.1759     0.0898    15.2550     0.8417   143.6800    15.1113    -0.0182
  451    9.000   2322.62    15.2380     0.1278    -0.1708     0.0900    15.1654     0.8365   144.0000    15.0214    -0.0175
  452    9.020   2323.65    14.9917     0.1272    -0.1439     0.0902    14.9270     0.8436   144.3200    14.7827    -0.0165
  453    9.040   2324.74    14.5448     0.1259    -0.1092     0.0904    14.4923     0.8558   144.6400    14.3477    -0.0150
  454    9.060   2325.78    14.0147     0.1262    -0.0588     0.0906    13.9834     0.8881   144.9600    13.8384    -0.0119
  455    9.080   2326.82    13.5447     0.1203    -0.0206     0.0908    13.5333     0.8764   145.2800    13.3881    -0.0088
  456    9.100   2327.87    13.2661     0.1075    -0.0114     0.0910    13.2588     0.8055   145.6000    13.1132    -0.0083
  457    9.120   2328.91    13.0935     0.0951     0.0054     0.0912    13.0926     0.7224   145.9200    12.9467    -0.0072
  458    9.140   2329.94    12.8676     0.0831     0.0085     0.0914    12.8722     0.6405   146.2400    12.7259    -0.0063
  459    9.160   2331.03    12.4852     0.0767     0.0061     0.0916    12.4871     0.6056   146.5600    12.3405    -0.0071
  460    9.180   2332.05    11.8293     0.0734    -0.0547     0.0918    11.8140     0.6176   146.8800    11.6671    -0.0110
  461    9.200   2333.08    10.6806     0.0782    -0.1142     0.0920    10.6446     0.7227   147.2000    10.4974    -0.0170
  462    9.220   2334.07     9.1056     0.0998    -0.1065     0.0922     9.0585     1.0920   147.5200     8.9110    -0.0230
  463    9.240   2335.13     7.3233     0.1235    -0.1088     0.0924     7.2781     1.6611   147.8400     7.1303    -0.0282
  464    9.260   2336.13     5.4892     0.1215    -0.0889     0.0926     5.4467     2.1884   148.1600     5.2985    -0.0367
  465    9.280   2337.12     4.2845     0.1027    -0.0381     0.0928     4.2599     2.1960   148.4800     4.1115    -0.0367
  466    9.300   2338.13     3.3855     0.0864     0.0774     0.0930     3.4016     2.4632   148.8000     3.2528    -0.0164
  467    9.320   2339.15     2.8717     0.0793     0.1331     0.0932     2.9279     2.7447   149.1200     2.7787     0.0146
  468    9.340   2340.17     2.2547     0.0673     0.1130     0.0934     2.2954     2.9223   149.4400     2.1459     0.0018
  469    9.360   2341.18     1.8064     0.0490     0.3595     0.0936     1.9221     2.6844   149.7600     1.7723     0.1033
  470    9.380   2342.19     1.6289     0.0310     0.4588     0.0938     1.8180     1.9045   150.0800     1.6680     0.2137
  471    9.400   2343.22     1.6154     0.0237     0.4912     0.0940     1.8159     1.4646   150.4000     1.6655     0.2302
  472    9.420   2344.22     1.6101     0.0173     0.5032     0.0942     1.8174     1.0805   150.7200     1.6667     0.2397
  473    9.440   2345.23     1.6734     0.0184     0.4919     0.0944     1.8883     1.1266   151.0400     1.7372     0.2402
  474    9.460   2346.24     1.7994     0.0249     0.4165     0.0946     1.9834     1.3863   151.3600     1.8320     0.1877
  475    9.480   2347.24     1.9428     0.0251     0.3724     0.0948     2.1094     1.3388   151.6800     1.9577     0.1543
  476    9.500   2348.29     2.0642     0.0208     0.3011     0.0950     2.1980     1.0151   152.0000     2.0460     0.1094
  477    9.520   2349.32     2.1755     0.0214     0.2605     0.0952     2.2908     0.9897   152.3200     2.1385     0.0840
  478    9.540   2350.32     2.3643     0.0206     0.2281     0.0954     2.4688     0.8778   152.6400     2.3162     0.0662
  479    9.560   2351.34     2.2672     0.0199     0.1813     0.0956     2.3468     0.8707   152.9600     2.1939     0.0427
  480    9.580   2352.34     2.0882     0.0206     0.2210     0.0958     2.1712     0.9810   153.2800     2.0179     0.0506
  481    9.600   2353.36     1.8780     0.0213     0.2737     0.0960     1.9874     1.1276   153.6000     1.8338     0.0899
  482    9.620   2354.36     1.8164     0.0209     0.3213     0.0962     1.9441     1.1507   153.9200     1.7901     0.1160
  483    9.640   2355.38     1.8763     0.0191     0.3069     0.0964     2.0043     1.0163   154.2400     1.8501     0.1126
  484    9.660   2356.34     1.6878     0.0175     0.3498     0.0966     1.8254     0.9747   154.5600     1.6709     0.1386
  485    9.680   2357.36     1.5808     0.0168     0.4457     0.0968     1.7541     1.0459   154.8800     1.5992     0.1976
  486    9.700   2358.40     1.6043     0.0138     0.4674     0.0970     1.8056     0.8610   155.2000     1.6504     0.2316
  487    9.720   2359.43     1.6078     0.0146     0.4327     0.0972     1.7938     0.9051   155.5200     1.6382     0.2109
  488    9.740   2360.39     1.5513     0.0150     0.4394     0.0974     1.7335     0.9480   155.8400     1.5776     0.2133
  489    9.760   2361.46     1.4880     0.0136     0.4599     0.0976     1.6672     0.9021   156.1600     1.5111     0.2178
  490    9.780   2363.46     1.4111     0.0152     0.4545     0.0978     1.6011     1.0497   156.4800     1.4446     0.2456
  491    9.800   2364.55     1.3931     0.0167     0.4941     0.0980     1.5955     1.1973   156.8000     1.4387     0.2668
  492    9.820   2365.56     1.3639     0.0162     0.4982     0.0982     1.5724     1.1802   157.1200     1.4153     0.2813
  493    9.840   2366.56     1.3182     0.0153     0.4981     0.0984     1.5292     1.1537   157.4400     1.3718     0.2946
  494    9.860   2367.60     1.2846     0.0166     0.4748     0.0986     1.4854     1.2810   157.7600     1.3277     0.2859
  495    9.880   2380.69     1.1714     0.0158     0.4932     0.0988     1.3759     1.2756   158.0800     1.2178     0.3213
  496    9.900   2396.28     1.0912     0.0159     0.5116     0.0990     1.3034     1.2873   158.4000     1.1450     0.3570
  497    9.920   2404.98     1.0588     0.0176     0.5453     0.0992     1.2850     1.6623   158.7200     1.1263     0.3900
  498    9.940   2406.05     1.0644     0.0178     0.5487     0.0994     1.2943     1.6683   159.0400     1.1352     0.3946
  499    9.960   2407.01     1.0506     0.0170     0.5634     0.0996     1.2812     1.6116   159.3600     1.1219     0.4007
  500    9.980   2407.99     0.9963     0.0165     0.5900     0.0998     1.2412     1.6540   159.6800     1.0815     0.4469
  501   10.000   2409.00     1.0084     0.0151     0.5966     0.1000     1.2591     1.5034   160.0000     1.0991     0.4522
  502   10.020   2409.99     1.0543     0.0147     0.6036     0.1002     1.3057     1.4023   160.3200     1.1453     0.4351
  503   10.040   2411.02     1.1131     0.0168     0.6124     0.1004     1.3723     1.5212   160.6400     1.2117     0.4266
  504   10.060   2412.03     1.1874     0.0182     0.6099     0.1006     1.4410     1.5393   160.9600     1.2801     0.3932
  505   10.080   2413.01     1.2429     0.0152     0.6341     0.1008     1.5076     1.2266   161.2800     1.3463     0.3933
  506   10.100   2414.00     1.5100     0.0158     0.5676     0.1010     1.7664     1.0617   161.6000     1.6048     0.3176
  507   10.120   2415.00     1.6746     0.0250     0.4997     0.1012     1.8989     1.5008   161.9200     1.7370     0.2492
  508   10.140   2416.05     1.7120     0.0414     0.5046     0.1014     1.9232     2.4374   162.2400     1.7609     0.2280
  509   10.160   2417.08     1.9951     0.0444     0.5683     0.1016     2.2213     2.2718   162.5600     2.0588     0.2124
  510   10.180   2418.08     2.7379     0.0466     0.4779     0.1018     2.9655     1.7327   162.8800     2.8027     0.1586
  511   10.200   2419.11     3.7180     0.0482     0.2380     0.1020     3.8395     1.3071   163.2000     3.6763     0.0511
  512   10.220   2420.06     3.7753     0.0386     0.1195     0.1022     3.8424     1.0170   163.5200     3.6788     0.0156
  513   10.240   2421.05     3.4086     0.0325     0.0204     0.1024     3.4296     0.8990   163.8400     3.2657    -0.0162
  514   10.260   2422.06     2.7236     0.0229    -0.0119     0.1026     2.7307     0.8337   164.1600     2.5666    -0.0336
  515   10.280   2423.07     2.0863     0.0185     0.0289     0.1028     2.0861     0.7961   164.4800     1.9216    -0.0535
  516   10.300   2424.12     1.5388     0.0180     0.0817     0.1030     1.5634     1.1422   164.8000     1.3986    -0.0314
  517   10.320   2425.11     1.1801     0.0172     0.2040     0.1032     1.2493     1.4346   165.1200     1.0842     0.0576
  518   10.340   2426.13     1.0427     0.0136     0.3325     0.1034     1.1655     1.2889   165.4400     1.0001     0.1893
  519   10.360   2427.13     0.9898     0.0130     0.3845     0.1036     1.1434     1.3056   165.7600     0.9776     0.2681
  520   10.380   2428.17     0.9835     0.0151     0.4295     0.1038     1.1576     1.5389   166.0800     0.9915     0.3133
  521   10.400   2429.15     0.9820     0.0147     0.4591     0.1040     1.1710     1.4985   166.4000     1.0046     0.3444
  522   10.420   2430.14     1.0142     0.0148     0.4868     0.1042     1.2155     1.4619   166.7200     1.0487     0.3575
  523   10.440   2431.13     1.0534     0.0144     0.4870     0.1044     1.2585     1.3712   167.0400     1.0915     0.3518
  524   10.460   2432.18     1.0622     0.0143     0.4733     0.1046     1.2617     1.3421   167.3600     1.0944     0.3385
  525   10.480   2433.22     0.9863     0.0145     0.5047     0.1048     1.1920     1.4533   167.6800     1.0244     0.3761
  526   10.500   2434.20     0.9311     0.0141     0.5410     0.1050     1.1538     1.5123   168.0000     0.9858     0.4316
  527   10.520   2435.21     0.9214     0.0143     0.5615     0.1052     1.1538     1.5530   168.3200     0.9855     0.4547
  528   10.540   2436.14     0.9221     0.0149     0.5778     0.1054     1.1625     1.6217   168.6400     0.9938     0.4698
  529   10.560   2437.18     0.9508     0.0155     0.5897     0.1056     1.1971     1.6310   168.9600     1.0281     0.4675
  530   10.580   2438.19     0.9642     0.0155     0.6049     0.1058     1.2159     1.6096   169.2800     1.0467     0.4715
  531   10.600   2439.19     0.9615     0.0175     0.6062     0.1060     1.2170     1.8204   169.6000     1.0474     0.4797
  532   10.620   2440.24     0.9693     0.0174     0.6004     0.1062     1.2212     1.7881   169.9200     1.0513     0.4695
  533   10.640   2441.24     0.9834     0.0168     0.6198     0.1064     1.2396     1.7162   170.2400     1.0693     0.4708
  534   10.660   2442.25     1.0030     0.0172     0.6425     0.1066     1.2711     1.7141   170.5600     1.1006     0.4832
  535   10.680   2443.25     1.0386     0.0185     0.6161     0.1068     1.3001     1.7864   170.8800     1.1293     0.4569
  536   10.700   2444.24     1.0573     0.0192     0.6143     0.1070     1.3150     1.8237   171.2000     1.1438     0.4428
  537   10.720   2445.24     1.1091     0.0183     0.6134     0.1072     1.3671     1.6495   171.5200     1.1956     0.4242
  538   10.740   2446.22     1.1743     0.0193     0.6043     0.1074     1.4301     1.6711   171.8400     1.2583     0.3990
  539   10.760   2447.22     1.2519     0.0290     0.5634     0.1076     1.4952     2.3526   172.1600     1.3231     0.3565
  540   10.780   2448.29     1.3403     0.0390     0.5591     0.1078     1.5704     2.9398   172.4800     1.3979     0.3151
  541   10.800   2449.28     1.6598     0.0406     0.5826     0.1080     1.9059     2.5183   172.8000     1.7331     0.2767
  542   10.820   2450.29     2.1676     0.0325     0.4330     0.1082     2.3808     1.5493   173.1200     2.2077     0.1822
  543   10.840   2451.31     2.4680     0.0281     0.2457     0.1084     2.5872     1.1435   173.4400     2.4137     0.0728
  544   10.860   2452.31     2.4029     0.0259     0.1986     0.1086     2.4908     1.0718   173.7600     2.3171     0.0434
  545   10.880   2453.32     2.0087     0.0271     0.2186     0.1088     2.0951     1.3342   174.0800     1.9210     0.0508
  546   10.900   2454.31     1.7039     0.0238     0.3019     0.1090     1.8148     1.3013   174.4000     1.6404     0.0950
  547   10.920   2455.30     1.6523     0.0161     0.3726     0.1092     1.8089     0.9904   174.7200     1.6341     0.1610
  548   10.940   2456.33     1.8091     0.0117     0.3315     0.1094     1.9488     0.6519   175.0400     1.7738     0.1259
  549   10.960   2457.39     1.6498     0.0139     0.3536     0.1096     1.7922     0.8370   175.3600     1.6168     0.1420
  550   10.980   2458.38     1.4883     0.0212     0.4492     0.1098     1.6630     1.3806   175.6800     1.4873     0.2060
  551   11.000   2459.40     1.5256     0.0250     0.5502     0.1100     1.7406     1.7432   176.0000     1.5646     0.2568
  552   11.020   2460.45     2.4918     0.0324     0.4823     0.1102     2.7265     1.6783   176.3200     2.5502     0.1765
  553   11.040   2461.49     4.1361     0.0418     0.1946     0.1104     4.2629     1.2333   176.6400     4.0863     0.0471
  554   11.060   2462.46     5.6841     0.0532     0.0633     0.1106     5.7194     1.0320   176.9600     5.5424    -0.0048
  555   11.080   2463.50     6.8196     0.0567    -0.0163     0.1108     6.8184     0.8793   177.2800     6.6411    -0.0171
  556   11.100   2464.53     7.7862     0.0561    -0.0606     0.1110     7.7658     0.7535   177.6000     7.5882    -0.0210
  557   11.120   2465.61     8.7255     0.0532    -0.1666     0.1112     8.6715     0.6346   177.9200     8.4936    -0.0282
  558   11.140   2466.66     9.6135     0.0469    -0.2045     0.1114     9.5313     0.5042   178.2400     9.3530    -0.0328
  559   11.160   2467.71    10.2331     0.0412    -0.2476     0.1116    10.1325     0.4110   178.5600     9.9539    -0.0353
  560   11.180   2468.73    10.6281     0.0432    -0.2623     0.1118    10.5198     0.4116   178.8800    10.3409    -0.0358
  561   11.200   2469.75    10.9344     0.0509    -0.2775     0.1120    10.8199     0.4670   179.2000    10.6407    -0.0361
  562   11.220   2470.78    10.9418     0.0602    -0.2847     0.1122    10.8231     0.5487   179.5200    10.6436    -0.0371
  563   11.240   2471.89    10.6605     0.0681    -0.2850     0.1124    10.5402     0.6308   179.8400    10.3604    -0.0385
  564   11.260   2472.96    10.1827     0.0760    -0.2835     0.1126    10.0632     0.7312   180.1600     9.8830    -0.0402
  565   11.280   2473.99     9.7343     0.0798    -0.2797     0.1128     9.6160     0.8025   180.4800     9.4356    -0.0418
  566   11.300   2474.99     9.2529     0.0784    -0.2739     0.1130     9.1365     0.8453   180.8000     8.9557    -0.0436
  567   11.320   2476.07     8.8581     0.0869    -0.2633     0.1132     8.7459     0.9763   181.1200     8.5648    -0.0444
  568   11.340   2477.06     8.4240     0.0965    -0.2509     0.1134     8.3163     1.1201   181.4400     8.1349    -0.0454
  569   11.360   2478.11     7.8247     0.1143    -0.2378     0.1136     7.7228     1.4187   181.7600     7.5411    -0.0472
  570   11.380   2479.10     7.1655     0.1218    -0.2142     0.1138     7.0709     1.6357   182.0800     6.8888    -0.0492
  571   11.400   2480.13     6.4514     0.1058    -0.1933     0.1140     6.3669     1.5618   182.4000     6.1845    -0.0510
  572   11.420   2481.16     5.6998     0.0894    -0.1864     0.1142     5.6234     1.4864   182.7200     5.4406    -0.0545
  573   11.440   2482.25     5.0642     0.0896    -0.1721     0.1144     4.9877     1.7220   183.0400     4.8046    -0.0618
  574   11.460   2483.29     4.5442     0.0829    -0.1458     0.1146     4.4817     1.7387   183.3600     4.2984    -0.0613
  575   11.480   2484.31     4.0633     0.0613    -0.1148     0.1148     4.0058     1.4694   183.6800     3.8221    -0.0658
  576   11.500   2485.29     3.9529     0.0522    -0.0035     0.1150     3.9337     1.3245   184.0000     3.7497    -0.0429
  577   11.520   2486.30     4.3767     0.0594     0.0434     0.1152     4.3915     1.4422   184.3200     4.2072    -0.0191
  578   11.540   2487.35     6.2146     0.0619     0.0280     0.1154     6.2302     1.0932   184.6400     6.0456    -0.0129
  579   11.560   2488.41     8.3247     0.0528    -0.0768     0.1156     8.3150     0.6682   184.9600     8.1300    -0.0170
  580   11.580   2489.51     9.5567     0.0384    -0.1537     0.1158     9.4906     0.4127   185.2800     9.3053    -0.0294
  581   11.600   2490.58    10.1545     0.0431    -0.1708     0.1160    10.0877     0.4314   185.6000     9.9021    -0.0278
  582   11.620   2491.65    10.5833     0.0546    -0.2028     0.1162    10.5012     0.5210   185.9200    10.3153    -0.0302
  583   11.640   2492.71    10.7960     0.0726    -0.2035     0.1164    10.7101     0.6760   186.2400    10.5239    -0.0305
  584   11.660   2493.77    10.8655     0.0842    -0.2134     0.1166    10.7767     0.7763   186.5600    10.5901    -0.0310
  585   11.680   2494.80    10.8898     0.0911    -0.2178     0.1168    10.7981     0.8397   186.8800    10.6112    -0.0316
  586   11.700   2495.86    11.0040     0.0898    -0.2096     0.1170    10.9148     0.8191   187.2000    10.7276    -0.0307
  587   11.720   2496.88    11.1462     0.0906    -0.1938     0.1172    11.0626     0.8160   187.5200    10.8751    -0.0291
  588   11.740   2497.92    11.2909     0.0968    -0.1710     0.1174    11.2153     0.8618   187.8400    11.0275    -0.0270
  589   11.760   2499.05    11.2908     0.0991    -0.1461     0.1176    11.2265     0.8743   188.1600    11.0383    -0.0245
  590   11.780   2500.10    11.4406     0.1013    -0.1207     0.1178    11.3865     0.8857   188.4800    11.1980    -0.0220
  591   11.800   2501.14    11.3874     0.1036    -0.0908     0.1180    11.3459     0.9098   188.8000    11.1571    -0.0194
  592   11.820   2502.15    11.2020     0.1056    -0.0686     0.1182    11.1706     0.9384   189.1200    10.9814    -0.0176
  593   11.840   2503.23    10.8687     0.1024    -0.0473     0.1184    10.8459     0.9407   189.4400    10.6565    -0.0162
  594   11.860   2515.82    10.4450     0.0987     0.0138     0.1186    10.4415     1.0202   189.7600    10.2518    -0.0122
  595   11.880   2536.46    10.1390     0.1028     0.0749     0.1188    10.1624     1.0628   190.0800     9.9723    -0.0062
  596   11.900   2543.66     9.9286     0.0930     0.0551     0.1190     9.9519     0.9296   190.4000     9.7615    -0.0065
  597   11.920   2544.71     9.7493     0.0809     0.0259     0.1192     9.7658     0.8248   190.7200     9.5751    -0.0083
  598   11.940   2545.78     9.6981     0.0710     0.0125     0.1194     9.7038     0.7309   191.0400     9.5127    -0.0111
  599   11.960   2546.81     9.7109     0.0676    -0.0500     0.1196     9.7033     0.6975   191.3600     9.5119    -0.0145
  600   11.980   2547.88     9.7520     0.0630    -0.1652     0.1198     9.6971     0.6461   191.6800     9.5055    -0.0263
  601   12.000   2548.91     9.7747     0.0517    -0.1874     0.1200     9.6977     0.5274   192.0000     9.5057    -0.0319
  602   12.020   2549.98     9.7003     0.0451    -0.1959     0.1202     9.6190     0.4631   192.3200     9.4267    -0.0333
  603   12.040   2551.04     9.6831     0.0445    -0.1975     0.1204     9.6010     0.4592   192.6400     9.4083    -0.0336
  604   12.060   2551.99     9.6762     0.0410    -0.2144     0.1206     9.5909     0.4228   192.9600     9.3979    -0.0344
  605   12.080   2553.05     9.4880     0.0389    -0.2288     0.1208     9.3923     0.4055   193.2800     9.1991    -0.0379
  606   12.100   2554.11     9.0622     0.0419    -0.2229     0.1210     8.9670     0.4533   193.6000     8.7734    -0.0396
  607   12.120   2555.16     8.6112     0.0518    -0.2234     0.1212     8.5179     0.5887   193.9200     8.3240    -0.0412
  608   12.140   2556.17     8.1074     0.0603    -0.2183     0.1214     8.0142     0.7258   194.2400     7.8199    -0.0439
  609   12.160   2557.20     7.6125     0.0598    -0.2031     0.1216     7.5255     0.7645   194.5600     7.3309    -0.0449
  610   12.180   2558.21     7.1617     0.0536    -0.1855     0.1218     7.0807     0.7306   194.8800     6.8859    -0.0457
  611   12.200   2559.27     6.8257     0.0461    -0.1584     0.1220     6.7548     0.6618   195.2000     6.5596    -0.0443
  612   12.220   2560.30     6.6198     0.0445    -0.1333     0.1222     6.5609     0.6669   195.5200     6.3653    -0.0413
  613   12.240   2561.31     6.3206     0.0511    -0.1216     0.1224     6.2678     0.8060   195.8400     6.0719    -0.0409
  614   12.260   2562.31     5.9029     0.0597    -0.1219     0.1226     5.8534     1.0044   196.1600     5.6573    -0.0425
  615   12.280   2563.38     5.2220     0.0770    -0.1204     0.1228     5.1690     1.4629   196.4800     4.9725    -0.0501
  616   12.300   2564.38     4.4325     0.0891    -0.0888     0.1230     4.3884     1.8704   196.8000     4.1916    -0.0544
  617   12.320   2565.39     3.7295     0.0842    -0.0482     0.1232     3.7032     2.1078   197.1200     3.5061    -0.0530
  618   12.340   2566.41     3.0585     0.0841     0.0312     0.1234     3.0552     2.5326   197.4400     2.8578    -0.0458
  619   12.360   2567.39     2.6251     0.0813     0.2002     0.1236     2.6825     2.8981   197.7600     2.4847     0.0056
  620   12.380   2568.41     2.2663     0.0809     0.3340     0.1238     2.3867     3.3495   198.0800     2.1886     0.0746
  621   12.400   2569.42     2.1829     0.0717     0.4713     0.1240     2.3702     3.3045   198.4000     2.1718     0.1482
  622   12.420   2570.45     2.5040     0.0719     0.4112     0.1242     2.6870     3.1054   198.7200     2.4883     0.1252
  623   12.440   2571.48     3.2379     0.0720     0.3792     0.1244     3.4020     2.4630   199.0400     3.2029     0.0832
  624   12.460   2572.54     4.3153     0.0873     0.1653     0.1246     4.4270     2.2209   199.3600     4.2276     0.0339
  625   12.480   2573.52     5.2429     0.1107    -0.0485     0.1248     5.2440     2.1894   199.6800     5.0443    -0.0242
  626   12.500   2574.60     5.9666     0.1153    -0.1350     0.1250     5.9233     1.9648   200.0000     5.7233    -0.0398
  627   12.520   2575.62     6.5398     0.0992    -0.1818     0.1252     6.4690     1.5460   200.3200     6.2687    -0.0469
  628   12.540   2576.72     7.8154     0.0903    -0.2040     0.1254     7.7353     1.2511   200.6400     7.5347    -0.0421
  629   12.560   2577.78    10.7284     0.0802    -0.2349     0.1256    10.6332     0.8590   200.9600    10.4323    -0.0339
  630   12.580   2578.86    14.0234     0.0771    -0.2832     0.1258    13.9112     0.5845   201.2800    13.7099    -0.0287
  631   12.600   2580.00    17.4685     0.0836    -0.3027     0.1260    17.3417     0.4999   201.6000    17.1401    -0.0250
  632   12.620   2581.07    19.8973     0.1052    -0.2896     0.1262    19.7735     0.5603   201.9200    19.5716    -0.0215
  633   12.640   2582.03    20.9346     0.1289    -0.2860     0.1264    20.8148     0.6417   202.2400    20.6126    -0.0200
  634   12.660   2582.97    21.1578     0.1526    -0.2912     0.1266    21.0362     0.7231   202.5600    20.8336    -0.0200
  635   12.680   2583.98    20.8058     0.1705    -0.2966     0.1268    20.6821     0.8190   202.8800    20.4792    -0.0206
  636   12.700   2584.88    20.3275     0.1840    -0.2974     0.1270    20.2025     0.8967   203.2000    19.9993    -0.0212
  637   12.720   2586.52    20.1830     0.1903    -0.2396     0.1272    20.0710     0.9433   203.5200    19.8675    -0.0199
  638   12.740   2589.16    20.2913     0.1824    -0.1606     0.1274    20.2124     0.9056   203.8400    20.0086    -0.0158
  639   12.760   2591.81    20.3996     0.1778    -0.0816     0.1276    20.3539     0.8827   204.1600    20.1498    -0.0118
  640   12.780   2593.55    20.5731     0.1796    -0.0490     0.1278    20.5479     0.8750   204.4800    20.3434    -0.0092
  641   12.800   2594.51    20.7309     0.1863    -0.0060     0.1280    20.7205     0.8999   204.8000    20.5157    -0.0074
  642   12.820   2595.48    20.8169     0.1958     0.0087     0.1282    20.8249     0.9412   205.1200    20.6198    -0.0053
  643   12.840   2596.52    20.9302     0.2033    -0.0200     0.1284    20.9235     0.9722   205.4400    20.7180    -0.0070
  644   12.860   2597.47    20.7210     0.2049    -0.0071     0.1286    20.7140     0.9845   205.7600    20.5082    -0.0071
  645   12.880   2598.45    20.6281     0.2060     0.0369     0.1288    20.6390     0.9977   206.0800    20.4329    -0.0050
  646   12.900   2599.37    20.6366     0.2028     0.0691     0.1290    20.6619     0.9835   206.4000    20.4555    -0.0034
  647   12.920   2600.35    20.8159     0.2012     0.0781     0.1292    20.8467     0.9578   206.7200    20.6400    -0.0027
  648   12.940   2601.36    21.6054     0.2054     0.0956     0.1294    21.6433     0.9454   207.0400    21.4363    -0.0018
  649   12.960   2603.27    23.2207     0.2455     0.0954     0.1296    23.2619     1.0967   207.3600    23.0546    -0.0014
  650   12.980   2606.99    25.6063     0.2119     0.0876     0.1298    25.6443     0.9467   207.6800    25.4366    -0.0015
  651   13.000   2612.04    24.8315     0.2120     0.0648     0.1300    24.8835     0.8686   208.0000    24.6755    -0.0002
  652   13.020   2613.32    28.9016     0.2305     0.0475     0.1302    28.9200     0.8167   208.3200    28.7117    -0.0030
  653   13.040   2616.03    30.3807     0.2211     0.0581     0.1304    30.4036     0.7696   208.6400    30.1950    -0.0025
  654   13.060   2618.74    31.8598     0.2206     0.1360     0.1306    31.8871     0.7678   208.9600    31.6782    -0.0021
  655   13.080   2622.22    30.4594     0.2184     0.0738     0.1308    30.5043     0.7614   209.2800    30.2950    -0.0007
  656   13.100   2623.23    33.5554     0.2189     0.0877     0.1310    33.5904     0.6646   209.6000    33.3808    -0.0014
  657   13.120   2626.25    32.7045     0.2244     0.1176     0.1312    32.7618     0.7161   209.9200    32.5519     0.0002
  658   13.140   2627.36    36.1937     0.2281     0.1040     0.1314    36.2349     0.6323   210.2400    36.0247    -0.0009
  659   13.160   2628.42    37.2562     0.2319     0.1074     0.1316    37.3030     0.6251   210.5600    37.0924    -0.0005
  660   13.180   2629.42    37.6510     0.2331     0.1075     0.1318    37.6944     0.6199   210.8800    37.4836    -0.0008
  661   13.200   2630.41    37.8562     0.2298     0.1082     0.1320    37.9033     0.6073   211.2000    37.6921    -0.0005
  662   13.220   2631.38    37.9846     0.2230     0.1146     0.1322    38.0338     0.5875   211.5200    37.8223    -0.0004
  663   13.240   2632.38    37.4914     0.2158     0.1036     0.1324    37.5336     0.5720   211.8400    37.3218    -0.0009
  664   13.260   2633.35    36.2073     0.2082     0.1040     0.1326    36.2509     0.5674   212.1600    36.0387    -0.0008
  665   13.280   2634.32    34.5962     0.1966     0.1091     0.1328    34.6419     0.5575   212.4800    34.4294    -0.0007
  666   13.300   2635.23    32.8437     0.1824     0.1051     0.1330    32.8885     0.5443   212.8000    32.6757    -0.0008
  667   13.320   2636.19    31.0642     0.1696     0.1057     0.1332    31.1084     0.5379   213.1200    30.8953    -0.0009
  668   13.340   2637.18    29.4302     0.1543     0.1129     0.1334    29.4755     0.5170   213.4400    29.2621    -0.0009
  669   13.360   2638.15    28.0533     0.1372     0.1113     0.1336    28.1008     0.4835   213.7600    27.8870    -0.0007
  670   13.380   2639.07    26.9337     0.1213     0.1064     0.1338    26.9781     0.4468   214.0800    26.7640    -0.0011
  671   13.400   2640.03    26.4873     0.1032     0.1138     0.1340    26.5329     0.3892   214.4000    26.3185    -0.0010
  672   13.420   2641.05    27.0053     0.0920     0.1018     0.1342    27.0477     0.3425   214.7200    26.8330    -0.0012
  673   13.440   2642.05    27.8076     0.0861     0.1067     0.1344    27.8506     0.3118   215.0400    27.6356    -0.0012
  674   13.460   2643.04    28.3267     0.0801     0.1005     0.1346    28.3726     0.2839   215.3600    28.1572    -0.0009
  675   13.480   2643.98    28.2649     0.0766     0.0951     0.1348    28.3058     0.2702   215.6800    28.0901    -0.0013
  676   13.500   2644.95    27.7517     0.0742     0.0955     0.1350    27.7903     0.2661   216.0000    27.5743    -0.0016
  677   13.520   2645.93    27.1360     0.0752     0.1054     0.1352    27.1802     0.2762   216.3200    26.9639    -0.0011
  678   13.540   2646.92    27.1958     0.0761     0.1058     0.1354    27.2395     0.2811   216.6400    27.0228    -0.0012
  679   13.560   2647.90    28.4059     0.0783     0.0952     0.1356    28.4481     0.2800   216.9600    28.2311    -0.0012
  680   13.580   2648.88    29.9375     0.0819     0.1001     0.1358    29.9803     0.2777   217.2800    29.7631    -0.0011
  681   13.600   2649.84    30.9480     0.0852     0.0876     0.1360    30.9868     0.2807   217.6000    30.7691    -0.0014
  682   13.620   2650.89    31.2978     0.0874     0.0446     0.1362    31.3234     0.2843   217.9200    31.1055    -0.0024
  683   13.640   2651.84    30.8325     0.0893     0.0382     0.1364    30.8473     0.2890   218.2400    30.6290    -0.0033
  684   13.660   2652.78    29.7781     0.0934     0.0592     0.1366    29.8007     0.3128   218.5600    29.5821    -0.0028
  685   13.680   2653.72    28.5341     0.0942     0.0716     0.1368    28.5579     0.3297   218.8800    28.3390    -0.0028
  686   13.700   2655.04    27.4346     0.0914     0.0779     0.1370    27.4660     0.3297   219.2000    27.2468    -0.0023
  687   13.720   2657.55    26.0968     0.0891     0.0872     0.1372    26.1321     0.3251   219.5200    25.9126    -0.0020
  688   13.740   2660.07    24.7591     0.0867     0.0946     0.1374    24.7982     0.3407   219.8400    24.5784    -0.0018
  689   13.760   2661.36    23.2920     0.0843     0.0986     0.1376    23.3324     0.3563   220.1600    23.1122    -0.0018
  690   13.780   2662.31    22.1758     0.0694     0.0892     0.1378    22.2149     0.3086   220.4800    21.9945    -0.0020
  691   13.800   2663.27    21.4397     0.0646     0.0925     0.1380    21.4781     0.2994   220.8000    21.2573    -0.0022
  692   13.820   2664.24    21.3019     0.0552     0.1039     0.1382    21.3443     0.2596   221.1200    21.1232    -0.0018
  693   13.840   2711.38    22.0768     0.0551     0.1146     0.1384    22.1233     0.2584   221.4400    21.9019    -0.0013
  694   13.860   2773.78    23.0569     0.0591     0.1252     0.1386    23.1080     0.2771   221.7600    22.8862    -0.0008
  695   13.880   2819.74    24.0448     0.0664     0.1242     0.1388    24.0998     0.2795   222.0800    23.8778    -0.0003
  696   13.900   2821.88    23.9722     0.0670     0.1342     0.1390    24.0264     0.2795   222.4000    23.8040    -0.0004
  697   13.920   2824.98    24.6308     0.0655     0.1292     0.1392    24.6816     0.2700   222.7200    24.4589    -0.0007
  698   13.940   2825.97    24.6500     0.0641     0.1289     0.1394    24.7035     0.2605   223.0400    24.4804    -0.0005
  699   13.960   2826.90    24.2333     0.0630     0.1258     0.1396    24.2870     0.2595   223.3600    24.0636    -0.0005
  700   13.980   2827.83    23.6410     0.0620     0.1279     0.1398    23.6948     0.2621   223.6800    23.4712    -0.0005
  701   14.000   2829.21    23.3302     0.0629     0.1261     0.1400    23.3830     0.2698   224.0000    23.1590    -0.0006
  702   14.020   2831.30    23.4123     0.0655     0.1275     0.1402    23.4656     0.2809   224.3200    23.2413    -0.0006
  703   14.040   2833.40    23.4943     0.0671     0.1288     0.1404    23.5482     0.2879   224.6400    23.3236    -0.0005
  704   14.060   2834.93    24.0308     0.0696     0.1304     0.1406    24.0861     0.2942   224.9600    23.8612    -0.0004
  705   14.080   2835.89    24.4814     0.0722     0.1363     0.1408    24.5379     0.2952   225.2800    24.3126    -0.0003
  706   14.100   2836.92    24.0854     0.0702     0.1383     0.1410    24.1430     0.2900   225.6000    23.9174    -0.0002
  707   14.120   2837.90    23.6436     0.0667     0.1382     0.1412    23.7009     0.2811   225.9200    23.4750    -0.0002
  708   14.140   2838.82    23.4837     0.0661     0.1352     0.1414    23.5411     0.2817   226.2400    23.3149    -0.0002
  709   14.160   2839.76    23.7926     0.0693     0.1402     0.1416    23.8511     0.2925   226.5600    23.6245    -0.0001
  710   14.180   2840.75    24.5047     0.0739     0.1402     0.1418    24.5624     0.3035   226.8800    24.3356    -0.0002
  711   14.200   2841.73    25.2381     0.0801     0.1373     0.1420    25.2970     0.3209   227.2000    25.0698    -0.0001
  712   14.220   2842.73    26.0705     0.0862     0.1394     0.1422    26.1288     0.3342   227.5200    25.9013    -0.0001
  713   14.240   2843.69    26.5398     0.0889     0.1344     0.1424    26.5976     0.3363   227.8400    26.3697    -0.0002
  714   14.260   2844.66    26.3966     0.0898     0.1395     0.1426    26.4551     0.3383   228.1600    26.2270    -0.0001
  715   14.280   2845.60    25.8560     0.0873     0.1362     0.1428    25.9125     0.3338   228.4800    25.6841    -0.0003
  716   14.300   2846.56    24.8960     0.0847     0.1425     0.1430    24.9556     0.3349   228.8000    24.7268     0.0000
  717   14.320   2847.52    24.1849     0.0827     0.1399     0.1432    24.2421     0.3378   229.1200    24.0130    -0.0003
  718   14.340   2848.47    23.5413     0.0811     0.1372     0.1434    23.5971     0.3410   229.4400    23.3676    -0.0005
  719   14.360   2849.38    23.0237     0.0780     0.1348     0.1436    23.0805     0.3373   229.7600    22.8507    -0.0004
  720   14.380   2850.33    22.6241     0.0742     0.1429     0.1438    22.6831     0.3266   230.0800    22.4530    -0.0002
  721   14.400   2851.30    22.2378     0.0694     0.1357     0.1440    22.2956     0.3098   230.4000    22.0652    -0.0003
  722   14.420   2852.28    21.7054     0.0666     0.1399     0.1442    21.7649     0.3047   230.7200    21.5341    -0.0001
  723   14.440   2853.26    21.4213     0.0620     0.1329     0.1444    21.4783     0.2874   231.0400    21.2473    -0.0004
  724   14.460   2854.22    21.0633     0.0573     0.1383     0.1446    21.1213     0.2698   231.3600    20.8899    -0.0003
  725   14.480   2855.15    20.4876     0.0529     0.1335     0.1448    20.5447     0.2560   231.6800    20.3130    -0.0004
  726   14.500   2856.07    20.0407     0.0512     0.1308     0.1450    20.0969     0.2532   232.0000    19.8649    -0.0006
  727   14.520   2856.99    19.7235     0.0481     0.1276     0.1452    19.7763     0.2429   232.3200    19.5439    -0.0010
  728   14.540   2857.94    19.5633     0.0472     0.1197     0.1454    19.6131     0.2406   232.6400    19.3805    -0.0014
  729   14.560   2858.92    19.4101     0.0469     0.1226     0.1456    19.4600     0.2408   232.9600    19.2270    -0.0014
  730   14.580   2859.92    19.3461     0.0468     0.1251     0.1458    19.3986     0.2417   233.2800    19.1653    -0.0011
  731   14.600   2860.87    19.1647     0.0434     0.1251     0.1460    19.2176     0.2261   233.6000    18.9840    -0.0011
  732   14.620   2861.82    18.9774     0.0436     0.1241     0.1462    19.0299     0.2290   233.9200    18.7960    -0.0011
  733   14.640   2862.73    18.7385     0.0445     0.1103     0.1464    18.7868     0.2364   234.2400    18.5526    -0.0017
  734   14.660   2863.70    18.5934     0.0443     0.1168     0.1466    18.6401     0.2374   234.5600    18.4056    -0.0019
  735   14.680   2864.63    18.2954     0.0420     0.1103     0.1468    18.3415     0.2284   234.8800    18.1067    -0.0020
  736   14.700   2865.56    17.9937     0.0402     0.1192     0.1470    18.0411     0.2223   235.2000    17.8059    -0.0019
  737   14.720   2866.49    17.9389     0.0339     0.0994     0.1472    17.9858     0.1893   235.5200    17.7502    -0.0020
  738   14.740   2867.48    18.0888     0.0249     0.0835     0.1474    18.1249     0.1380   235.8400    17.8891    -0.0034
  739   14.760   2868.50    18.4390     0.0189     0.0666     0.1476    18.4732     0.1032   236.1600    18.2371    -0.0036
  740   14.780   2869.44    18.2247     0.0141     0.0217     0.1478    18.2368     0.0767   236.4800    18.0003    -0.0066
  741   14.800   2870.39    17.4492     0.0166    -0.0124     0.1480    17.4487     0.0932   236.8000    17.2119    -0.0087
  742   14.820   2871.30    16.3487     0.0182    -0.0149     0.1482    16.3399     0.1099   237.1200    16.1027    -0.0105
  743   14.840   2872.23    14.7693     0.0259     0.0338     0.1484    14.7756     0.1742   237.4400    14.5382    -0.0092
  744   14.860   2873.20    12.6817     0.0367     0.0272     0.1486    12.6955     0.2879   237.7600    12.4578    -0.0093
  745   14.880   2874.17    10.5388     0.0494     0.0620     0.1488    10.5593     0.4297   238.0800    10.3212    -0.0097
  746   14.900   2875.19     8.0812     0.0632     0.0742     0.1490     8.1219     0.7803   238.4000     7.8835    -0.0067
  747   14.920   2876.22     6.1047     0.0691     0.1117     0.1492     6.1474     1.1243   238.7200     5.9087    -0.0079
  748   14.940   2877.29     4.5806     0.0724     0.1244     0.1494     4.6282     1.5680   239.0400     4.3891    -0.0081
  749   14.960   2878.29     3.4100     0.0705     0.1726     0.1496     3.4728     2.0665   239.3600     3.2334     0.0004
  750   14.980   2879.32     2.5572     0.0666     0.2039     0.1498     2.6375     2.5957   239.6800     2.3979     0.0173
  751   15.000   2880.27     2.0200     0.0604     0.2243     0.1500     2.1149     2.9686   240.0000     1.8749     0.0405
  752   15.020   2881.26     1.7196     0.0523     0.2789     0.1502     1.8248     3.0280   240.3200     1.5845     0.0638
  753   15.040   2882.31     1.4173     0.0457     0.3621     0.1504     1.5570     3.2195   240.6400     1.3163     0.1388
  754   15.060   2883.37     1.3359     0.0339     0.4462     0.1506     1.5139     2.5521   240.9600     1.2730     0.2146
  755   15.080   2884.36     1.3615     0.0139     0.4841     0.1508     1.5605     1.0340   241.2800     1.3192     0.2449
  756   15.100   2885.38     1.4326     0.0078     0.5201     0.1510     1.6445     0.5517   241.6000     1.4029     0.2518
  757   15.120   2886.37     1.3759     0.0084     0.5916     0.1512     1.6129     0.5823   241.9200     1.3710     0.3018
  758   15.140   2887.38     1.3612     0.0136     0.6532     0.1514     1.6326     1.0457   242.2400     1.3903     0.3558
  759   15.160   2888.44     2.3647     0.0233     0.5250     0.1516     2.6134     1.1580   242.5600     2.3709     0.1877
  760   15.180   2889.47     2.9533     0.0365     0.3895     0.1518     3.1221     1.2612   242.8800     2.8792     0.0869
  761   15.200   2890.49     3.3417     0.0523     0.3772     0.1520     3.4941     1.6087   243.2000     3.2509     0.0649
  762   15.220   2891.51     3.9683     0.0638     0.4176     0.1522     4.1386     1.6723   243.5200     3.8951     0.0651
  763   15.240   2892.55     5.3623     0.0527     0.3983     0.1524     5.5421     1.0775   243.8400     5.2983     0.0522
  764   15.260   2893.66     8.3621     0.0449     0.2244     0.1526     8.4920     0.5977   244.1600     8.2479     0.0194
  765   15.280   2894.74    10.8178     0.0369     0.1193     0.1528    10.8731     0.3757   244.4800    10.6286    -0.0019
  766   15.300   2895.82    13.7432     0.0375     0.0107     0.1530    13.7712     0.2766   244.8000    13.5264    -0.0062
  767   15.320   2896.86    16.6795     0.0440    -0.0702     0.1532    16.6508     0.2720   245.1200    16.4057    -0.0135
  768   15.340   2897.91    18.6623     0.0413    -0.1187     0.1534    18.6214     0.2279   245.4400    18.3760    -0.0136
  769   15.360   2898.93    19.1458     0.0427    -0.0820     0.1536    19.1162     0.2234   245.7600    18.8705    -0.0119
  770   15.380   2899.93    18.9906     0.0559    -0.0981     0.1538    18.9455     0.2941   246.0800    18.6994    -0.0140
  771   15.400   2900.88    19.0074     0.0637    -0.0650     0.1540    18.9724     0.3354   246.4000    18.7260    -0.0127
  772   15.420   2901.86    18.4867     0.0641    -0.0433     0.1542    18.4657     0.3444   246.7200    18.2190    -0.0112
  773   15.440   2902.76    17.9042     0.0837     0.0264     0.1544    17.9063     0.4631   247.0400    17.6592    -0.0085
  774   15.460   2903.69    16.8644     0.1183     0.0003     0.1546    16.8629     0.6813   247.3600    16.6155    -0.0095
  775   15.480   2904.66    15.7275     0.1258     0.0557     0.1548    15.7451     0.7747   247.6800    15.4975    -0.0073
  776   15.500   2905.65    14.5594     0.1048     0.1199     0.1550    14.5996     0.6967   248.0000    14.3516    -0.0041
  777   15.520   2906.73    13.7198     0.0971     0.1261     0.1552    13.7730     0.6969   248.3200    13.5247    -0.0021
  778   15.540   2907.79    13.1227     0.0967     0.0489     0.1554    13.1586     0.7357   248.6400    12.9100    -0.0054
  779   15.560   2908.84    12.3825     0.1021     0.0387     0.1556    12.3949     0.8233   248.9600    12.1459    -0.0104
  780   15.580   2909.87    11.5351     0.1176    -0.0451     0.1558    11.5403     1.0136   249.2800    11.2910    -0.0128
  781   15.600   2910.81     8.7974     0.1189    -0.1808     0.1560     8.7320     1.3484   249.6000     8.4824    -0.0374
  782   15.620   2911.83     6.0478     0.1063    -0.1565     0.1562     5.9743     1.4652   249.9200     5.7244    -0.0584
  783   15.640   2912.85     4.2597     0.1045    -0.0732     0.1564     4.2128     2.1934   250.2400     3.9626    -0.0678
  784   15.660   2913.92     3.2047     0.1087     0.0958     0.1566     3.2096     3.2114   250.5600     2.9590    -0.0489
  785   15.680   2914.91     2.6067     0.0962     0.1732     0.1568     2.6880     3.5477   250.8800     2.4371     0.0154
  786   15.700   2915.93     1.7985     0.0799     0.3578     0.1570     1.9069     4.1009   251.2000     1.6557     0.0621
  787   15.720   2916.92     1.4826     0.0608     0.6208     0.1572     1.7203     3.5831   251.5200     1.4688     0.2787
  788   15.740   2917.93     1.4095     0.0432     0.6671     0.1574     1.6870     2.7872   251.8400     1.4351     0.3507
  789   15.760   2919.79     1.2257     0.0256     0.6723     0.1576     1.5176     1.9914   252.1600     1.2654     0.4250
  790   15.780   2920.82     1.4371     0.0248     0.7362     0.1578     1.7243     1.7774   252.4800     1.4718     0.3571
  791   15.800   2921.84     1.3520     0.0240     0.8026     0.1580     1.6806     1.7270   252.8000     1.4278     0.4375
  792   15.820   2927.61     1.2464     0.0238     0.8618     0.1582     1.6010     1.8895   253.1200     1.3479     0.5092
  793   15.840   2942.35     1.2193     0.0232     0.9123     0.1584     1.5951     1.8452   253.4400     1.3417     0.5493
  794   15.860   2957.08     1.1921     0.0204     0.9629     0.1586     1.5892     1.6221   253.7600     1.3354     0.5894
  795   15.880   2964.02     1.1962     0.0192     0.9917     0.1588     1.6086     1.6062   254.0800     1.3546     0.6078
  796   15.900   2965.07     1.2252     0.0214     1.0012     0.1590     1.6472     1.7466   254.4000     1.3928     0.6072
  797   15.920   2966.04     1.2477     0.0215     0.9883     0.1592     1.6659     1.7217   254.7200     1.4112     0.5927
  798   15.940   2967.09     1.2471     0.0217     0.9548     0.1594     1.6545     1.7414   255.0400     1.3995     0.5793
  799   15.960   2968.17     1.2658     0.0232     0.9201     0.1596     1.6517     1.8277   255.3600     1.3964     0.5438
  800   15.980   2969.15     1.2507     0.0234     0.9024     0.1598     1.6380     1.8721   255.6800     1.3823     0.5514
  801   16.000   2970.11     1.2267     0.0235     0.9633     0.1600     1.6216     1.9149   256.0000     1.3656     0.5714
  802   16.020   2971.13     1.2190     0.0233     0.9675     0.1602     1.6261     1.9100   256.3200     1.3697     0.5906
  803   16.040   2972.15     1.2283     0.0228     0.9867     0.1604     1.6407     1.8549   256.6400     1.3841     0.5935
  804   16.060   2973.22     1.2275     0.0227     0.9736     0.1606     1.6415     1.8478   256.9600     1.3845     0.5959
  805   16.080   2974.21     1.2197     0.0226     0.9626     0.1608     1.6189     1.8566   257.2800     1.3617     0.5799
  806   16.100   2975.20     1.2225     0.0239     1.0077     0.1610     1.6400     1.9568   257.6000     1.3824     0.6026
  807   16.120   2976.24     1.2540     0.0242     1.0396     0.1612     1.6876     1.9344   257.9200     1.4297     0.6093
  808   16.140   2977.24     1.2767     0.0233     1.0410     0.1614     1.7135     1.8240   258.2400     1.4552     0.6036
  809   16.160   2978.25     1.2898     0.0236     1.0265     0.1616     1.7249     1.8308   258.5600     1.4663     0.5962
  810   16.180   2979.21     1.3053     0.0231     1.0093     0.1618     1.7303     1.7791   258.8800     1.4715     0.5779
  811   16.200   2980.24     1.3311     0.0230     1.0129     0.1620     1.7560     1.7380   259.2000     1.4968     0.5677
  812   16.220   2981.25     1.3480     0.0248     1.0226     0.1622     1.7749     1.8401   259.5200     1.5154     0.5638
  813   16.240   2982.26     1.3357     0.0255     1.0019     0.1624     1.7593     1.9120   259.8400     1.4995     0.5643
  814   16.260   2983.29     1.3314     0.0247     1.0221     0.1626     1.7573     1.8589   260.1600     1.4971     0.5687
  815   16.280   2984.31     1.3863     0.0226     1.0492     0.1628     1.8234     1.6326   260.4800     1.5629     0.5617
  816   16.300   2985.32     1.4335     0.0212     1.0137     0.1630     1.8685     1.4790   260.8000     1.6077     0.5428
  817   16.320   2986.32     1.4050     0.0219     0.9804     0.1632     1.8189     1.5540   261.1200     1.5578     0.5279
  818   16.340   2987.31     1.3623     0.0229     1.0045     0.1634     1.7765     1.6818   261.4400     1.5151     0.5431
  819   16.360   2988.36     1.3410     0.0253     1.0537     0.1636     1.7830     1.8841   261.7600     1.5212     0.5842
  820   16.380   2989.39     1.3971     0.0241     1.0172     0.1638     1.8186     1.7242   262.0800     1.5565     0.5394
  821   16.400   2990.39     1.4353     0.0250     1.0332     0.1640     1.8708     1.7488   262.4000     1.6084     0.5427
  822   16.420   2991.37     1.4376     0.0272     0.9884     0.1642     1.8641     1.8913   262.7200     1.6014     0.5315
  823   16.440   2992.42     1.4566     0.0289     1.0049     0.1644     1.8716     1.9931   263.0400     1.6085     0.5120
  824   16.460   2993.48     1.4281     0.0302     1.0390     0.1646     1.8643     2.1120   263.3600     1.6009     0.5459
  825   16.480   2994.50     1.5540     0.0290     1.0538     0.1648     1.9928     1.8756   263.6800     1.7291     0.5090
  826   16.500   2995.49     1.6341     0.0280     1.0142     0.1650     2.0758     1.7178   264.0000     1.8118     0.4894
  827   16.520   2996.53     1.6733     0.0291     0.7851     0.1652     2.0577     1.7354   264.3200     1.7934     0.4180
  828   16.540   2997.53     1.5429     0.0281     0.8488     0.1654     1.8701     1.8215   264.6400     1.6054     0.3822
  829   16.560   2998.54     1.4835     0.0274     0.9229     0.1656     1.8641     1.8330   264.9600     1.5991     0.4630
  830   16.580   2999.57     1.4812     0.0263     0.9004     0.1658     1.8633     1.7699   265.2800     1.5980     0.4656
  831   16.600   3000.58     1.4591     0.0246     0.8955     0.1660     1.8317     1.6766   265.6000     1.5661     0.4605
  832   16.620   3001.53     1.4089     0.0246     0.9064     0.1662     1.7829     1.7160   265.9200     1.5170     0.4776
  833   16.640   3002.58     1.3781     0.0226     0.9702     0.1664     1.7715     1.6542   266.2400     1.5053     0.5117
  834   16.660   3003.63     1.3214     0.0208     0.9916     0.1666     1.7408     1.5771   266.5600     1.4742     0.5643
  835   16.680   3004.65     1.2929     0.0196     0.9940     0.1668     1.7113     1.5166   266.8800     1.4444     0.5741
  836   16.700   3005.67     1.2901     0.0177     1.0262     0.1670     1.7164     1.3688   267.2000     1.4492     0.5851
  837   16.720   3006.68     1.2648     0.0188     1.0729     0.1672     1.7095     1.4888   267.5200     1.4419     0.6183
  838   16.740   3007.68     1.2645     0.0220     1.0772     0.1674     1.7169     1.7387   267.8400     1.4490     0.6277
  839   16.760   3008.68     1.3142     0.0236     1.1049     0.1676     1.7739     1.8391   268.1600     1.5057     0.6157
  840   16.780   3009.72     1.4776     0.0236     1.0393     0.1678     1.9293     1.6557   268.4800     1.6608     0.5473
  841   16.800   3010.72     1.5336     0.0254     0.7998     0.1680     1.8986     1.6519   268.8000     1.6298     0.4296
  842   16.820   3011.72     1.5872     0.0254     0.8832     0.1682     1.9435     1.5995   269.1200     1.6744     0.4062
  843   16.840   3012.73     1.5759     0.0263     0.9261     0.1684     1.9567     1.6653   269.4400     1.6873     0.4376
  844   16.860   3013.78     1.5271     0.0254     0.9771     0.1686     1.9304     1.6485   269.7600     1.6607     0.4767
  845   16.880   3014.84     1.5129     0.0246     0.9673     0.1688     1.9232     1.6291   270.0800     1.6531     0.4888
  846   16.900   3015.83     1.4772     0.0267     1.0054     0.1690     1.8924     1.8051   270.4000     1.6220     0.5053
  847   16.920   3016.83     1.4460     0.0270     1.0073     0.1692     1.8682     1.8667   270.7200     1.5974     0.5233
  848   16.940   3017.87     1.4227     0.0259     1.0704     0.1694     1.8614     1.8232   271.0400     1.5904     0.5503
  849   16.960   3018.91     1.3807     0.0237     1.0612     0.1696     1.8350     1.7143   271.3600     1.5637     0.5833
  850   16.980   3019.92     1.3266     0.0225     1.0315     0.1698     1.7582     1.6955   271.6800     1.4865     0.5770
  851   17.000   3020.96     1.3096     0.0244     1.0902     0.1700     1.7561     1.8637   272.0000     1.4841     0.6018
  852   17.020   3021.91     1.3774     0.0282     1.1439     0.1702     1.8548     2.0676   272.3200     1.5824     0.6107
  853   17.040   3022.89     1.4681     0.0282     1.1551     0.1704     1.9514     1.9778   272.6400     1.6787     0.5839
  854   17.060   3023.97     1.5775     0.0253     1.0961     0.1706     2.0457     1.6119   272.9600     1.7728     0.5327
  855   17.080   3025.00     1.6415     0.0225     1.0371     0.1708     2.0789     1.3757   273.2800     1.8056     0.4821
  856   17.100   3025.99     1.5968     0.0199     1.0128     0.1710     2.0179     1.2465   273.6000     1.7443     0.4768
  857   17.120   3026.99     1.5041     0.0252     1.0860     0.1712     1.9485     1.6736   273.9200     1.6746     0.5296
  858   17.140   3028.02     1.6617     0.0271     1.0411     0.1714     2.1218     1.6568   274.2400     1.8476     0.5004
  859   17.160   3029.06     1.8824     0.0229     1.0230     0.1716     2.3090     1.2200   274.5600     2.0344     0.4150
  860   17.180   3030.01     1.9177     0.0227     0.9153     0.1718     2.3274     1.1861   274.8800     2.0526     0.3916
  861   17.200   3031.04     1.8967     0.0234     0.7795     0.1720     2.2390     1.2316   275.2000     1.9638     0.3275
  862   17.220   3032.03     1.7202     0.0229     0.8225     0.1722     2.0569     1.3273   275.5200     1.7814     0.3534
  863   17.240   3033.06     1.4718     0.0218     0.9386     0.1724     1.8506     1.4799   275.8400     1.5748     0.4635
  864   17.260   3034.11     1.3667     0.0221     0.9924     0.1726     1.7804     1.6151   276.1600     1.5043     0.5402
  865   17.280   3035.08     1.2980     0.0199     0.9904     0.1728     1.7158     1.5285   276.4800     1.4394     0.5712
  866   17.300   3036.13     1.2272     0.0209     1.0010     0.1730     1.6474     1.7051   276.8000     1.3706     0.6037
  867   17.320   3037.13     1.2337     0.0231     1.0498     0.1732     1.6674     1.8818   277.1200     1.3902     0.6180
  868   17.340   3038.14     1.2853     0.0240     1.0915     0.1734     1.7375     1.8681   277.4400     1.4601     0.6187
  869   17.360   3039.15     1.3307     0.0239     1.1228     0.1736     1.7975     1.7982   277.7600     1.5198     0.6171
  870   17.380   3040.14     1.3538     0.0231     1.1215     0.1738     1.8277     1.7233   278.0800     1.5497     0.6161
  871   17.400   3041.18     1.3748     0.0235     1.0031     0.1740     1.8207     1.7029   278.4000     1.5423     0.5752
  872   17.420   3042.21     1.2980     0.0239     1.0193     0.1742     1.7171     1.8461   278.7200     1.4384     0.5725
  873   17.440   3043.25     1.2981     0.0245     1.0939     0.1744     1.7484     1.8850   279.0400     1.4693     0.6108
  874   17.460   3044.24     1.3022     0.0246     1.1391     0.1746     1.7761     1.8955   279.3600     1.4967     0.6372
  875   17.480   3045.28     1.3462     0.0223     1.1672     0.1748     1.8332     1.6591   279.6800     1.5535     0.6338
  876   17.500   3046.27     1.3592     0.0223     1.1371     0.1750     1.8440     1.6389   280.0000     1.5640     0.6262
  877   17.520   3047.31     1.3618     0.0228     1.1080     0.1752     1.8286     1.6758   280.3200     1.5483     0.6047
  878   17.540   3048.27     1.3442     0.0241     1.1293     0.1754     1.8152     1.7914   280.6400     1.5346     0.6164
  879   17.560   3049.28     1.3701     0.0241     1.1699     0.1756     1.8537     1.7590   280.9600     1.5727     0.6204
  880   17.580   3050.33     1.3940     0.0230     1.1536     0.1758     1.8871     1.6538   281.2800     1.6058     0.6216
  881   17.600   3051.38     1.3807     0.0236     1.1007     0.1760     1.8405     1.7046   281.6000     1.5589     0.5894
  882   17.620   3052.35     1.3486     0.0241     1.1525     0.1762     1.8263     1.7841   281.9200     1.5443     0.6223
  883   17.640   3053.38     1.3455     0.0251     1.1793     0.1764     1.8401     1.8655   282.2400     1.5578     0.6427
  884   17.660   3054.41     1.3595     0.0243     1.1800     0.1766     1.8542     1.7867   282.5600     1.5717     0.6371
  885   17.680   3055.40     1.3666     0.0224     1.1830     0.1768     1.8609     1.6487   282.8800     1.5781     0.6338
  886   17.700   3056.38     1.3592     0.0227     1.1920     0.1770     1.8590     1.6804   283.2000     1.5758     0.6429
  887   17.720   3057.45     1.3456     0.0233     1.1757     0.1772     1.8440     1.7258   283.5200     1.5605     0.6469
  888   17.740   3058.46     1.3499     0.0236     1.1864     0.1774     1.8411     1.7491   283.8400     1.5572     0.6371
  889   17.760   3059.49     1.3715     0.0244     1.2007     0.1776     1.8770     1.7819   284.1600     1.5928     0.6441
  890   17.780   3060.48     1.4252     0.0250     1.1967     0.1778     1.9268     1.7860   284.4800     1.6423     0.6190
  891   17.800   3069.86     1.4361     0.0249     1.1617     0.1780     1.9300     1.7348   284.8000     1.6452     0.6063
  892   17.820   3086.57     1.4358     0.0248     1.1206     0.1782     1.9124     1.7269   285.1200     1.6273     0.5876
  893   17.840   3102.58     1.4342     0.0247     1.0871     0.1784     1.8939     1.7195   285.4400     1.6085     0.5696
  894   17.860   3103.59     1.4036     0.0234     1.0851     0.1786     1.8559     1.6507   285.7600     1.5702     0.5721
  895   17.880   3104.57     1.3860     0.0236     1.1036     0.1788     1.8430     1.6931   286.0800     1.5569     0.5840
  896   17.900   3105.67     1.3632     0.0227     1.1239     0.1790     1.8353     1.6661   286.4000     1.5489     0.6102
  897   17.920   3106.70     1.3667     0.0220     1.1323     0.1792     1.8400     1.6126   286.7200     1.5533     0.6100
  898   17.940   3107.70     1.3604     0.0213     1.1338     0.1794     1.8367     1.5646   287.0400     1.5497     0.6160
  899   17.960   3108.73     1.3703     0.0209     1.1273     0.1796     1.8466     1.5255   287.3600     1.5593     0.6122
  900   17.980   3109.71     1.3691     0.0210     1.1630     0.1798     1.8512     1.5337   287.6800     1.5636     0.6192
  901   18.000   3110.70     1.3783     0.0211     1.1645     0.1800     1.8701     1.5341   288.0000     1.5821     0.6264
  902   18.020   3111.75     1.3906     0.0220     1.1636     0.1802     1.8775     1.5915   288.3200     1.5892     0.6160
  903   18.040   3112.84     1.3882     0.0220     1.1626     0.1804     1.8747     1.5877   288.6400     1.5861     0.6166
  904   18.060   3113.84     1.3881     0.0223     1.1561     0.1806     1.8758     1.6078   288.9600     1.5869     0.6180
  905   18.080   3114.83     1.3843     0.0223     1.1435     0.1808     1.8658     1.6070   289.2800     1.5766     0.6125
  906   18.100   3115.87     1.3820     0.0211     1.1482     0.1810     1.8641     1.5197   289.6000     1.5745     0.6141
  907   18.120   3116.85     1.3788     0.0201     1.1265     0.1812     1.8531     1.4655   289.9200     1.5632     0.6066
  908   18.140   3117.90     1.3553     0.0200     1.1216     0.1814     1.8263     1.4569   290.2400     1.5361     0.6121
  909   18.160   3118.93     1.3355     0.0205     1.1322     0.1816     1.8082     1.5278   290.5600     1.5176     0.6219
  910   18.180   3119.95     1.3481     0.0214     1.1856     0.1818     1.8395     1.5849   290.8800     1.5486     0.6381
  911   18.200   3120.98     1.4497     0.0214     1.2133     0.1820     1.9567     1.4821   291.2000     1.6655     0.6155
  912   18.220   3122.02     1.4663     0.0216     1.2025     0.1822     1.9744     1.4753   291.5200     1.6829     0.6106
  913   18.240   3123.03     1.4649     0.0207     1.1007     0.1824     1.9482     1.4136   291.8400     1.6564     0.5845
  914   18.260   3124.03     1.4072     0.0216     1.0831     0.1826     1.8552     1.4977   292.1600     1.5630     0.5655
  915   18.280   3125.07     1.3793     0.0211     1.1428     0.1828     1.8554     1.5196   292.4800     1.5630     0.6083
  916   18.300   3126.04     1.3806     0.0208     1.1559     0.1830     1.8647     1.5087   292.8000     1.5719     0.6167
  917   18.320   3127.08     1.3915     0.0196     1.1423     0.1832     1.8750     1.4164   293.1200     1.5819     0.6119
  918   18.340   3128.13     1.4010     0.0199     1.1418     0.1834     1.8803     1.4231   293.4400     1.5868     0.6036
  919   18.360   3129.15     1.4004     0.0199     1.1211     0.1836     1.8744     1.4132   293.7600     1.5807     0.5978
  920   18.380   3130.18     1.3996     0.0208     1.0612     0.1838     1.8563     1.4914   294.0800     1.5622     0.5783
  921   18.400   3131.16     1.3771     0.0216     1.1248     0.1840     1.8401     1.5595   294.4000     1.5457     0.5941
  922   18.420   3132.17     1.4168     0.0209     1.1438     0.1842     1.8954     1.4897   294.7200     1.6007     0.5968
  923   18.440   3133.24     1.4475     0.0216     1.1046     0.1844     1.9195     1.5083   295.0400     1.6244     0.5782
  924   18.460   3134.29     1.4471     0.0214     1.1025     0.1846     1.9072     1.4816   295.3600     1.6119     0.5651
  925   18.480   3135.31     1.4576     0.0220     1.0904     0.1848     1.9188     1.5122   295.6800     1.6231     0.5627
  926   18.500   3136.32     1.4268     0.0221     1.0892     0.1850     1.8845     1.5401   296.0000     1.5885     0.5697
  927   18.520   3137.34     1.4098     0.0224     1.0935     0.1852     1.8667     1.5893   296.3200     1.5704     0.5749
  928   18.540   3138.33     1.3704     0.0223     1.1018     0.1854     1.8301     1.6178   296.6400     1.5335     0.5929
  929   18.560   3139.33     1.3696     0.0217     1.1327     0.1856     1.8421     1.5852   296.9600     1.5452     0.6080
  930   18.580   3140.33     1.3815     0.0211     1.1433     0.1858     1.8607     1.5348   297.2800     1.5634     0.6110
  931   18.600   3141.35     1.4026     0.0213     1.1583     0.1860     1.8875     1.5272   297.6000     1.5899     0.6091
  932   18.620   3142.41     1.3860     0.0217     1.1494     0.1862     1.8717     1.5637   297.9200     1.5738     0.6165
  933   18.640   3143.50     1.3914     0.0217     1.1279     0.1864     1.8668     1.5675   298.2400     1.5686     0.6028
  934   18.660   3144.46     1.4541     0.0212     0.9004     0.1866     1.9181     1.4638   298.5600     1.6196     0.5670
  935   18.680   3145.50     1.4127     0.0220     0.8512     0.1868     1.7465     1.5398   298.8800     1.4476     0.4199
  936   18.700   3146.50     1.4036     0.0222     0.9547     0.1870     1.7932     1.5793   299.2000     1.4940     0.4958
  937   18.720   3147.48     1.4162     0.0218     1.0034     0.1872     1.8288     1.5444   299.5200     1.5292     0.5199
  938   18.740   3148.51     1.4177     0.0218     1.0534     0.1874     1.8535     1.5263   299.8400     1.5537     0.5473
  939   18.760   3149.51     1.4054     0.0223     1.0875     0.1876     1.8598     1.5888   300.1600     1.5596     0.5733
  940   18.780   3150.53     1.3961     0.0219     1.1080     0.1878     1.8563     1.5632   300.4800     1.5558     0.5836
  941   18.800   3151.59     1.3988     0.0217     1.1360     0.1880     1.8700     1.5481   300.8000     1.5692     0.5952
  942   18.820   3152.63     1.3930     0.0224     1.1452     0.1882     1.8744     1.6133   301.1200     1.5733     0.6089
  943   18.840   3153.65     1.4166     0.0232     1.1477     0.1884     1.8956     1.6482   301.4400     1.5941     0.5971
  944   18.860   3154.69     1.4237     0.0234     1.1587     0.1886     1.9083     1.6453   301.7600     1.6065     0.6007
  945   18.880   3155.64     1.4309     0.0246     1.1677     0.1888     1.9194     1.7222   302.0800     1.6174     0.6025
  946   18.900   3156.67     1.4491     0.0237     1.1789     0.1890     1.9424     1.6471   302.4000     1.6400     0.6010
  947   18.920   3157.77     1.4925     0.0238     1.1780     0.1892     1.9885     1.6084   302.7200     1.6858     0.5884
  948   18.940   3158.79     1.5129     0.0244     1.1502     0.1894     1.9975     1.6192   303.0400     1.6945     0.5692
  949   18.960   3159.79     1.5069     0.0240     1.1476     0.1896     1.9917     1.5974   303.3600     1.6883     0.5713
  950   18.980   3160.82     1.5199     0.0235     1.1149     0.1898     1.9949     1.5434   303.6800     1.6912     0.5564
  951   19.000   3161.84     1.5053     0.0224     1.0979     0.1900     1.9666     1.4871   304.0000     1.6626     0.5463
  952   19.020   3162.89     1.4693     0.0215     1.1034     0.1902     1.9293     1.4568   304.3200     1.6250     0.5570
  953   19.040   3163.87     1.4414     0.0220     1.1449     0.1904     1.9168     1.5207   304.6400     1.6121     0.5840
  954   19.060   3164.86     1.5227     0.0222     1.1636     0.1906     2.0102     1.5000   304.9600     1.7052     0.5691
  955   19.080   3165.93     1.6264     0.0213     1.1396     0.1908     2.1078     1.3140   305.2800     1.8025     0.5301
  956   19.100   3166.98     1.7229     0.0211     1.0989     0.1910     2.1968     1.2354   305.6000     1.8912     0.4956
  957   19.120   3167.98     1.6662     0.0204     0.9777     0.1912     2.0836     1.1246   305.9200     1.7777     0.4514
  958   19.140   3168.96     1.6864     0.0201     0.8772     0.1914     2.1076     1.2177   306.2400     1.8014     0.4504
  959   19.160   3169.95     1.6260     0.0208     0.8682     0.1916     1.9799     1.2392   306.5600     1.6734     0.3893
  960   19.180   3170.99     1.5202     0.0216     1.0204     0.1918     1.9356     1.4033   306.8800     1.6288     0.4895
  961   19.200   3172.05     1.5298     0.0231     1.0693     0.1920     1.9752     1.5147   307.2000     1.6680     0.5207
  962   19.220   3173.09     1.5875     0.0209     1.0980     0.1922     2.0463     1.3192   307.5200     1.7388     0.5177
  963   19.240   3174.10     1.6109     0.0219     1.1282     0.1924     2.0781     1.3611   307.8400     1.7702     0.5197
  964   19.260   3175.14     1.7120     0.0227     1.0960     0.1926     2.1798     1.3581   308.1600     1.8716     0.4922
  965   19.280   3176.13     1.6480     0.0228     0.9601     0.1928     2.0763     1.3272   308.4800     1.7678     0.4675
  966   19.300   3177.19     1.5185     0.0217     1.0806     0.1930     1.9651     1.3902   308.8000     1.6563     0.5255
  967   19.320   3178.16     1.5254     0.0222     1.1199     0.1932     1.9920     1.4656   309.1200     1.6829     0.5453
  968   19.340   3179.18     1.5125     0.0225     1.1259     0.1934     1.9828     1.4752   309.4400     1.6734     0.5537
  969   19.360   3180.26     1.5424     0.0222     1.1702     0.1936     2.0261     1.4637   309.7600     1.7164     0.5583
  970   19.380   3181.28     1.5881     0.0235     1.1925     0.1938     2.0884     1.4927   310.0800     1.7783     0.5609
  971   19.400   3182.31     1.6625     0.0223     1.1663     0.1940     2.1559     1.3571   310.4000     1.8455     0.5315
  972   19.420   3183.31     1.6762     0.0235     1.1695     0.1942     2.1669     1.4085   310.7200     1.8562     0.5247
  973   19.440   3184.35     1.6644     0.0242     1.2125     0.1944     2.1680     1.4506   311.0400     1.8569     0.5409
  974   19.460   3185.44     1.6956     0.0263     1.1895     0.1946     2.2002     1.5560   311.3600     1.8889     0.5331
  975   19.480   3186.45     1.7219     0.0255     1.1630     0.1948     2.2183     1.4952   311.6800     1.9066     0.5177
  976   19.500   3187.46     2.0189     0.0233     0.9265     0.1950     2.4672     1.2038   312.0000     2.1552     0.4050
  977   19.520   3188.48     1.7323     0.0229     0.8544     0.1952     2.0726     1.3159   312.3200     1.7602     0.3493
  978   19.540   3189.49     1.6175     0.0230     0.9602     0.1954     2.0127     1.4237   312.6400     1.7001     0.4386
  979   19.560   3190.53     1.5633     0.0255     1.0091     0.1956     1.9824     1.5781   312.9600     1.6695     0.4805
  980   19.580   3191.58     1.7213     0.0239     1.0376     0.1958     2.1541     1.3932   313.2800     1.8408     0.4535
  981   19.600   3192.59     1.8707     0.0224     0.9588     0.1960     2.2927     1.2026   313.6000     1.9791     0.4087
  982   19.620   3193.55     1.8998     0.0218     0.8606     0.1962     2.2671     1.1445   313.9200     1.9532     0.3473
  983   19.640   3194.56     1.7930     0.0217     0.8758     0.1964     2.1530     1.1787   314.2400     1.8387     0.3593
  984   19.660   3195.64     1.6067     0.0200     0.9555     0.1966     1.9978     1.2415   314.5600     1.6833     0.4365
  985   19.680   3196.68     1.5838     0.0168     1.0079     0.1968     2.0038     1.0714   314.8800     1.6889     0.4755
  986   19.700   3197.68     1.6255     0.0198     0.9745     0.1970     2.0436     1.2684   315.2000     1.7284     0.4619
  987   19.720   3198.72     1.5645     0.0228     1.0147     0.1972     1.9811     1.4654   315.5200     1.6655     0.4770
  988   19.740   3199.68     1.6880     0.0256     1.0156     0.1974     2.1077     1.6126   315.8400     1.7918     0.4477
  989   19.760   3200.65     2.0031     0.0251     0.9301     0.1976     2.4208     1.3645   316.1600     2.1046     0.3801
  990   19.780   3201.77     2.3324     0.0252     0.7211     0.1978     2.6615     1.1229   316.4800     2.3450     0.2497
  991   19.800   3215.47     2.4099     0.0233     0.6331     0.1980     2.6886     0.9928   316.8000     2.3718     0.1974
  992   19.820   3232.98     2.4984     0.0198     0.5451     0.1982     2.7401     0.8446   317.1200     2.4230     0.1568
  993   19.840   3245.82     2.4508     0.0206     0.5216     0.1984     2.6693     0.8337   317.4400     2.3518     0.1371
  994   19.860   3246.86     2.0831     0.0198     0.5753     0.1986     2.3104     0.9101   317.7600     1.9926     0.1725
  995   19.880   3247.87     1.8429     0.0162     0.7000     0.1988     2.1173     0.8370   318.0800     1.7992     0.2531
  996   19.900   3248.89     1.6906     0.0139     0.8070     0.1990     2.0158     0.8109   318.4000     1.6974     0.3389
  997   19.920   3249.94     1.8112     0.0168     0.8525     0.1992     2.1757     0.9316   318.7200     1.8570     0.3600
  998   19.940   3250.92     2.0144     0.0192     0.8307     0.1994     2.3634     1.0142   319.0400     2.0444     0.3092
  999   19.960   3251.91     2.2280     0.0165     0.7659     0.1996     2.5679     0.7752   319.3600     2.2486     0.2713
 1000   19.980   3253.01     2.3873     0.0164     0.5824     0.1998     2.6715     0.6983   319.6800     2.3518     0.2028
 1001   20.000   3254.02     2.2760     0.0168     0.6042     0.2000     2.5091     0.7352   320.0000     2.1891     0.1622
 1002   20.020   3255.02     2.1146     0.0173     0.7009     0.2002     2.3971     0.7821   320.3200     2.0768     0.2275
 1003   20.040   3256.03     1.8340     0.0159     0.7887     0.2004     2.1459     0.8213   320.6400     1.8252     0.2970
 1004   20.060   3257.06     1.7432     0.0194     0.8640     0.2006     2.1004     1.0962   320.9600     1.7795     0.3653
 1005   20.080   3258.13     1.8157     0.0236     0.8833     0.2008     2.1854     1.3025   321.2800     1.8641     0.3645
 1006   20.100   3259.11     1.9293     0.0245     0.8626     0.2010     2.2997     1.2769   321.6000     1.9781     0.3443
 1007   20.120   3260.12     2.1283     0.0256     0.8182     0.2012     2.4882     1.2751   321.9200     2.1662     0.3030
 1008   20.140   3261.14     2.3754     0.0272     0.6584     0.2014     2.6591     1.1899   322.2400     2.3368     0.2030
 1009   20.160   3262.17     2.5622     0.0300     0.6311     0.2016     2.8306     1.2056   322.5600     2.5080     0.1744
 1010   20.180   3263.23     2.8011     0.0279     0.6176     0.2018     3.0600     1.0389   322.8800     2.7371     0.1516
 1011   20.200   3264.21     3.0559     0.0294     0.5908     0.2020     3.3066     0.9938   323.2000     2.9834     0.1323
 1012   20.220   3265.25     3.4023     0.0367     0.5293     0.2022     3.6365     1.1388   323.5200     3.3130     0.1075
 1013   20.240   3266.30     3.7564     0.0454     0.5005     0.2024     3.9650     1.2479   323.8400     3.6412     0.0808
 1014   20.260   3267.35     4.0241     0.0385     0.4995     0.2026     4.2279     0.9822   324.1600     3.9037     0.0725
 1015   20.280   3268.39     4.2686     0.0239     0.5314     0.2028     4.4927     0.5735   324.4800     4.1682     0.0793
 1016   20.300   3269.42     4.7222     0.0235     0.5227     0.2030     4.9457     0.5014   324.8000     4.6209     0.0713
 1017   20.320   3270.42     5.2437     0.0323     0.4376     0.2032     5.4403     0.6389   325.1200     5.1152     0.0519
 1018   20.340   3271.47     5.7271     0.0495     0.3563     0.2034     5.8867     0.8874   325.4400     5.5612     0.0318
 1019   20.360   3272.55     5.8373     0.0493     0.3186     0.2036     5.9717     0.8418   325.7600     5.6459     0.0206
 1020   20.380   3273.56     5.3437     0.0591     0.3543     0.2038     5.4856     1.0485   326.0800     5.1596     0.0260
 1021   20.400   3274.56     4.7139     0.0537     0.4157     0.2040     4.8834     1.0719   326.4000     4.5570     0.0439
 1022   20.420   3275.60     4.0181     0.0545     0.4437     0.2042     4.2021     1.2666   326.7200     3.8754     0.0604
 1023   20.440   3276.63     3.3757     0.0572     0.5314     0.2044     3.5864     1.5925   327.0400     3.2594     0.0915
 1024   20.460   3277.66     2.9495     0.0641     0.6202     0.2046     3.1868     2.0816   327.3600     2.8595     0.1263
 1025   20.480   3278.67     3.1033     0.0550     0.6897     0.2048     3.3927     1.8870   327.6800     3.0650     0.1584
 1026   20.500   3279.73     4.0503     0.0469     0.6140     0.2050     4.3249     1.3107   328.0000     3.9969     0.1132
 1027   20.520   3280.76     5.0755     0.0460     0.4421     0.2052     5.2840     0.9920   328.3200     4.9557     0.0592
 1028   20.540   3281.83     5.6365     0.0524     0.2393     0.2054     5.7606     0.9453   328.6400     5.4320     0.0166
 1029   20.560   3282.89     5.6349     0.0547     0.1399     0.2056     5.7023     0.9623   328.9600     5.3733    -0.0084
 1030   20.580   3283.89     5.2465     0.0412     0.1174     0.2058     5.2970     0.7560   329.2800     4.9677    -0.0173
 1031   20.600   3284.89     4.4476     0.0310     0.1118     0.2060     4.4960     0.6365   329.6000     4.1664    -0.0219
 1032   20.620   3285.92     3.4801     0.0223     0.2151     0.2062     3.5515     0.5722   329.9200     3.2216    -0.0109
 1033   20.640   3286.93     2.5883     0.0184     0.2433     0.2064     2.6850     0.6121   330.2400     2.3548     0.0100
 1034   20.660   3287.99     1.9577     0.0135     0.4406     0.2066     2.1066     0.6271   330.5600     1.7760     0.0834
 1035   20.680   3288.98     1.7703     0.0111     0.5899     0.2068     2.0027     0.6102   330.8800     1.6718     0.2074
 1036   20.700   3290.03     1.7183     0.0180     0.7119     0.2070     2.0005     1.0558   331.2000     1.6693     0.2785
 1037   20.720   3291.06     1.7184     0.0338     0.8104     0.2072     2.0492     1.9752   331.5200     1.7177     0.3380
 1038   20.740   3292.07     2.1258     0.0446     0.8656     0.2074     2.4877     2.3472   331.8400     2.1559     0.3045
 1039   20.760   3293.12     3.0781     0.0493     0.7551     0.2076     3.4100     1.8526   332.1600     3.0778     0.1902
 1040   20.780   3294.16     3.8178     0.0473     0.5262     0.2078     4.0675     1.3308   332.4800     3.7350     0.1039
 1041   20.800   3295.16     4.2997     0.0444     0.4407     0.2080     4.4955     1.0724   332.8000     4.1627     0.0621
 1042   20.820   3296.19     4.7566     0.0389     0.3855     0.2082     4.9230     0.8496   333.1200     4.5899     0.0411
 1043   20.840   3297.25     5.2149     0.0342     0.4084     0.2084     5.3895     0.6814   333.4400     5.0561     0.0410
 1044   20.860   3298.32     5.4176     0.0372     0.3396     0.2086     5.5686     0.6929   333.7600     5.2348     0.0288
 1045   20.880   3299.36     5.1344     0.0345     0.2840     0.2088     5.2626     0.6558   334.0800     4.9286     0.0195
 1046   20.900   3300.39     4.6018     0.0348     0.2793     0.2090     4.7143     0.7250   334.4000     4.3799     0.0135
 1047   20.920   3301.42     4.0701     0.0343     0.3680     0.2092     4.2120     0.7991   334.7200     3.8772     0.0333
 1048   20.940   3302.42     3.6531     0.0254     0.4320     0.2094     3.8255     0.6605   335.0400     3.4904     0.0577
 1049   20.960   3303.43     3.2247     0.0244     0.5034     0.2096     3.4250     0.7141   335.3600     3.0896     0.0866
 1050   20.980   3304.46     2.7883     0.0287     0.5851     0.2098     3.0201     0.9612   335.6800     2.6844     0.1276
 1051   21.000   3305.47     2.3576     0.0294     0.7043     0.2100     2.6299     1.1749   336.0000     2.2939     0.1914
 1052   21.020   3306.55     2.2811     0.0351     0.7993     0.2102     2.6076     1.5650   336.3200     2.2713     0.2498
 1053   21.040   3307.55     2.8059     0.0456     0.8092     0.2104     3.1501     1.8023   336.6400     2.8135     0.2168
 1054   21.060   3308.61     3.5700     0.0430     0.6920     0.2106     3.8873     1.3320   336.9600     3.5503     0.1544
 1055   21.080   3309.61     4.4412     0.0382     0.4622     0.2108     4.6625     0.9275   337.2800     4.3253     0.0734
 1056   21.100   3310.63     4.9589     0.0326     0.3162     0.2110     5.1142     0.6746   337.6000     4.7766     0.0333
 1057   21.120   3311.66     4.9907     0.0309     0.2748     0.2112     5.1126     0.6189   337.9200     4.7747     0.0165
 1058   21.140   3312.72     5.1141     0.0366     0.2551     0.2114     5.2206     0.7217   338.2400     4.8823     0.0086
 1059   21.160   3313.80     5.1252     0.0388     0.2372     0.2116     5.2346     0.7528   338.5600     4.8960     0.0099
 1060   21.180   3314.82     5.0278     0.0362     0.1994     0.2118     5.1115     0.7137   338.8800     4.7726    -0.0026
 1061   21.200   3315.85     4.8979     0.0323     0.2215     0.2120     4.9845     0.6509   339.2000     4.6453    -0.0013
 1062   21.220   3316.86     4.8700     0.0294     0.2871     0.2122     4.9803     0.6064   339.5200     4.6408     0.0109
 1063   21.240   3317.90     5.0339     0.0354     0.3420     0.2124     5.1711     0.7111   339.8400     4.8313     0.0237
 1064   21.260   3318.94     5.0884     0.0414     0.3648     0.2126     5.2431     0.8105   340.1600     4.9030     0.0318
 1065   21.280   3319.97     4.9085     0.0428     0.3708     0.2128     5.0624     0.8571   340.4800     4.7219     0.0325
 1066   21.300   3320.98     4.5965     0.0445     0.4122     0.2130     4.7596     0.9431   340.8000     4.4188     0.0397
 1067   21.320   3322.01     4.2889     0.0529     0.4896     0.2132     4.4790     1.2045   341.1200     4.1379     0.0579
 1068   21.340   3323.07     3.9978     0.0620     0.5336     0.2134     4.2159     1.5135   341.4400     3.8744     0.0789
 1069   21.360   3324.13     3.7113     0.0603     0.5774     0.2136     3.9458     1.5904   341.7600     3.6041     0.0957
 1070   21.380   3325.16     3.6683     0.0497     0.6215     0.2138     3.9207     1.3633   342.0800     3.5786     0.1082
 1071   21.400   3326.21     4.1013     0.0397     0.6624     0.2140     4.3748     1.0300   342.4000     4.0324     0.1086
 1072   21.420   3327.21     5.0448     0.0281     0.5858     0.2142     5.3084     0.6028   342.7200     4.9656     0.0836
 1073   21.440   3328.29     6.0410     0.0241     0.3756     0.2144     6.2295     0.4175   343.0400     5.8864     0.0401
 1074   21.460   3329.36     6.6833     0.0350     0.2263     0.2146     6.7922     0.5361   343.3600     6.4488     0.0070
 1075   21.480   3330.43     6.8564     0.0445     0.1798     0.2148     6.9396     0.6515   343.6800     6.5959    -0.0026
 1076   21.500   3331.43     6.7307     0.0627     0.1263     0.2150     6.7885     0.9209   344.0000     6.4445    -0.0120
 1077   21.520   3332.52     6.3491     0.0709     0.1481     0.2152     6.4093     1.0822   344.3200     6.0650    -0.0118
 1078   21.540   3333.53     5.7926     0.0686     0.2276     0.2154     5.8754     1.1330   344.6400     5.5308    -0.0033
 1079   21.560   3334.59     5.3672     0.0731     0.3203     0.2156     5.4897     1.3374   344.9600     5.1447     0.0148
 1080   21.580   3335.61     5.1705     0.0798     0.4146     0.2158     5.3324     1.5348   345.2800     4.9872     0.0341
 1081   21.600   3336.65     4.8251     0.0603     0.4590     0.2160     5.0133     1.2060   345.6000     4.6677     0.0498
 1082   21.620   3337.65     4.3251     0.0621     0.4573     0.2162     4.5161     1.4037   345.9200     4.1701     0.0572
 1083   21.640   3338.69     3.7933     0.0679     0.3897     0.2164     3.9650     1.6997   346.2400     3.6188     0.0531
 1084   21.660   3339.72     3.6165     0.0737     0.4830     0.2166     3.8047     1.9957   346.5600     3.4581     0.0670
 1085   21.680   3340.71     3.5926     0.0873     0.5911     0.2168     3.8246     2.4390   346.8800     3.4777     0.0964
 1086   21.700   3341.74     3.6763     0.0793     0.6586     0.2170     3.9397     2.1476   347.2000     3.5925     0.1143
 1087   21.720   3347.96     3.3577     0.0930     0.6661     0.2172     3.6306     2.7030   347.5200     3.2830     0.1321
 1088   21.740   3363.71     3.2691     0.1036     0.7136     0.2174     3.5620     3.0579   347.8400     3.2141     0.1501
 1089   21.760   3379.47     3.1806     0.1083     0.7610     0.2176     3.4934     3.1967   348.1600     3.1452     0.1682
 1090   21.780   3389.91     3.0492     0.1097     0.7795     0.2178     3.3791     3.5214   348.4800     3.0306     0.1874
 1091   21.800   3390.95     3.0796     0.1051     0.7666     0.2180     3.3936     3.4947   348.8000     3.0448     0.1740
 1092   21.820   3392.01     3.3844     0.0937     0.7761     0.2182     3.7171     2.8810   349.1200     3.3680     0.1704
 1093   21.840   3393.04     3.8470     0.0835     0.6753     0.2184     4.1601     2.2512   349.4400     3.8107     0.1384
 1094   21.860   3394.09     4.4355     0.0767     0.3676     0.2186     4.6252     1.8165   349.7600     4.2755     0.0548
 1095   21.880   3395.15     5.1095     0.0673     0.2276     0.2188     5.2196     1.3688   350.0800     4.8695     0.0090
 1096   21.900   3396.19     5.7091     0.0574     0.1262     0.2190     5.7694     1.0459   350.4000     5.4190    -0.0138
 1097   21.920   3397.22     6.4489     0.0553     0.0084     0.2192     6.4693     0.8872   350.7200     6.1185    -0.0278
 1098   21.940   3398.33     7.1403     0.0653    -0.0778     0.2194     7.1159     0.9394   351.0400     6.7648    -0.0410
 1099   21.960   3399.39     7.5456     0.0778    -0.1106     0.2196     7.5014     1.0396   351.3600     7.1500    -0.0454
 1100   21.980   3400.45     7.6692     0.0912    -0.1083     0.2198     7.6220     1.1927   351.6800     7.2703    -0.0457
 1101   22.000   3401.48     7.6716     0.1089    -0.0872     0.2200     7.6299     1.4159   352.0000     7.2779    -0.0439
 1102   22.020   3402.48     7.4869     0.1223    -0.0339     0.2202     7.4626     1.6251   352.3200     7.1102    -0.0391
 1103   22.040   3403.52     7.4505     0.1388     0.0228     0.2204     7.4509     1.8647   352.6400     7.0983    -0.0309
 1104   22.060   3404.66     7.4463     0.1520     0.0551     0.2206     7.4663     2.0457   352.9600     7.1133    -0.0243
 1105   22.080   3405.72     7.6497     0.1542    -0.0043     0.2208     7.6651     2.0470   353.2800     7.3118    -0.0251
 1106   22.100   3406.77     8.1697     0.1228    -0.0770     0.2210     8.1421     1.5297   353.6000     7.7885    -0.0368
 1107   22.120   3407.84     8.7605     0.0895    -0.1258     0.2212     8.7236     1.0478   353.9200     8.3697    -0.0369
 1108   22.140   3408.89     9.2344     0.0763    -0.2342     0.2214     9.1493     0.8374   354.2400     8.7951    -0.0482
 1109   22.160   3409.89     9.6683     0.0717    -0.2828     0.2216     9.5524     0.7492   354.5600     9.1979    -0.0541
 1110   22.180   3410.96    10.0259     0.0757    -0.2747     0.2218     9.9092     0.7596   354.8800     9.5543    -0.0523
 1111   22.200   3412.02    10.2298     0.0884    -0.2743     0.2220    10.1158     0.8692   355.2000     9.7606    -0.0505
 1112   22.220   3413.16    10.4878     0.0977    -0.2745     0.2222    10.3718     0.9404   355.5200    10.0163    -0.0498
 1113   22.240   3414.16    10.8346     0.0961    -0.2694     0.2224    10.7209     0.8961   355.8400    10.3650    -0.0476
 1114   22.260   3415.22    11.1183     0.1002    -0.2794     0.2226    11.0038     0.9046   356.1600    10.6477    -0.0465
 1115   22.280   3416.30    11.4473     0.1047    -0.2855     0.2228    11.3274     0.9229   356.4800    10.9709    -0.0464
 1116   22.300   3417.32    11.8212               -0.2814     0.2230    11.7022              356.8000    11.3454    -0.0446
 1117   22.320   3418.39    12.3594               -0.2711     0.2232    12.2439              357.1200    11.8868    -0.0419
 1118   22.340   3419.41    12.8256               -0.2610     0.2234    12.7148              357.4400    12.3574    -0.0394
 1119   22.360   3420.57    13.1878               -0.2743     0.2236    13.0746              357.7600    12.7168    -0.0388
 1120   22.380   3421.62    13.3610               -0.2879     0.2238    13.2409              358.0800    12.8828    -0.0396
 1121   22.388   3422.53    13.3796                           0.2239    13.2609              358.2116    12.9027    -0.0393
 
 
