

 Program UNIPLOT                         version 05.36.02
 _______________
 (c) Fugro Netherlands Marine, Nootdorp, The Netherlands


 ASCII representation of data plotted on a graph.

 This ASCII file presents data interpolated to values per fixed depth interval.
 The data are corrected for the depth-offset differences between the various 
 transducers in the penetrometer.

 The records at the start of penetration may include no values or anomalous
 values where a depth offset implies incomplete penetration of a particular
 sensor into the ground.

 The records at the end of penetration may include no values for data channels
 where the transducer did not reach this depth.

 The reference level for test values is (1) the ground surface for onshore tests and (2) the seafloor for nearshore and offshore tests.

 UNICAS data file          : CPT-2005.000                            
 Output using command file : PlotASCII.cmd

 ASCII file created at : date          :05-Jul-2022
                         time          :21:33:46
 Project number                        :20024805                                                                                            
 Date of testing                       :27-Jun-2022                                                                                         
 Location                              :Hong Kong Offshore Wind Farm Project                                                                
 Test name                             :CPT-2005
 Penetrometer                          :F7.5CKE2HAW2/B/3285
 Serial no                             :1701-3285

 Table description:
 Column ID                             :Parameter name
 ___________________________________________________________________________________
 Rec                                   :Record ID, Record ID [-]
 Depth                                 :Depth, Depth [m]
 Time                                  :Time, Time [s]
 Cone                                  :Cone Resistance, Cone Resistance [MPa]
 Friction                              :Sleeve Friction, Sleeve Friction [MPa]
 Pore 2                                :Porewater Pressure, Porewater Pressure at Shoulder [MPa]
 HydroPress                            :Hydrostatic Pressure, Hydrostatic Pressure [MPa]
 qt                                    :Total Cone Resistance, Total Cone Resistance [MPa]
 Fric_ratio                            :Friction Ratio, Friction Ratio [%]
 SigmaVert                             :Vertical stress, Vertical stress [kPa] as specified in ground model
 Qnet                                  :Net Cone Resistance, Net Cone Resistance [MPa], unit weight as specified in ground model
 Bq                                    :Porewater Pressure Ratio, Porewater Pressure Ratio [-], unit weight as specified in ground model


 Data table:
  Rec    Depth      Time       Cone   Friction     Pore 2 HydroPress         qt Fric_ratio  SigmaVert       Qnet         Bq
   No        m         s        MPa        MPa        MPa        MPa        MPa          %        kPa        MPa          -
    1    0.000   1422.94     0.0000                           0.0000     0.0000                0.0000     0.0000           
    2    0.020   1425.30     0.0045                0.0001     0.0002     0.0045                0.3200     0.0042    -0.0332
    3    0.040   1428.95     0.0054                0.0001     0.0004     0.0055                0.6400     0.0048    -0.0600
    4    0.060   1432.61     0.0063     0.0004     0.0001     0.0006     0.0064     9.3172     0.9600     0.0054    -0.0867
    5    0.080   1433.91     0.0075     0.0004    -0.0002     0.0008     0.0076     5.8645     1.2800     0.0063    -0.1215
    6    0.100   1434.94     0.0090     0.0005     0.0000     0.0010     0.0088     7.5794     1.6000     0.0072    -0.1894
    7    0.120   1436.00     0.0098     0.0007     0.0005     0.0012     0.0098     8.6432     1.9200     0.0079    -0.1491
    8    0.140   1437.05     0.0116     0.0007     0.0004     0.0014     0.0117     6.7472     2.2400     0.0095    -0.1166
    9    0.160   1438.11     0.0140     0.0009     0.0005     0.0016     0.0142     7.2275     2.5600     0.0117    -0.0862
   10    0.180   1439.18     0.0129     0.0010     0.0004     0.0018     0.0131     8.1487     2.8800     0.0102    -0.1413
   11    0.200   1440.25     0.0141     0.0010     0.0010     0.0020     0.0145     9.4782     3.2000     0.0113    -0.1064
   12    0.220   1441.27     0.0131     0.0011     0.0004     0.0022     0.0134     9.8617     3.5200     0.0099    -0.1500
   13    0.240   1442.31     0.0127     0.0011     0.0002     0.0024     0.0126     9.3942     3.8400     0.0088    -0.2894
   14    0.260   1443.34     0.0104     0.0010     0.0024     0.0026     0.0112    10.3937     4.1600     0.0070    -0.1135
   15    0.280   1444.42     0.0126     0.0010     0.0031     0.0028     0.0138     7.5823     4.4800     0.0093     0.0215
   16    0.300   1448.05     0.0133     0.0010     0.0037     0.0030     0.0148     8.0155     4.8000     0.0100     0.0446
   17    0.320   1454.83     0.0145     0.0010     0.0045     0.0032     0.0162     7.6571     5.1200     0.0111     0.0856
   18    0.340   1461.61     0.0156     0.0012     0.0052     0.0034     0.0177     9.7513     5.4400     0.0123     0.1266
   19    0.360   1463.80     0.0181     0.0011     0.0049     0.0036     0.0203     6.5578     5.7600     0.0145     0.1017
   20    0.380   1464.82     0.0199     0.0011     0.0056     0.0038     0.0220     5.7412     6.0800     0.0159     0.0765
   21    0.400   1465.84     0.0181     0.0010     0.0069     0.0040     0.0208     4.7846     6.4000     0.0144     0.1811
   22    0.420   1466.91     0.0173     0.0014     0.0064     0.0042     0.0202     6.4146     6.7200     0.0134     0.1961
   23    0.440   1467.93     0.0211     0.0012     0.0064     0.0044     0.0236     5.8079     7.0400     0.0165     0.0933
   24    0.460   1468.98     0.0183     0.0013     0.0073     0.0046     0.0212     6.7434     7.3600     0.0139     0.1707
   25    0.480   1470.00     0.0215     0.0015     0.0093     0.0048     0.0251     8.1380     7.6800     0.0174     0.2050
   26    0.500   1471.03     0.0243     0.0016     0.0098     0.0050     0.0284     7.0995     8.0000     0.0204     0.2399
   27    0.520   1472.08     0.0207     0.0015     0.0098     0.0052     0.0248     7.0756     8.3200     0.0164     0.2727
   28    0.540   1473.12     0.0217     0.0016     0.0074     0.0054     0.0252     7.7240     8.6400     0.0166     0.1758
   29    0.560   1474.15     0.0249     0.0014     0.0069     0.0056     0.0279     6.9656     8.9600     0.0189     0.0783
   30    0.580   1475.16     0.0208     0.0013     0.0064     0.0058     0.0236     6.2072     9.2800     0.0143     0.0604
   31    0.600   1476.20     0.0224     0.0017     0.0078     0.0060     0.0255     7.3658     9.6000     0.0159     0.0942
   32    0.620   1477.24     0.0211     0.0014     0.0084     0.0062     0.0246     6.4359     9.9200     0.0147     0.1449
   33    0.640   1482.19     0.0220     0.0015     0.0085     0.0064     0.0255     6.9679    10.2400     0.0153     0.1370
   34    0.660   1495.86     0.0251     0.0017     0.0086     0.0066     0.0287     8.0360    10.5600     0.0181     0.1136
   35    0.680   1509.54     0.0283     0.0016     0.0086     0.0068     0.0319     7.6464    10.8800     0.0210     0.0901
   36    0.700   1517.45     0.0278     0.0018     0.0090     0.0070     0.0315     5.9849    11.2000     0.0203     0.0961
   37    0.720   1518.45     0.0314     0.0017     0.0092     0.0072     0.0353     6.7908    11.5200     0.0238     0.0847
   38    0.740   1519.50     0.0261     0.0018     0.0091     0.0074     0.0300     6.5048    11.8400     0.0182     0.1076
   39    0.760   1520.54     0.0254     0.0018     0.0086     0.0076     0.0291     6.3597    12.1600     0.0169     0.0602
   40    0.780   1521.56     0.0249     0.0015     0.0113     0.0078     0.0288     6.1635    12.4800     0.0163     0.0906
   41    0.800   1522.60     0.0236     0.0016     0.0107     0.0080     0.0282     6.6782    12.8000     0.0154     0.1903
   42    0.820   1523.60     0.0260     0.0015     0.0102     0.0082     0.0302     6.2946    13.1200     0.0171     0.1135
   43    0.840   1524.66     0.0275     0.0018     0.0114     0.0084     0.0321     6.5447    13.4400     0.0186     0.1364
   44    0.860   1525.68     0.0263     0.0016     0.0144     0.0086     0.0320     6.4287    13.7600     0.0183     0.2822
   45    0.880   1526.71     0.0299     0.0016     0.0159     0.0088     0.0364     5.5197    14.0800     0.0223     0.3015
   46    0.900   1527.72     0.0299     0.0018     0.0165     0.0090     0.0369     5.9101    14.4000     0.0225     0.3371
   47    0.920   1528.76     0.0286     0.0014     0.0158     0.0092     0.0353     4.4646    14.7200     0.0206     0.3246
   48    0.940   1529.81     0.0299     0.0017     0.0160     0.0094     0.0366     5.4514    15.0400     0.0215     0.3023
   49    0.960   1530.82     0.0308     0.0015     0.0170     0.0096     0.0378     5.2220    15.3600     0.0224     0.3119
   50    0.980   1531.83     0.0308     0.0015     0.0194     0.0098     0.0385     4.8891    15.6800     0.0228     0.3785
   51    1.000   1532.87     0.0313     0.0016     0.0193     0.0100     0.0396     5.0399    16.0000     0.0236     0.4116
   52    1.020   1533.88     0.0330     0.0019     0.0194     0.0102     0.0412     6.1850    16.3200     0.0249     0.3721
   53    1.040   1534.90     0.0338     0.0021     0.0202     0.0104     0.0421     6.5578    16.6400     0.0255     0.3670
   54    1.060   1535.93     0.0334     0.0020     0.0203     0.0106     0.0419     6.0286    16.9600     0.0249     0.3802
   55    1.080   1536.95     0.0346     0.0020     0.0211     0.0108     0.0434     5.8357    17.2800     0.0261     0.3916
   56    1.100   1537.98     0.0344     0.0019     0.0211     0.0110     0.0432     5.5453    17.6000     0.0256     0.3879
   57    1.120   1539.03     0.0343     0.0017     0.0230     0.0112     0.0437     4.9513    17.9200     0.0258     0.4314
   58    1.140   1540.04     0.0379     0.0020     0.0239     0.0114     0.0479     5.3815    18.2400     0.0297     0.4161
   59    1.160   1541.07     0.0416     0.0021     0.0243     0.0116     0.0519     5.3058    18.5600     0.0333     0.3886
   60    1.180   1542.12     0.0533     0.0019     0.0230     0.0118     0.0633     4.2621    18.8800     0.0444     0.2706
   61    1.200   1543.18     0.0623     0.0021     0.0139     0.0120     0.0700     4.0960    19.2000     0.0508     0.1273
   62    1.220   1544.20     0.0606     0.0022     0.0093     0.0122     0.0645     3.9299    19.5200     0.0450    -0.0639
   63    1.240   1545.25     0.0550     0.0023     0.0100     0.0124     0.0591     3.9229    19.8400     0.0392    -0.0707
   64    1.260   1546.28     0.0488     0.0023     0.0097     0.0126     0.0532     4.4834    20.1600     0.0331    -0.0642
   65    1.280   1547.30     0.0429     0.0022     0.0106     0.0128     0.0468     5.1499    20.4800     0.0263    -0.1357
   66    1.300   1550.07     0.0390     0.0020     0.0143     0.0130     0.0445     4.7906    20.8000     0.0237     0.0412
   67    1.320   1553.10     0.0347     0.0019     0.0181     0.0132     0.0417     4.5056    21.1200     0.0206     0.2219
   68    1.340   1556.00     0.0302     0.0018     0.0208     0.0134     0.0388     4.4258    21.4400     0.0173     0.4060
   69    1.360   1557.04     0.0285     0.0016     0.0216     0.0136     0.0373     5.6639    21.7600     0.0155     0.4754
   70    1.380   1558.05     0.0321     0.0016     0.0228     0.0138     0.0416     5.2690    22.0800     0.0195     0.4541
   71    1.400   1559.09     0.0352     0.0022     0.0227     0.0140     0.0448     6.5325    22.4000     0.0224     0.3997
   72    1.420   1560.11     0.0395     0.0021     0.0225     0.0142     0.0491     5.5182    22.7200     0.0264     0.3322
   73    1.440   1561.14     0.0416     0.0020     0.0213     0.0144     0.0509     4.8961    23.0400     0.0279     0.2802
   74    1.460   1562.19     0.0444     0.0023     0.0185     0.0146     0.0529     5.2580    23.3600     0.0296     0.1967
   75    1.480   1563.19     0.0496     0.0023     0.0172     0.0148     0.0562     4.7651    23.6800     0.0326     0.0270
   76    1.500   1564.24     0.0462     0.0023     0.0205     0.0150     0.0544     4.5812    24.0000     0.0304     0.1486
   77    1.520   1565.29     0.0438     0.0023     0.0222     0.0152     0.0529     5.2183    24.3200     0.0286     0.2300
   78    1.540   1566.31     0.0457     0.0024     0.0210     0.0154     0.0547     5.4822    24.6400     0.0300     0.2027
   79    1.560   1567.37     0.0449     0.0024     0.0216     0.0156     0.0541     5.4217    24.9600     0.0291     0.2145
   80    1.580   1568.40     0.0465     0.0025     0.0213     0.0158     0.0549     5.3774    25.2800     0.0296     0.1449
   81    1.600   1569.41     0.0528     0.0022     0.0176     0.0160     0.0606     4.6993    25.6000     0.0350     0.0757
   82    1.620   1570.47     0.0631     0.0025     0.0191     0.0162     0.0710     4.4225    25.9200     0.0451     0.0565
   83    1.640   1571.52     0.0608     0.0020     0.0225     0.0164     0.0695     3.0887    26.2400     0.0432     0.0982
   84    1.660   1572.54     0.0537     0.0022     0.0236     0.0166     0.0632     4.0506    26.5600     0.0367     0.1672
   85    1.680   1573.59     0.0572     0.0028     0.0266     0.0168     0.0678     5.0413    26.8800     0.0409     0.2010
   86    1.700   1574.63     0.0590     0.0027     0.0294     0.0170     0.0713     4.6631    27.2000     0.0441     0.2776
   87    1.720   1575.66     0.0603     0.0027     0.0312     0.0172     0.0730     4.4924    27.5200     0.0454     0.2831
   88    1.740   1576.70     0.0614     0.0027     0.0338     0.0174     0.0750     4.4564    27.8400     0.0471     0.3159
   89    1.760   1577.74     0.0598     0.0026     0.0365     0.0176     0.0748     4.2455    28.1600     0.0466     0.3890
   90    1.780   1578.76     0.0584     0.0026     0.0391     0.0178     0.0745     4.2754    28.4800     0.0460     0.4475
   91    1.800   1579.80     0.0550     0.0027     0.0408     0.0180     0.0719     5.0084    28.8000     0.0431     0.5136
   92    1.820   1580.84     0.0555     0.0026     0.0413     0.0182     0.0727     4.7247    29.1200     0.0436     0.5209
   93    1.840   1581.86     0.0587     0.0028     0.0419     0.0184     0.0763     4.9657    29.4400     0.0468     0.5032
   94    1.860   1582.89     0.0609     0.0026     0.0423     0.0186     0.0785     4.1967    29.7600     0.0488     0.4796
   95    1.880   1583.91     0.0817     0.0030     0.0410     0.0188     0.0991     4.4154    30.0800     0.0690     0.3286
   96    1.900   1584.94     0.0863     0.0027     0.0389     0.0190     0.1021     3.2482    30.4000     0.0717     0.2611
   97    1.920   1585.96     0.0861     0.0027     0.0363     0.0192     0.1012     3.2122    30.7200     0.0705     0.2408
   98    1.940   1586.98     0.0773     0.0031     0.0414     0.0194     0.0945     3.6180    31.0400     0.0634     0.3376
   99    1.960   1588.02     0.0755     0.0031     0.0479     0.0196     0.0950     4.1471    31.3600     0.0636     0.4212
  100    1.980   1589.07     0.0777     0.0031     0.0501     0.0198     0.0983     3.9758    31.6800     0.0666     0.4409
  101    2.000   1590.09     0.0800     0.0032     0.0507     0.0200     0.1010     4.2503    32.0000     0.0690     0.4358
  102    2.020   1591.13     0.0929     0.0035     0.0529     0.0202     0.1148     4.0486    32.3200     0.0825     0.3895
  103    2.040   1592.14     0.1003     0.0036     0.0548     0.0204     0.1230     3.5927    32.6400     0.0904     0.3721
  104    2.060   1593.17     0.1036     0.0036     0.0530     0.0206     0.1262     3.5974    32.9600     0.0932     0.3572
  105    2.080   1594.22     0.1107     0.0036     0.0455     0.0208     0.1313     3.4336    33.2800     0.0980     0.2876
  106    2.100   1595.24     0.1102     0.0037     0.0395     0.0210     0.1254     3.1429    33.6000     0.0918     0.1668
  107    2.120   1596.29     0.0888     0.0037     0.0584     0.0212     0.1118     3.8395    33.9200     0.0779     0.4313
  108    2.140   1597.31     0.0882     0.0038     0.0574     0.0214     0.1124     4.2577    34.2400     0.0782     0.4627
  109    2.160   1598.34     0.0885     0.0038     0.0576     0.0216     0.1125     4.2314    34.5600     0.0779     0.4545
  110    2.180   1599.41     0.0867     0.0040     0.0595     0.0218     0.1114     4.7209    34.8800     0.0766     0.4858
  111    2.200   1600.44     0.0857     0.0039     0.0604     0.0220     0.1108     4.5448    35.2000     0.0756     0.4971
  112    2.220   1601.45     0.0860     0.0041     0.0618     0.0222     0.1119     4.7925    35.5200     0.0764     0.5187
  113    2.240   1602.48     0.0891     0.0042     0.0615     0.0224     0.1152     4.6376    35.8400     0.0793     0.4993
  114    2.260   1603.53     0.0911     0.0043     0.0611     0.0226     0.1172     4.7548    36.1600     0.0810     0.4885
  115    2.280   1604.59     0.0923     0.0042     0.0605     0.0228     0.1178     4.6366    36.4800     0.0814     0.4678
  116    2.300   1605.59     0.0893     0.0042     0.0578     0.0230     0.1139     4.7030    36.8000     0.0771     0.4616
  117    2.320   1606.64     0.0890     0.0041     0.0622     0.0232     0.1145     4.5239    37.1200     0.0773     0.4852
  118    2.340   1607.66     0.0883     0.0041     0.0633     0.0234     0.1145     4.6473    37.4400     0.0771     0.5081
  119    2.360   1608.68     0.0886     0.0043     0.0647     0.0236     0.1159     4.8538    37.7600     0.0781     0.5290
  120    2.380   1609.71     0.0909     0.0043     0.0645     0.0238     0.1180     4.9174    38.0800     0.0799     0.5112
  121    2.400   1610.75     0.0925     0.0040     0.0640     0.0240     0.1196     4.2663    38.4000     0.0812     0.4972
  122    2.420   1611.75     0.0904     0.0038     0.0637     0.0242     0.1173     4.0952    38.7200     0.0785     0.5051
  123    2.440   1612.78     0.0912     0.0038     0.0642     0.0244     0.1178     4.2842    39.0400     0.0788     0.4933
  124    2.460   1613.80     0.0823     0.0036     0.0682     0.0246     0.1107     4.0913    39.3600     0.0713     0.6012
  125    2.480   1614.84     0.0810     0.0036     0.0702     0.0248     0.1105     4.4261    39.6800     0.0708     0.6396
  126    2.500   1615.85     0.0813     0.0035     0.0702     0.0250     0.1107     4.2443    40.0000     0.0707     0.6380
  127    2.520   1616.90     0.0810     0.0035     0.0678     0.0252     0.1097     4.3075    40.3200     0.0694     0.6208
  128    2.540   1617.92     0.0821     0.0037     0.0679     0.0254     0.1104     4.4089    40.6400     0.0698     0.6044
  129    2.560   1618.93     0.0845     0.0038     0.0687     0.0256     0.1132     4.5103    40.9600     0.0722     0.5901
  130    2.580   1620.00     0.0839     0.0037     0.0698     0.0258     0.1130     4.3772    41.2800     0.0717     0.6058
  131    2.600   1621.01     0.0884     0.0041     0.0672     0.0260     0.1161     4.8202    41.6000     0.0745     0.5377
  132    2.620   1623.24     0.0868     0.0041     0.0682     0.0262     0.1157     4.7461    41.9200     0.0738     0.5776
  133    2.640   1639.14     0.0845     0.0038     0.0662     0.0264     0.1126     4.3577    42.2400     0.0703     0.5750
  134    2.660   1655.03     0.0822     0.0042     0.0642     0.0266     0.1094     4.8719    42.5600     0.0669     0.5724
  135    2.680   1663.06     0.0798     0.0038     0.0650     0.0268     0.1069     4.7422    42.8800     0.0641     0.5903
  136    2.700   1664.11     0.0819     0.0040     0.0665     0.0270     0.1096     4.8859    43.2000     0.0664     0.5866
  137    2.720   1665.16     0.0816     0.0041     0.0683     0.0272     0.1101     5.0381    43.5200     0.0666     0.6097
  138    2.740   1666.20     0.0889     0.0041     0.0696     0.0274     0.1180     4.8437    43.8400     0.0742     0.5653
  139    2.760   1667.23     0.0933     0.0044     0.0687     0.0276     0.1223     4.6797    44.1600     0.0782     0.5309
  140    2.780   1668.25     0.0960     0.0046     0.0654     0.0278     0.1240     4.9632    44.4800     0.0796     0.4903
  141    2.800   1669.31     0.0957     0.0046     0.0649     0.0280     0.1231     4.8559    44.8000     0.0783     0.4769
  142    2.820   1670.31     0.0986     0.0051     0.0627     0.0282     0.1250     5.1317    45.1200     0.0799     0.4337
  143    2.840   1671.34     0.0936     0.0049     0.0642     0.0284     0.1203     5.2235    45.4400     0.0748     0.4692
  144    2.860   1672.37     0.0918     0.0051     0.0643     0.0286     0.1189     5.5154    45.7600     0.0731     0.4903
  145    2.880   1673.38     0.0891     0.0048     0.0660     0.0288     0.1165     5.3302    46.0800     0.0704     0.5159
  146    2.900   1674.40     0.0889     0.0048     0.0691     0.0290     0.1174     5.5179    46.4000     0.0710     0.5465
  147    2.920   1675.37     0.0862     0.0045     0.0727     0.0292     0.1162     5.2331    46.7200     0.0695     0.6091
  148    2.940   1676.40     0.0904     0.0045     0.0740     0.0294     0.1212     5.2135    47.0400     0.0742     0.5934
  149    2.960   1677.40     0.0889     0.0044     0.0770     0.0296     0.1205     4.9559    47.3600     0.0732     0.6235
  150    2.980   1678.47     0.0882     0.0045     0.0767     0.0298     0.1208     5.1835    47.6800     0.0731     0.6554
  151    3.000   1679.51     0.0880     0.0044     0.0765     0.0300     0.1198     4.7800    48.0000     0.0718     0.6360
  152    3.020   1680.53     0.0922     0.0045     0.0764     0.0302     0.1242     4.9905    48.3200     0.0758     0.6050
  153    3.040   1681.56     0.0923     0.0045     0.0775     0.0304     0.1247     4.8453    48.6400     0.0760     0.6154
  154    3.060   1682.59     0.0910     0.0043     0.0774     0.0306     0.1235     4.6662    48.9600     0.0745     0.6285
  155    3.080   1683.61     0.0954     0.0046     0.0779     0.0308     0.1278     4.8533    49.2800     0.0785     0.5922
  156    3.100   1684.65     0.0940     0.0047     0.0772     0.0310     0.1263     5.0769    49.6000     0.0767     0.5988
  157    3.120   1685.68     0.0929     0.0049     0.0768     0.0312     0.1252     5.3059    49.9200     0.0753     0.6098
  158    3.140   1686.73     0.0974     0.0048     0.0782     0.0314     0.1300     4.9926    50.2400     0.0798     0.5809
  159    3.160   1687.76     0.0994     0.0048     0.0783     0.0316     0.1321     4.9792    50.5600     0.0816     0.5685
  160    3.180   1688.79     0.0979     0.0047     0.0768     0.0318     0.1305     4.7538    50.8800     0.0796     0.5734
  161    3.200   1689.81     0.0990     0.0048     0.0770     0.0320     0.1314     4.8523    51.2000     0.0802     0.5613
  162    3.220   1690.87     0.0960     0.0049     0.0778     0.0322     0.1284     5.0828    51.5200     0.0769     0.5865
  163    3.240   1691.90     0.0982     0.0047     0.0789     0.0324     0.1312     4.8187    51.8400     0.0794     0.5827
  164    3.260   1692.90     0.1017     0.0050     0.0769     0.0326     0.1346     4.9077    52.1600     0.0824     0.5541
  165    3.280   1693.95     0.1040     0.0050     0.0788     0.0328     0.1365     4.7852    52.4800     0.0840     0.5301
  166    3.300   1695.00     0.0987     0.0053     0.0793     0.0330     0.1320     5.1791    52.8000     0.0792     0.5869
  167    3.320   1696.01     0.0980     0.0054     0.0765     0.0332     0.1307     5.4354    53.1200     0.0776     0.5745
  168    3.340   1697.01     0.1010     0.0057     0.0767     0.0334     0.1333     5.5477    53.4400     0.0798     0.5438
  169    3.360   1698.08     0.0960     0.0057     0.0769     0.0336     0.1283     5.8667    53.7600     0.0746     0.5820
  170    3.380   1699.11     0.0922     0.0057     0.0795     0.0338     0.1250     6.0191    54.0800     0.0709     0.6245
  171    3.400   1700.11     0.0885     0.0056     0.0819     0.0340     0.1231     6.2413    54.4000     0.0687     0.7048
  172    3.420   1701.14     0.0881     0.0055     0.0834     0.0342     0.1227     6.2315    54.7200     0.0680     0.7082
  173    3.440   1702.16     0.0850     0.0051     0.0881     0.0344     0.1214     5.8718    55.0400     0.0664     0.7887
  174    3.460   1703.20     0.0880     0.0050     0.0915     0.0346     0.1260     5.7706    55.3600     0.0707     0.7930
  175    3.480   1704.23     0.0897     0.0046     0.0936     0.0348     0.1286     5.1261    55.6800     0.0729     0.7933
  176    3.500   1705.24     0.0923     0.0047     0.0943     0.0350     0.1319     5.2680    56.0000     0.0759     0.7800
  177    3.520   1706.31     0.0981     0.0050     0.0930     0.0352     0.1375     5.3340    56.3200     0.0812     0.7220
  178    3.540   1707.30     0.0997     0.0053     0.0899     0.0354     0.1379     5.4010    56.6400     0.0813     0.6842
  179    3.560   1708.32     0.1008     0.0052     0.0870     0.0356     0.1377     5.1564    56.9600     0.0808     0.6488
  180    3.580   1709.37     0.0991     0.0051     0.0848     0.0358     0.1349     5.2283    57.2800     0.0776     0.6381
  181    3.600   1710.41     0.1032     0.0051     0.0871     0.0360     0.1393     4.9554    57.6000     0.0817     0.6129
  182    3.620   1711.43     0.0999     0.0052     0.0878     0.0362     0.1370     5.0987    57.9200     0.0791     0.6577
  183    3.640   1712.46     0.1005     0.0055     0.0887     0.0364     0.1377     5.4374    58.2400     0.0794     0.6574
  184    3.660   1713.48     0.1020     0.0057     0.0845     0.0366     0.1382     5.6275    58.5600     0.0796     0.6224
  185    3.680   1714.53     0.1022     0.0057     0.0791     0.0368     0.1363     5.4189    58.8800     0.0774     0.5714
  186    3.700   1715.57     0.0986     0.0056     0.0781     0.0370     0.1315     5.5809    59.2000     0.0723     0.5726
  187    3.720   1716.59     0.0993     0.0058     0.0776     0.0372     0.1320     5.8448    59.5200     0.0724     0.5603
  188    3.740   1717.66     0.0959     0.0058     0.0824     0.0374     0.1296     5.9434    59.8400     0.0697     0.6131
  189    3.760   1718.69     0.0970     0.0059     0.0878     0.0376     0.1331     6.0637    60.1600     0.0729     0.6631
  190    3.780   1719.73     0.1038     0.0057     0.0922     0.0378     0.1420     5.6977    60.4800     0.0815     0.6524
  191    3.800   1720.74     0.1083     0.0053     0.0960     0.0380     0.1481     5.0094    60.8000     0.0873     0.6510
  192    3.820   1721.77     0.1090     0.0051     0.0973     0.0382     0.1499     4.6384    61.1200     0.0888     0.6657
  193    3.840   1722.83     0.1096     0.0053     0.0973     0.0384     0.1504     4.8480    61.4400     0.0889     0.6595
  194    3.860   1723.85     0.1082     0.0052     0.0984     0.0386     0.1494     4.6614    61.7600     0.0876     0.6795
  195    3.880   1724.88     0.1071     0.0050     0.1006     0.0388     0.1492     4.6297    62.0800     0.0871     0.7037
  196    3.900   1725.90     0.1093     0.0051     0.1023     0.0390     0.1521     4.6265    62.4000     0.0897     0.7001
  197    3.920   1726.96     0.1121     0.0052     0.1019     0.0392     0.1547     4.5816    62.7200     0.0920     0.6770
  198    3.940   1727.94     0.1110     0.0056     0.1018     0.0394     0.1533     4.9583    63.0400     0.0903     0.6789
  199    3.960   1728.96     0.1117     0.0051     0.0998     0.0396     0.1535     4.6739    63.3600     0.0902     0.6659
  200    3.980   1729.99     0.1153     0.0053     0.1005     0.0398     0.1574     4.7647    63.6800     0.0937     0.6445
  201    4.000   1731.03     0.1182     0.0054     0.1026     0.0400     0.1612     4.5188    64.0000     0.0972     0.6417
  202    4.020   1732.08     0.1275     0.0058     0.1055     0.0402     0.1709     4.7242    64.3200     0.1066     0.5923
  203    4.040   1733.08     0.1360     0.0060     0.0982     0.0404     0.1793     4.5281    64.6400     0.1146     0.5464
  204    4.060   1734.11     0.1425     0.0065     0.0948     0.0406     0.1823     4.6547    64.9600     0.1173     0.4617
  205    4.080   1735.13     0.1458     0.0066     0.0893     0.0408     0.1842     4.5707    65.2800     0.1189     0.4255
  206    4.100   1736.19     0.1475     0.0070     0.0869     0.0410     0.1837     4.7945    65.6000     0.1181     0.3836
  207    4.120   1737.23     0.1460     0.0068     0.0920     0.0412     0.1840     4.5680    65.9200     0.1181     0.4178
  208    4.140   1738.27     0.1408     0.0068     0.0944     0.0414     0.1800     4.8180    66.2400     0.1138     0.4569
  209    4.160   1739.29     0.1383     0.0067     0.0998     0.0416     0.1800     4.8996    66.5600     0.1134     0.5085
  210    4.180   1740.34     0.1395     0.0063     0.1016     0.0418     0.1816     4.5243    66.8800     0.1147     0.5097
  211    4.200   1741.37     0.1392     0.0061     0.1042     0.0420     0.1826     4.4233    67.2000     0.1154     0.5318
  212    4.220   1742.41     0.1382     0.0062     0.1050     0.0422     0.1824     4.5802    67.5200     0.1149     0.5486
  213    4.240   1743.46     0.1368     0.0060     0.1049     0.0424     0.1808     4.2702    67.8400     0.1130     0.5522
  214    4.260   1744.49     0.1402     0.0055     0.1075     0.0426     0.1848     3.9420    68.1600     0.1166     0.5451
  215    4.280   1745.51     0.1459     0.0059     0.1057     0.0428     0.1908     4.1201    68.4800     0.1224     0.5254
  216    4.300   1746.56     0.1421     0.0059     0.1026     0.0430     0.1851     4.1351    68.8000     0.1163     0.5105
  217    4.320   1747.57     0.1397     0.0059     0.1030     0.0432     0.1826     4.1565    69.1200     0.1135     0.5203
  218    4.340   1748.64     0.1449     0.0059     0.1050     0.0434     0.1898     4.1854    69.4400     0.1203     0.5283
  219    4.360   1749.62     0.1662     0.0056     0.0824     0.0436     0.2063     3.5982    69.7600     0.1366     0.3815
  220    4.380   1750.66     0.1686     0.0057     0.1023     0.0438     0.2068     3.2036    70.0800     0.1368     0.3553
  221    4.400   1751.69     0.1443     0.0054     0.1070     0.0440     0.1890     3.7420    70.4000     0.1186     0.5258
  222    4.420   1752.70     0.1480     0.0057     0.1104     0.0442     0.1939     3.8901    70.7200     0.1232     0.5294
  223    4.440   1753.72     0.1542     0.0057     0.1072     0.0444     0.1997     3.7603    71.0400     0.1287     0.4977
  224    4.460   1754.73     0.1515     0.0056     0.1100     0.0446     0.1972     3.7091    71.3600     0.1259     0.5114
  225    4.480   1755.78     0.1569     0.0060     0.1121     0.0448     0.2037     3.8250    71.6800     0.1321     0.5057
  226    4.500   1756.81     0.1569     0.0061     0.1098     0.0450     0.2036     3.8771    72.0000     0.1316     0.5020
  227    4.520   1757.84     0.1560     0.0063     0.1112     0.0452     0.2030     3.9866    72.3200     0.1307     0.5107
  228    4.540   1758.86     0.1517     0.0062     0.1082     0.0454     0.1972     4.0928    72.6400     0.1245     0.5050
  229    4.560   1759.89     0.1491     0.0062     0.1076     0.0456     0.1944     4.2240    72.9600     0.1215     0.5139
  230    4.580   1760.91     0.1449     0.0064     0.1094     0.0458     0.1899     4.3704    73.2800     0.1166     0.5255
  231    4.600   1761.93     0.1413     0.0058     0.1128     0.0460     0.1877     4.1592    73.6000     0.1141     0.5664
  232    4.620   1762.98     0.1360     0.0059     0.1174     0.0462     0.1847     4.1709    73.9200     0.1107     0.6300
  233    4.640   1764.00     0.1437     0.0057     0.1202     0.0464     0.1940     4.0069    74.2400     0.1198     0.6130
  234    4.660   1765.05     0.1426     0.0054     0.1232     0.0466     0.1942     3.8309    74.5600     0.1196     0.6361
  235    4.680   1766.08     0.1459     0.0055     0.1211     0.0468     0.1974     3.8571    74.8800     0.1225     0.6186
  236    4.700   1767.15     0.1525     0.0054     0.1216     0.0470     0.2033     3.5417    75.2000     0.1281     0.5768
  237    4.720   1770.33     0.1499     0.0057     0.1200     0.0472     0.2009     3.7428    75.5200     0.1254     0.5916
  238    4.740   1782.18     0.1484     0.0058     0.1159     0.0474     0.1977     3.8928    75.8400     0.1219     0.5730
  239    4.760   1794.03     0.1469     0.0060     0.1126     0.0476     0.1945     4.0130    76.1600     0.1183     0.5545
  240    4.780   1797.30     0.1487     0.0060     0.1104     0.0478     0.1955     4.1109    76.4800     0.1190     0.5339
  241    4.800   1798.35     0.1472     0.0057     0.1105     0.0480     0.1933     3.9008    76.8000     0.1165     0.5293
  242    4.820   1799.41     0.1472     0.0057     0.1138     0.0482     0.1944     3.8626    77.1200     0.1173     0.5476
  243    4.840   1800.44     0.1447     0.0055     0.1162     0.0484     0.1933     3.6897    77.4400     0.1159     0.5817
  244    4.860   1801.44     0.1410     0.0052     0.1168     0.0486     0.1900     3.6019    77.7600     0.1122     0.6050
  245    4.880   1802.47     0.1404     0.0048     0.1152     0.0488     0.1895     3.4049    78.0800     0.1114     0.6099
  246    4.900   1803.49     0.1354     0.0047     0.1105     0.0490     0.1821     3.3288    78.4000     0.1037     0.6002
  247    4.920   1804.52     0.1339     0.0049     0.1098     0.0492     0.1801     3.5976    78.7200     0.1013     0.5987
  248    4.940   1805.55     0.1298     0.0052     0.1066     0.0494     0.1753     3.9927    79.0400     0.0963     0.6124
  249    4.960   1806.53     0.1242     0.0048     0.1045     0.0496     0.1681     3.8330    79.3600     0.0888     0.6193
  250    4.980   1807.59     0.1221     0.0050     0.1030     0.0498     0.1656     4.0380    79.6800     0.0859     0.6254
  251    5.000   1808.63     0.1164     0.0046     0.1074     0.0500     0.1610     3.8587    80.0000     0.0810     0.6942
  252    5.020   1809.66     0.1163     0.0049     0.1130     0.0502     0.1628     4.1797    80.3200     0.0825     0.7327
  253    5.040   1810.67     0.1179     0.0047     0.1177     0.0504     0.1666     4.0490    80.6400     0.0860     0.7635
  254    5.060   1811.69     0.1251     0.0046     0.1208     0.0506     0.1753     3.7405    80.9600     0.0944     0.7308
  255    5.080   1812.70     0.1307     0.0046     0.1227     0.0508     0.1820     3.5834    81.2800     0.1007     0.7082
  256    5.100   1813.75     0.1403     0.0048     0.1219     0.0510     0.1920     3.5782    81.6000     0.1104     0.6537
  257    5.120   1814.73     0.1455     0.0051     0.1211     0.0512     0.1966     3.5894    81.9200     0.1147     0.6148
  258    5.140   1815.80     0.1563     0.0053     0.1200     0.0514     0.2067     3.4480    82.2400     0.1244     0.5512
  259    5.160   1816.84     0.1623     0.0056     0.1223     0.0516     0.2135     3.5267    82.5600     0.1309     0.5365
  260    5.180   1817.92     0.1734     0.0062     0.1195     0.0518     0.2241     3.6846    82.8800     0.1413     0.4882
  261    5.200   1818.94     0.1721     0.0064     0.1178     0.0520     0.2226     3.7343    83.2000     0.1394     0.4903
  262    5.220   1819.94     0.1813     0.0066     0.1106     0.0522     0.2292     3.6786    83.5200     0.1457     0.4242
  263    5.240   1820.97     0.1851     0.0065     0.1082     0.0524     0.2310     3.5565    83.8400     0.1471     0.3854
  264    5.260   1822.00     0.1865     0.0071     0.1128     0.0526     0.2332     3.8459    84.1600     0.1491     0.3934
  265    5.280   1823.05     0.1938     0.0073     0.1139     0.0528     0.2417     3.7870    84.4800     0.1572     0.3886
  266    5.300   1824.07     0.1969     0.0072     0.1124     0.0530     0.2443     3.6593    84.8000     0.1595     0.3759
  267    5.320   1825.09     0.2014     0.0075     0.1064     0.0532     0.2466     3.7599    85.1200     0.1615     0.3370
  268    5.340   1826.15     0.2049     0.0078     0.1076     0.0534     0.2500     3.7964    85.4400     0.1646     0.3284
  269    5.360   1827.14     0.2039     0.0079     0.1134     0.0536     0.2506     3.8657    85.7600     0.1648     0.3486
  270    5.380   1828.18     0.2038     0.0082     0.1138     0.0538     0.2521     4.0014    86.0800     0.1660     0.3685
  271    5.400   1829.20     0.2054     0.0080     0.1169     0.0540     0.2538     3.8857    86.4000     0.1674     0.3666
  272    5.420   1830.24     0.2033     0.0078     0.1187     0.0542     0.2531     3.8360    86.7200     0.1664     0.3869
  273    5.440   1831.23     0.2009     0.0078     0.1207     0.0544     0.2515     3.8644    87.0400     0.1644     0.4016
  274    5.460   1832.27     0.1974     0.0076     0.1219     0.0546     0.2482     3.8439    87.3600     0.1608     0.4126
  275    5.480   1833.22     0.1936     0.0075     0.1254     0.0548     0.2459     3.8602    87.6800     0.1582     0.4413
  276    5.500   1834.22     0.1942     0.0070     0.1245     0.0550     0.2464     3.5919    88.0000     0.1584     0.4375
  277    5.520   1835.25     0.1907     0.0068     0.1291     0.0552     0.2440     3.5109    88.3200     0.1557     0.4611
  278    5.540   1836.28     0.1903     0.0069     0.1337     0.0554     0.2460     3.6370    88.6400     0.1573     0.4904
  279    5.560   1837.32     0.1875     0.0067     0.1352     0.0556     0.2442     3.5665    88.9600     0.1552     0.5110
  280    5.580   1838.32     0.1920     0.0065     0.1351     0.0558     0.2488     3.4168    89.2800     0.1595     0.4974
  281    5.600   1839.35     0.1951     0.0064     0.1366     0.0560     0.2523     3.3531    89.6000     0.1627     0.4935
  282    5.620   1840.40     0.1996     0.0068     0.1350     0.0562     0.2567     3.4421    89.9200     0.1668     0.4784
  283    5.640   1841.45     0.2000     0.0067     0.1345     0.0564     0.2563     3.3497    90.2400     0.1660     0.4673
  284    5.660   1842.44     0.2010     0.0070     0.1337     0.0566     0.2569     3.4789    90.5600     0.1664     0.4600
  285    5.680   1843.50     0.2094     0.0070     0.1336     0.0568     0.2658     3.3939    90.8800     0.1749     0.4436
  286    5.700   1844.52     0.2053     0.0068     0.1342     0.0570     0.2615     3.3435    91.2000     0.1703     0.4514
  287    5.720   1845.60     0.2101     0.0070     0.1322     0.0572     0.2643     3.4101    91.5200     0.1727     0.4160
  288    5.740   1846.51     0.2106     0.0071     0.1326     0.0574     0.2659     3.4188    91.8400     0.1741     0.4269
  289    5.760   1847.30     0.2081     0.0071     0.1340     0.0576     0.2642     3.4217    92.1600     0.1720     0.4417
  290    5.780   1848.15     0.2074     0.0072     0.1333     0.0578     0.2638     3.5171    92.4800     0.1713     0.4467
  291    5.800   1849.17     0.2116     0.0074     0.1290     0.0580     0.2663     3.5477    92.8000     0.1735     0.4171
  292    5.820   1850.18     0.2130     0.0076     0.1256     0.0582     0.2664     3.5501    93.1200     0.1733     0.3975
  293    5.840   1851.20     0.2142     0.0078     0.1227     0.0584     0.2660     3.6169    93.4400     0.1726     0.3763
  294    5.860   1852.25     0.2119     0.0083     0.1213     0.0586     0.2632     3.8793    93.7600     0.1694     0.3744
  295    5.880   1853.22     0.2152     0.0086     0.1213     0.0588     0.2657     4.0356    94.0800     0.1716     0.3584
  296    5.900   1854.28     0.2157     0.0086     0.1198     0.0590     0.2663     3.9767    94.4000     0.1719     0.3575
  297    5.920   1855.31     0.2199     0.0089     0.1193     0.0592     0.2703     4.0683    94.7200     0.1756     0.3462
  298    5.940   1856.30     0.2235     0.0091     0.1167     0.0594     0.2729     4.0907    95.0400     0.1778     0.3265
  299    5.960   1857.30     0.2231     0.0086     0.1170     0.0596     0.2720     3.8382    95.3600     0.1767     0.3226
  300    5.980   1858.33     0.2217     0.0090     0.1182     0.0598     0.2711     4.0443    95.6800     0.1754     0.3299
  301    6.000   1859.36     0.2187     0.0087     0.1200     0.0600     0.2687     3.9589    96.0000     0.1727     0.3420
  302    6.020   1860.39     0.2165     0.0079     0.1227     0.0602     0.2676     3.6205    96.3200     0.1713     0.3586
  303    6.040   1861.37     0.2089     0.0080     0.1286     0.0604     0.2620     3.7403    96.6400     0.1654     0.4003
  304    6.060   1862.40     0.2079     0.0072     0.1331     0.0606     0.2631     3.5215    96.9600     0.1661     0.4259
  305    6.080   1863.40     0.2054     0.0072     0.1363     0.0608     0.2623     3.4563    97.2800     0.1650     0.4527
  306    6.100   1864.48     0.2070     0.0072     0.1396     0.0610     0.2656     3.5099    97.6000     0.1680     0.4673
  307    6.120   1865.51     0.2114     0.0074     0.1367     0.0612     0.2701     3.5473    97.9200     0.1722     0.4561
  308    6.140   1866.50     0.2107     0.0070     0.1356     0.0614     0.2672     3.2529    98.2400     0.1689     0.4323
  309    6.160   1867.53     0.2078     0.0073     0.1367     0.0616     0.2650     3.5128    98.5600     0.1664     0.4480
  310    6.180   1868.59     0.2072     0.0070     0.1423     0.0618     0.2658     3.3998    98.8800     0.1669     0.4656
  311    6.200   1869.61     0.2092     0.0068     0.1478     0.0620     0.2706     3.2814    99.2000     0.1714     0.4903
  312    6.220   1870.64     0.2134     0.0068     0.1514     0.0622     0.2764     3.2147    99.5200     0.1769     0.4967
  313    6.240   1871.69     0.2186     0.0068     0.1505     0.0624     0.2822     3.1476    99.8400     0.1824     0.4885
  314    6.260   1872.72     0.2184     0.0068     0.1521     0.0626     0.2818     3.0686   100.1600     0.1816     0.4868
  315    6.280   1873.76     0.2208     0.0072     0.1502     0.0628     0.2843     3.2931   100.4800     0.1838     0.4809
  316    6.300   1874.78     0.2242     0.0070     0.1463     0.0630     0.2863     3.1749   100.8000     0.1855     0.4565
  317    6.320   1875.83     0.2232     0.0068     0.1434     0.0632     0.2837     3.0259   101.1200     0.1826     0.4429
  318    6.340   1876.84     0.2178     0.0071     0.1453     0.0634     0.2784     3.2326   101.4400     0.1770     0.4570
  319    6.360   1877.85     0.2147     0.0070     0.1448     0.0636     0.2756     3.2886   101.7600     0.1738     0.4675
  320    6.380   1878.90     0.2070     0.0069     0.1467     0.0638     0.2681     3.2528   102.0800     0.1661     0.4928
  321    6.400   1879.88     0.2050     0.0064     0.1489     0.0640     0.2674     3.0881   102.4000     0.1650     0.5119
  322    6.420   1880.93     0.1990     0.0066     0.1485     0.0642     0.2620     3.2981   102.7200     0.1593     0.5396
  323    6.440   1881.93     0.1945     0.0064     0.1424     0.0644     0.2554     3.2490   103.0400     0.1523     0.5288
  324    6.460   1882.96     0.1910     0.0064     0.1417     0.0646     0.2504     3.3510   103.3600     0.1470     0.5219
  325    6.480   1884.01     0.1856     0.0064     0.1406     0.0648     0.2451     3.3891   103.6800     0.1414     0.5423
  326    6.500   1885.03     0.1774     0.0064     0.1423     0.0650     0.2367     3.5666   104.0000     0.1327     0.5740
  327    6.520   1886.03     0.1729     0.0061     0.1463     0.0652     0.2337     3.4589   104.3200     0.1294     0.6158
  328    6.540   1887.07     0.1755     0.0061     0.1502     0.0654     0.2378     3.4541   104.6400     0.1332     0.6239
  329    6.560   1888.11     0.1823     0.0066     0.1546     0.0656     0.2466     3.5771   104.9600     0.1416     0.6180
  330    6.580   1889.12     0.1930     0.0071     0.1566     0.0658     0.2586     3.7002   105.2800     0.1533     0.5904
  331    6.600   1890.16     0.2022     0.0076     0.1552     0.0660     0.2676     3.8232   105.6000     0.1620     0.5532
  332    6.620   1891.20     0.2108     0.0077     0.1529     0.0662     0.2750     3.6931   105.9200     0.1691     0.5131
  333    6.640   1892.21     0.2193     0.0081     0.1514     0.0664     0.2834     3.6975   106.2400     0.1772     0.4868
  334    6.660   1905.47     0.2264     0.0083     0.1469     0.0666     0.2888     3.7642   106.5600     0.1822     0.4514
  335    6.680   1922.63     0.2339     0.0086     0.1425     0.0668     0.2944     3.9029   106.8800     0.1875     0.4149
  336    6.700   1939.79     0.2414     0.0092     0.1380     0.0670     0.3000     4.1781   107.2000     0.1928     0.3784
  337    6.720   1952.66     0.2476     0.0087     0.1377     0.0672     0.3051     3.4991   107.5200     0.1976     0.3527
  338    6.740   1953.31     0.2477     0.0087     0.1408     0.0674     0.3064     3.5213   107.8400     0.1985     0.3647
  339    6.760   1953.94     0.2462     0.0082     0.1432     0.0676     0.3056     3.3274   108.1600     0.1974     0.3730
  340    6.780   1954.57     0.2389     0.0076     0.1492     0.0678     0.3009     3.1658   108.4800     0.1924     0.4151
  341    6.800   1955.19     0.2305     0.0076     0.1536     0.0680     0.2944     3.3040   108.8000     0.1856     0.4531
  342    6.820   1955.82     0.2273     0.0075     0.1557     0.0682     0.2924     3.2706   109.1200     0.1833     0.4744
  343    6.840   1956.44     0.2217     0.0072     0.1584     0.0684     0.2876     3.2130   109.4400     0.1781     0.4964
  344    6.860   1957.07     0.2197     0.0073     0.1615     0.0686     0.2873     3.2930   109.7600     0.1776     0.5198
  345    6.880   1957.69     0.2221     0.0075     0.1624     0.0688     0.2902     3.3686   110.0800     0.1801     0.5185
  346    6.900   1958.32     0.2193     0.0076     0.1642     0.0690     0.2880     3.4441   110.4000     0.1776     0.5327
  347    6.920   1958.97     0.2163     0.0077     0.1639     0.0692     0.2851     3.5459   110.7200     0.1744     0.5425
  348    6.940   1959.60     0.2131     0.0073     0.1648     0.0694     0.2821     3.4068   111.0400     0.1711     0.5548
  349    6.960   1965.30     0.2090     0.0068     0.1647     0.0696     0.2783     3.2309   111.3600     0.1670     0.5713
  350    6.980   1979.97     0.2058     0.0069     0.1637     0.0698     0.2747     3.2955   111.6800     0.1630     0.5785
  351    7.000   1994.63     0.2026     0.0074     0.1628     0.0700     0.2711     3.5129   112.0000     0.1591     0.5857
  352    7.020   2004.36     0.1986     0.0067     0.1658     0.0702     0.2675     3.3204   112.3200     0.1551     0.6051
  353    7.040   2005.43     0.2002     0.0061     0.1687     0.0704     0.2708     3.0817   112.6400     0.1581     0.6176
  354    7.060   2006.51     0.2047     0.0063     0.1712     0.0706     0.2764     3.0735   112.9600     0.1635     0.6123
  355    7.080   2007.53     0.1998     0.0059     0.1754     0.0708     0.2730     2.9344   113.2800     0.1597     0.6482
  356    7.100   2008.56     0.2043     0.0061     0.1788     0.0710     0.2785     2.9740   113.6000     0.1649     0.6415
  357    7.120   2009.58     0.2073     0.0061     0.1810     0.0712     0.2831     2.9592   113.9200     0.1692     0.6461
  358    7.140   2010.65     0.2134     0.0060     0.1808     0.0714     0.2891     2.8408   114.2400     0.1748     0.6217
  359    7.160   2011.68     0.2158     0.0062     0.1815     0.0716     0.2919     2.8926   114.5600     0.1773     0.6177
  360    7.180   2012.74     0.2169     0.0064     0.1820     0.0718     0.2934     2.9636   114.8800     0.1785     0.6188
  361    7.200   2013.79     0.2218     0.0063     0.1803     0.0720     0.2980     2.8466   115.2000     0.1828     0.5985
  362    7.220   2014.83     0.2208     0.0064     0.1787     0.0722     0.2959     2.8734   115.5200     0.1804     0.5912
  363    7.240   2015.86     0.2213     0.0065     0.1775     0.0724     0.2961     2.9412   115.8400     0.1803     0.5865
  364    7.260   2016.90     0.2183     0.0064     0.1805     0.0726     0.2939     2.9165   116.1600     0.1778     0.6041
  365    7.280   2017.93     0.2201     0.0066     0.1815     0.0728     0.2959     3.0106   116.4800     0.1794     0.6000
  366    7.300   2018.98     0.2219     0.0066     0.1831     0.0730     0.2988     2.9956   116.8000     0.1820     0.6052
  367    7.320   2020.04     0.2251     0.0068     0.1814     0.0732     0.3017     3.0274   117.1200     0.1845     0.5915
  368    7.340   2021.07     0.2235     0.0064     0.1815     0.0734     0.2994     2.8522   117.4400     0.1819     0.5900
  369    7.360   2022.12     0.2200     0.0061     0.1809     0.0736     0.2962     2.7545   117.7600     0.1785     0.6041
  370    7.380   2023.12     0.2190     0.0059     0.1844     0.0738     0.2960     2.6977   118.0800     0.1779     0.6156
  371    7.400   2024.15     0.2179     0.0058     0.1858     0.0740     0.2960     2.6585   118.4000     0.1776     0.6311
  372    7.420   2025.21     0.2144     0.0060     0.1893     0.0742     0.2936     2.7733   118.7200     0.1749     0.6546
  373    7.440   2026.23     0.2118     0.0060     0.1879     0.0744     0.2911     2.8700   119.0400     0.1721     0.6656
  374    7.460   2027.23     0.2108     0.0057     0.1827     0.0746     0.2884     2.6876   119.3600     0.1691     0.6514
  375    7.480   2028.31     0.2061     0.0057     0.1770     0.0748     0.2811     2.7256   119.6800     0.1614     0.6427
  376    7.500   2029.31     0.2072     0.0059     0.1816     0.0750     0.2825     2.8788   120.0000     0.1625     0.6411
  377    7.520   2030.36     0.2047     0.0058     0.1864     0.0752     0.2824     2.8699   120.3200     0.1621     0.6780
  378    7.540   2031.41     0.2040     0.0057     0.1901     0.0754     0.2832     2.8393   120.6400     0.1626     0.6960
  379    7.560   2032.47     0.2047     0.0057     0.1930     0.0756     0.2854     2.7990   120.9600     0.1645     0.7089
  380    7.580   2033.52     0.2051     0.0055     0.1962     0.0758     0.2869     2.6697   121.2800     0.1656     0.7186
  381    7.600   2034.53     0.2066     0.0057     0.1974     0.0760     0.2897     2.7756   121.6000     0.1681     0.7246
  382    7.620   2035.57     0.2100     0.0056     0.1951     0.0762     0.2923     2.6939   121.9200     0.1703     0.7028
  383    7.640   2036.60     0.2116     0.0057     0.1931     0.0764     0.2933     2.7098   122.2400     0.1710     0.6901
  384    7.660   2037.65     0.2157     0.0059     0.1916     0.0766     0.2964     2.7496   122.5600     0.1738     0.6645
  385    7.680   2038.70     0.2251     0.0063     0.1890     0.0768     0.3047     2.8668   122.8800     0.1818     0.6209
  386    7.700   2039.73     0.2312     0.0061     0.1870     0.0770     0.3101     2.6668   123.2000     0.1869     0.5928
  387    7.720   2040.76     0.2337     0.0063     0.1863     0.0772     0.3120     2.6967   123.5200     0.1885     0.5797
  388    7.740   2041.82     0.2384     0.0064     0.1873     0.0774     0.3167     2.6832   123.8400     0.1929     0.5658
  389    7.760   2042.88     0.2351     0.0068     0.1904     0.0776     0.3143     2.8629   124.1600     0.1902     0.5842
  390    7.780   2043.92     0.2373     0.0067     0.1954     0.0778     0.3191     2.8462   124.4800     0.1946     0.6011
  391    7.800   2044.96     0.2402     0.0063     0.2005     0.0780     0.3233     2.6287   124.8000     0.1985     0.6037
  392    7.820   2046.02     0.2380     0.0064     0.2021     0.0782     0.3231     2.6735   125.1200     0.1980     0.6286
  393    7.840   2047.04     0.2463     0.0065     0.2044     0.0784     0.3321     2.6582   125.4400     0.2066     0.6089
  394    7.860   2048.09     0.2470     0.0066     0.2058     0.0786     0.3333     2.6431   125.7600     0.2075     0.6115
  395    7.880   2049.14     0.2526     0.0065     0.2035     0.0788     0.3382     2.5764   126.0800     0.2121     0.5895
  396    7.900   2050.13     0.2528     0.0068     0.2013     0.0790     0.3378     2.7224   126.4000     0.2114     0.5835
  397    7.920   2051.19     0.2562     0.0070     0.2030     0.0792     0.3411     2.7649   126.7200     0.2144     0.5734
  398    7.940   2052.21     0.2633     0.0075     0.1992     0.0794     0.3471     2.8657   127.0400     0.2200     0.5454
  399    7.960   2053.24     0.2637     0.0073     0.1988     0.0796     0.3474     2.7701   127.3600     0.2201     0.5446
  400    7.980   2054.29     0.2676     0.0072     0.1955     0.0798     0.3504     2.7041   127.6800     0.2227     0.5272
  401    8.000   2055.33     0.2666     0.0071     0.1961     0.0800     0.3481     2.6083   128.0000     0.2201     0.5189
  402    8.020   2056.37     0.2594     0.0073     0.2048     0.0802     0.3445     2.7824   128.3200     0.2162     0.5666
  403    8.040   2057.42     0.2559     0.0072     0.2089     0.0804     0.3430     2.7757   128.6400     0.2144     0.5929
  404    8.060   2058.44     0.2564     0.0067     0.2093     0.0806     0.3444     2.6336   128.9600     0.2155     0.5984
  405    8.080   2059.46     0.2553     0.0067     0.2066     0.0808     0.3430     2.6239   129.2800     0.2137     0.5992
  406    8.100   2060.49     0.2555     0.0066     0.2023     0.0810     0.3410     2.5925   129.6000     0.2114     0.5795
  407    8.120   2061.56     0.2586     0.0071     0.2052     0.0812     0.3444     2.7248   129.9200     0.2145     0.5740
  408    8.140   2062.61     0.2556     0.0071     0.2075     0.0814     0.3417     2.7865   130.2400     0.2115     0.5849
  409    8.160   2063.64     0.2591     0.0067     0.2061     0.0816     0.3463     2.6398   130.5600     0.2157     0.5840
  410    8.180   2064.70     0.2615     0.0067     0.2031     0.0818     0.3469     2.5620   130.8800     0.2160     0.5620
  411    8.200   2065.77     0.2643     0.0065     0.2065     0.0820     0.3507     2.4890   131.2000     0.2195     0.5640
  412    8.220   2066.80     0.2628     0.0070     0.2081     0.0822     0.3497     2.6518   131.5200     0.2182     0.5719
  413    8.240   2067.84     0.2621     0.0070     0.2116     0.0824     0.3505     2.6386   131.8400     0.2187     0.5852
  414    8.260   2068.88     0.2595     0.0072     0.2132     0.0826     0.3488     2.7616   132.1600     0.2166     0.6001
  415    8.280   2069.97     0.2628     0.0072     0.2129     0.0828     0.3523     2.7435   132.4800     0.2199     0.5927
  416    8.300   2070.99     0.2723     0.0072     0.2106     0.0830     0.3607     2.7138   132.8000     0.2279     0.5600
  417    8.320   2072.06     0.2723     0.0075     0.2116     0.0832     0.3613     2.7560   133.1200     0.2282     0.5634
  418    8.340   2073.07     0.2694     0.0073     0.2086     0.0834     0.3573     2.7087   133.4400     0.2239     0.5631
  419    8.360   2074.11     0.2707     0.0073     0.2036     0.0836     0.3566     2.6921   133.7600     0.2229     0.5424
  420    8.380   2075.14     0.2705     0.0075     0.2044     0.0838     0.3560     2.7486   134.0800     0.2219     0.5401
  421    8.400   2076.18     0.2678     0.0077     0.2052     0.0840     0.3536     2.8424   134.4000     0.2192     0.5491
  422    8.420   2077.19     0.2644     0.0079     0.2071     0.0842     0.3510     2.9969   134.7200     0.2163     0.5641
  423    8.440   2078.25     0.2616     0.0077     0.2096     0.0844     0.3494     2.9579   135.0400     0.2144     0.5814
  424    8.460   2079.28     0.2642     0.0076     0.2104     0.0846     0.3525     2.8904   135.3600     0.2172     0.5791
  425    8.480   2080.31     0.2638     0.0075     0.2097     0.0848     0.3521     2.8587   135.6800     0.2164     0.5792
  426    8.500   2081.34     0.2613     0.0079     0.2097     0.0850     0.3493     3.0389   136.0000     0.2133     0.5833
  427    8.520   2082.39     0.2565     0.0077     0.2139     0.0852     0.3457     2.9785   136.3200     0.2094     0.6080
  428    8.540   2083.42     0.2514     0.0078     0.2150     0.0854     0.3416     3.0665   136.6400     0.2050     0.6318
  429    8.560   2084.44     0.2451     0.0079     0.2152     0.0856     0.3362     3.1570   136.9600     0.1992     0.6585
  430    8.580   2085.49     0.2499     0.0087     0.2165     0.0858     0.3405     3.4787   137.2800     0.2032     0.6391
  431    8.600   2086.52     0.2553     0.0084     0.2247     0.0860     0.3487     3.2866   137.6000     0.2111     0.6462
  432    8.620   2089.07     0.2621     0.0083     0.2244     0.0862     0.3570     3.2002   137.9200     0.2190     0.6378
  433    8.640   2102.47     0.2672     0.0082     0.2201     0.0864     0.3603     3.1311   138.2400     0.2220     0.6094
  434    8.660   2115.88     0.2723     0.0082     0.2158     0.0866     0.3636     3.1187   138.5600     0.2250     0.5810
  435    8.680   2121.67     0.2704     0.0080     0.2255     0.0868     0.3635     2.9456   138.8800     0.2246     0.6008
  436    8.700   2122.71     0.2654     0.0086     0.2226     0.0870     0.3592     3.2413   139.2000     0.2200     0.6197
  437    8.720   2123.74     0.2643     0.0081     0.2266     0.0872     0.3589     3.0443   139.5200     0.2193     0.6287
  438    8.740   2124.78     0.2633     0.0077     0.2315     0.0874     0.3599     2.9156   139.8400     0.2201     0.6485
  439    8.760   2125.86     0.2636     0.0081     0.2334     0.0876     0.3613     3.0755   140.1600     0.2211     0.6556
  440    8.780   2126.87     0.2595     0.0077     0.2350     0.0878     0.3578     2.9432   140.4800     0.2173     0.6727
  441    8.800   2127.89     0.2580     0.0075     0.2371     0.0880     0.3580     2.8795   140.8000     0.2172     0.6912
  442    8.820   2128.91     0.2649     0.0072     0.2367     0.0882     0.3654     2.7641   141.1200     0.2242     0.6739
  443    8.840   2129.97     0.2687     0.0072     0.2344     0.0884     0.3669     2.7013   141.4400     0.2254     0.6445
  444    8.860   2130.97     0.2716     0.0070     0.2395     0.0886     0.3708     2.5921   141.7600     0.2290     0.6447
  445    8.880   2132.02     0.2749     0.0077     0.2436     0.0888     0.3778     2.8399   142.0800     0.2357     0.6622
  446    8.900   2133.06     0.2874     0.0080     0.2414     0.0890     0.3889     2.8271   142.4000     0.2465     0.6194
  447    8.920   2134.05     0.3005     0.0083     0.2312     0.0892     0.3994     2.8312   142.7200     0.2567     0.5700
  448    8.940   2135.08     0.3024     0.0082     0.2279     0.0894     0.3965     2.6921   143.0400     0.2535     0.5311
  449    8.960   2136.13     0.3146     0.0078     0.2216     0.0896     0.4093     2.5289   143.3600     0.2660     0.5110
  450    8.980   2137.16     0.3217     0.0080     0.2328     0.0898     0.4175     2.5108   143.6800     0.2739     0.5052
  451    9.000   2138.22     0.3316     0.0093     0.2458     0.0900     0.4337     2.8642   144.0000     0.2897     0.5282
  452    9.020   2139.23     0.3492     0.0103     0.2473     0.0902     0.4540     3.0095   144.3200     0.3097     0.5146
  453    9.040   2140.28     0.3801     0.0107     0.2298     0.0904     0.4787     2.9071   144.6400     0.3340     0.4324
  454    9.060   2141.30     0.3973     0.0107     0.2086     0.0906     0.4878     2.7421   144.9600     0.3428     0.3640
  455    9.080   2142.33     0.4018     0.0110     0.2072     0.0908     0.4876     2.7292   145.2800     0.3423     0.3316
  456    9.100   2143.38     0.3996     0.0123     0.2217     0.0910     0.4902     3.1013   145.6000     0.3446     0.3623
  457    9.120   2144.38     0.4139     0.0126     0.2242     0.0912     0.5084     3.0391   145.9200     0.3625     0.3690
  458    9.140   2145.46     0.4237     0.0132     0.2234     0.0914     0.5194     3.1736   146.2400     0.3731     0.3659
  459    9.160   2146.52     0.4408     0.0128     0.2052     0.0916     0.5291     2.8946   146.5600     0.3825     0.3101
  460    9.180   2147.54     0.4335     0.0137     0.1988     0.0918     0.5179     3.1497   146.8800     0.3710     0.2940
  461    9.200   2148.60     0.4337     0.0140     0.2076     0.0920     0.5197     3.2170   147.2000     0.3725     0.3026
  462    9.220   2149.64     0.4431     0.0144     0.1940     0.0922     0.5277     3.3026   147.5200     0.3802     0.2873
  463    9.240   2150.68     0.4494     0.0139     0.2007     0.0924     0.5328     3.0956   147.8400     0.3849     0.2756
  464    9.260   2151.72     0.4458     0.0148     0.2157     0.0926     0.5344     3.3185   148.1600     0.3863     0.3064
  465    9.280   2152.72     0.4514     0.0145     0.2225     0.0928     0.5440     3.2263   148.4800     0.3955     0.3227
  466    9.300   2153.78     0.4674     0.0140     0.2210     0.0930     0.5598     3.0523   148.8000     0.4110     0.3089
  467    9.320   2154.82     0.4895     0.0131     0.2232     0.0932     0.5838     2.7095   149.1200     0.4347     0.3024
  468    9.340   2155.88     0.4940     0.0128     0.2016     0.0934     0.5797     2.6012   149.4400     0.4303     0.2574
  469    9.360   2156.87     0.4881     0.0126     0.2166     0.0936     0.5768     2.4852   149.7600     0.4271     0.2761
  470    9.380   2157.90     0.4350     0.0127     0.2188     0.0938     0.5256     2.8046   150.0800     0.3755     0.3250
  471    9.400   2158.94     0.3537     0.0134     0.1920     0.0940     0.4382     3.5041   150.4000     0.2878     0.3726
  472    9.420   2159.97     0.3353     0.0125     0.1796     0.0942     0.4121     3.6433   150.7200     0.2614     0.3396
  473    9.440   2160.97     0.3250     0.0127     0.1771     0.0944     0.3972     3.9005   151.0400     0.2462     0.3144
  474    9.460   2162.07     0.3322     0.0134     0.1646     0.0946     0.4035     4.0705   151.3600     0.2521     0.2985
  475    9.480   2163.10     0.3606     0.0140     0.1629     0.0948     0.4286     3.9408   151.6800     0.2769     0.2428
  476    9.500   2164.13     0.3479     0.0146     0.1789     0.0950     0.4190     4.0813   152.0000     0.2670     0.2788
  477    9.520   2165.15     0.3314     0.0142     0.1460     0.0952     0.3990     4.3528   152.3200     0.2466     0.2669
  478    9.540   2166.19     0.3353     0.0133     0.1619     0.0954     0.4005     3.9438   152.6400     0.2478     0.2415
  479    9.560   2167.24     0.3193     0.0132     0.1770     0.0956     0.3914     4.0416   152.9600     0.2385     0.3196
  480    9.580   2168.28     0.3264     0.0139     0.1982     0.0958     0.4064     4.3966   153.2800     0.2531     0.3740
  481    9.600   2169.34     0.3653     0.0141     0.2205     0.0960     0.4557     3.9484   153.6000     0.3021     0.3946
  482    9.620   2170.36     0.4180     0.0142     0.2332     0.0962     0.5140     3.5455   153.9200     0.3601     0.3676
  483    9.640   2171.38     0.4965     0.0146     0.2428     0.0964     0.5977     3.0981   154.2400     0.4435     0.3267
  484    9.660   2172.47     0.5459     0.0154     0.2639     0.0966     0.6543     2.8824   154.5600     0.4997     0.3228
  485    9.680   2173.52     0.5342     0.0158     0.2804     0.0968     0.6497     2.9526   154.8800     0.4948     0.3600
  486    9.700   2174.55     0.5435     0.0163     0.2832     0.0970     0.6629     2.9447   155.2000     0.5077     0.3689
  487    9.720   2175.58     0.4781     0.0159     0.2459     0.0972     0.5937     3.0909   155.5200     0.4382     0.4058
  488    9.740   2176.64     0.4631     0.0160     0.2384     0.0974     0.5681     3.4188   155.8400     0.4123     0.3705
  489    9.760   2177.69     0.4669     0.0151     0.2294     0.0976     0.5653     3.2483   156.1600     0.4091     0.3338
  490    9.780   2178.71     0.4771     0.0150     0.2046     0.0978     0.5664     3.2206   156.4800     0.4099     0.2811
  491    9.800   2179.74     0.5084     0.0152     0.2376     0.0980     0.6046     3.0855   156.8000     0.4478     0.2926
  492    9.820   2180.80     0.5572     0.0161     0.2619     0.0982     0.6644     2.9773   157.1200     0.5073     0.3096
  493    9.840   2181.84     0.5500     0.0168     0.2560     0.0984     0.6609     2.9621   157.4400     0.5035     0.3293
  494    9.860   2182.87     0.5324     0.0172     0.2510     0.0986     0.6372     3.2841   157.7600     0.4794     0.3147
  495    9.880   2183.86     0.5662     0.0183     0.2359     0.0988     0.6674     3.2209   158.0800     0.5093     0.2790
  496    9.900   2184.97     0.5625     0.0167     0.2428     0.0990     0.6645     2.8949   158.4000     0.5061     0.2842
  497    9.920   2185.97     0.5635     0.0156     0.2603     0.0992     0.6709     2.7643   158.7200     0.5122     0.3057
  498    9.940   2186.99     0.5168     0.0138     0.2540     0.0994     0.6280     2.5894   159.0400     0.4689     0.3523
  499    9.960   2188.01     0.4727     0.0139     0.2612     0.0996     0.5802     2.9362   159.3600     0.4209     0.3715
  500    9.980   2189.05     0.5071     0.0146     0.2770     0.0998     0.6205     2.9583   159.6800     0.4609     0.3696
  501   10.000   2190.12     0.5488     0.0148     0.2609     0.1000     0.6618     2.7642   160.0000     0.5018     0.3371
  502   10.020   2191.15     0.4955     0.0167     0.2021     0.1002     0.5885     3.2144   160.3200     0.4282     0.2830
  503   10.040   2192.19     0.5370     0.0176     0.1611     0.1004     0.6029     3.3669   160.6400     0.4422     0.1276
  504   10.060   2193.22     0.5699     0.0172     0.1476     0.1006     0.6334     3.1114   160.9600     0.4725     0.1074
  505   10.080   2194.25     0.6083     0.0163     0.1769     0.1008     0.6769     2.7649   161.2800     0.5156     0.1208
  506   10.100   2195.32     0.6295     0.0160     0.2079     0.1010     0.7116     2.5515   161.6000     0.5500     0.1716
  507   10.120   2196.34     0.6617     0.0172     0.2632     0.1012     0.7665     2.6331   161.9200     0.6046     0.2449
  508   10.140   2197.37     0.6388     0.0185     0.2918     0.1014     0.7554     2.8553   162.2400     0.5932     0.2972
  509   10.160   2198.44     0.6718     0.0187     0.3283     0.1016     0.8060     2.8311   162.5600     0.6435     0.3388
  510   10.180   2199.50     0.6568     0.0188     0.3401     0.1018     0.7986     2.8138   162.8800     0.6357     0.3708
  511   10.200   2200.53     0.6709     0.0183     0.3479     0.1020     0.8144     2.7240   163.2000     0.6512     0.3681
  512   10.220   2201.57     0.6226     0.0186     0.3550     0.1022     0.7693     2.8889   163.5200     0.6057     0.4077
  513   10.240   2202.60     0.6336     0.0191     0.3662     0.1024     0.7861     3.0457   163.8400     0.6222     0.4188
  514   10.260   2203.66     0.6452     0.0196     0.3700     0.1026     0.8010     3.0373   164.1600     0.6368     0.4212
  515   10.280   2204.69     0.6253     0.0190     0.3603     0.1028     0.7779     2.9738   164.4800     0.6134     0.4250
  516   10.300   2205.73     0.5704     0.0193     0.3325     0.1030     0.7155     3.2522   164.8000     0.5507     0.4402
  517   10.320   2206.78     0.5357     0.0197     0.3142     0.1032     0.6680     3.6981   165.1200     0.5029     0.4214
  518   10.340   2207.81     0.5851     0.0186     0.3102     0.1034     0.7202     3.2576   165.4400     0.5547     0.3932
  519   10.360   2208.84     0.5900     0.0188     0.2984     0.1036     0.7155     3.1802   165.7600     0.5497     0.3551
  520   10.380   2209.89     0.6064     0.0190     0.3140     0.1038     0.7352     3.1492   166.0800     0.5692     0.3564
  521   10.400   2210.92     0.6504     0.0189     0.3416     0.1040     0.7888     2.9677   166.4000     0.6224     0.3625
  522   10.420   2211.94     0.6749     0.0196     0.3744     0.1042     0.8275     2.9357   166.7200     0.6608     0.3922
  523   10.440   2212.99     0.6711     0.0194     0.3608     0.1044     0.8277     2.8267   167.0400     0.6607     0.4062
  524   10.460   2213.97     0.6716     0.0208     0.3682     0.1046     0.8258     3.0852   167.3600     0.6584     0.3987
  525   10.480   2215.04     0.5567     0.0210     0.3284     0.1048     0.7008     3.4954   167.6800     0.5331     0.4471
  526   10.500   2216.09     0.5531     0.0205     0.3200     0.1050     0.6874     3.8226   168.0000     0.5194     0.4138
  527   10.520   2217.08     0.6059     0.0206     0.3613     0.1052     0.7534     3.6945   168.3200     0.5851     0.4205
  528   10.540   2218.14     0.5853     0.0207     0.3716     0.1054     0.7407     3.5664   168.6400     0.5721     0.4629
  529   10.560   2219.19     0.6024     0.0210     0.3864     0.1056     0.7631     3.5062   168.9600     0.5941     0.4662
  530   10.580   2220.23     0.6160     0.0210     0.3966     0.1058     0.7821     3.3895   169.2800     0.6128     0.4729
  531   10.600   2221.28     0.5938     0.0199     0.3726     0.1060     0.7554     3.3070   169.6000     0.5858     0.4757
  532   10.620   2228.91     0.5899     0.0198     0.3175     0.1062     0.7312     3.3794   169.9200     0.5613     0.4070
  533   10.640   2238.48     0.5953     0.0182     0.2624     0.1064     0.7135     3.1080   170.2400     0.5433     0.3194
  534   10.660   2244.00     0.5897     0.0182     0.2611     0.1066     0.6997     3.0532   170.5600     0.5292     0.2935
  535   10.680   2245.05     0.5450     0.0189     0.2614     0.1068     0.6526     3.4420   170.8800     0.4817     0.3102
  536   10.700   2246.14     0.6087     0.0195     0.2712     0.1070     0.7211     3.2764   171.2000     0.5499     0.2919
  537   10.720   2247.19     0.6071     0.0192     0.2628     0.1072     0.7200     3.1933   171.5200     0.5484     0.2949
  538   10.740   2248.24     0.6023     0.0182     0.2494     0.1074     0.7114     2.9379   171.8400     0.5396     0.2824
  539   10.760   2249.24     0.6465     0.0178     0.2624     0.1076     0.7507     2.8560   172.1600     0.5786     0.2426
  540   10.780   2250.31     0.6729     0.0182     0.2979     0.1078     0.7920     2.7412   172.4800     0.6195     0.2836
  541   10.800   2251.39     0.6955     0.0202     0.3494     0.1080     0.8371     2.9091   172.8000     0.6643     0.3448
  542   10.820   2252.39     0.6705     0.0206     0.3542     0.1082     0.8216     2.9943   173.1200     0.6485     0.3879
  543   10.840   2253.42     0.5961     0.0197     0.3248     0.1084     0.7380     3.1172   173.4400     0.5646     0.4066
  544   10.860   2254.50     0.5377     0.0191     0.2895     0.1086     0.6639     3.4486   173.7600     0.4902     0.3913
  545   10.880   2255.49     0.5286     0.0192     0.2729     0.1088     0.6442     3.6266   174.0800     0.4701     0.3538
  546   10.900   2256.50     0.5056     0.0191     0.2594     0.1090     0.6180     3.7111   174.4000     0.4436     0.3580
  547   10.920   2257.54     0.4931     0.0180     0.2052     0.1092     0.5913     3.5636   174.7200     0.4166     0.2990
  548   10.940   2258.58     0.5547     0.0169     0.2449     0.1094     0.6469     3.2908   175.0400     0.4718     0.2327
  549   10.960   2259.61     0.6275     0.0158     0.2805     0.1096     0.7406     2.6297   175.3600     0.5652     0.2826
  550   10.980   2260.64     0.6974     0.0155     0.3396     0.1098     0.8307     2.2884   175.6800     0.6550     0.3167
  551   11.000   2261.69     0.6966     0.0154     0.3645     0.1100     0.8460     2.2036   176.0000     0.6700     0.3666
  552   11.020   2262.75     0.6151     0.0153     0.3366     0.1102     0.7627     2.3249   176.3200     0.5864     0.4116
  553   11.040   2263.74     0.5573     0.0152     0.3030     0.1104     0.6897     2.6393   176.6400     0.5131     0.3993
  554   11.060   2264.81     0.5060     0.0150     0.2516     0.1106     0.6187     2.8346   176.9600     0.4417     0.3564
  555   11.080   2265.83     0.4651     0.0169     0.2251     0.1108     0.5619     3.5171   177.2800     0.3846     0.3111
  556   11.100   2266.86     0.4293     0.0173     0.2127     0.1110     0.5200     3.9594   177.6000     0.3424     0.3065
  557   11.120   2267.89     0.4343     0.0189     0.2035     0.1112     0.5216     4.4400   177.9200     0.3436     0.2813
  558   11.140   2268.94     0.4222     0.0200     0.1898     0.1114     0.5024     4.4809   178.2400     0.3241     0.2449
  559   11.160   2269.99     0.4678     0.0211     0.2008     0.1116     0.5532     4.8961   178.5600     0.3746     0.2449
  560   11.180   2271.03     0.5955     0.0215     0.2539     0.1118     0.6968     3.8646   178.8800     0.5179     0.2496
  561   11.200   2272.08     0.6642     0.0221     0.2816     0.1120     0.7758     3.3652   179.2000     0.5966     0.2575
  562   11.220   2273.13     0.6914     0.0225     0.3401     0.1122     0.8278     3.3062   179.5200     0.6482     0.3275
  563   11.240   2274.19     0.7106     0.0227     0.3773     0.1124     0.8645     3.2170   179.8400     0.6846     0.3707
  564   11.260   2275.22     0.7241     0.0227     0.4051     0.1126     0.8906     3.1442   180.1600     0.7105     0.3994
  565   11.280   2276.27     0.7337     0.0223     0.4299     0.1128     0.9108     3.0510   180.4800     0.7303     0.4227
  566   11.300   2277.31     0.7382     0.0228     0.4541     0.1130     0.9252     3.0914   180.8000     0.7444     0.4463
  567   11.320   2278.37     0.7300     0.0221     0.4735     0.1132     0.9264     3.0137   181.1200     0.7453     0.4756
  568   11.340   2279.42     0.7300     0.0220     0.4896     0.1134     0.9334     3.0057   181.4400     0.7520     0.4933
  569   11.360   2280.49     0.7300     0.0204     0.5039     0.1136     0.9393     2.7977   181.7600     0.7575     0.5079
  570   11.380   2281.46     0.7284     0.0199     0.5154     0.1138     0.9432     2.7195   182.0800     0.7611     0.5224
  571   11.400   2282.52     0.7211     0.0187     0.5265     0.1140     0.9421     2.5677   182.4000     0.7597     0.5425
  572   11.420   2283.54     0.7226     0.0181     0.5282     0.1142     0.9441     2.5076   182.7200     0.7614     0.5428
  573   11.440   2284.59     0.7222     0.0174     0.5275     0.1144     0.9445     2.4039   183.0400     0.7615     0.5451
  574   11.460   2285.60     0.7101     0.0167     0.4947     0.1146     0.9230     2.3372   183.3600     0.7397     0.5303
  575   11.480   2286.63     0.6818     0.0161     0.4505     0.1148     0.8786     2.3078   183.6800     0.6949     0.5089
  576   11.500   2287.69     0.6429     0.0152     0.4114     0.1150     0.8218     2.3178   184.0000     0.6378     0.4873
  577   11.520   2288.72     0.6073     0.0145     0.3685     0.1152     0.7681     2.3328   184.3200     0.5838     0.4585
  578   11.540   2289.74     0.5797     0.0147     0.3309     0.1154     0.7249     2.4753   184.6400     0.5403     0.4263
  579   11.560   2290.79     0.5625     0.0153     0.2873     0.1156     0.6888     2.6985   184.9600     0.5039     0.3675
  580   11.580   2291.83     0.5514     0.0151     0.2531     0.1158     0.6619     2.7343   185.2800     0.4767     0.3091
  581   11.600   2292.84     0.5153     0.0158     0.2156     0.1160     0.6122     2.9955   185.6000     0.4266     0.2684
  582   11.620   2293.89     0.4732     0.0171     0.1442     0.1162     0.5459     3.5126   185.9200     0.3600     0.1566
  583   11.640   2294.94     0.4431     0.0176     0.1251     0.1164     0.4960     3.9281   186.2400     0.3097     0.0308
  584   11.660   2296.00     0.4899     0.0188     0.1204     0.1166     0.5359     4.1456   186.5600     0.3493    -0.0208
  585   11.680   2297.04     0.5745     0.0201     0.1559     0.1168     0.6332     3.7109   186.8800     0.4463     0.0507
  586   11.700   2298.08     0.6462     0.0206     0.1933     0.1170     0.7206     3.2720   187.2000     0.5334     0.1125
  587   11.720   2299.13     0.7060     0.0213     0.2395     0.1172     0.8013     3.0825   187.5200     0.6137     0.1785
  588   11.740   2300.16     0.7399     0.0224     0.2833     0.1174     0.8515     3.0714   187.8400     0.6637     0.2233
  589   11.760   2301.22     0.7676     0.0231     0.3302     0.1176     0.8993     3.0586   188.1600     0.7112     0.2754
  590   11.780   2302.26     0.7844     0.0237     0.3650     0.1178     0.9325     3.0456   188.4800     0.7440     0.3155
  591   11.800   2303.31     0.7969     0.0243     0.4048     0.1180     0.9613     3.0630   188.8000     0.7725     0.3537
  592   11.820   2304.36     0.8054     0.0246     0.4391     0.1182     0.9857     3.0448   189.1200     0.7966     0.3905
  593   11.840   2305.38     0.8170     0.0248     0.4643     0.1184     1.0084     3.0680   189.4400     0.8190     0.4118
  594   11.860   2306.39     0.8316     0.0247     0.4898     0.1186     1.0336     2.9932   189.7600     0.8439     0.4296
  595   11.880   2307.44     0.8409     0.0247     0.5073     0.1188     1.0524     2.9542   190.0800     0.8623     0.4462
  596   11.900   2308.44     0.8510     0.0249     0.5232     0.1190     1.0686     2.9481   190.4000     0.8782     0.4543
  597   11.920   2309.49     0.8534     0.0248     0.5392     0.1192     1.0774     2.8994   190.7200     0.8867     0.4672
  598   11.940   2310.54     0.8511     0.0253     0.5520     0.1194     1.0814     2.9653   191.0400     0.8903     0.4817
  599   11.960   2311.58     0.8496     0.0250     0.5616     0.1196     1.0834     2.9509   191.3600     0.8921     0.4900
  600   11.980   2312.63     0.8435     0.0247     0.5734     0.1198     1.0823     2.9166   191.6800     0.8906     0.5040
  601   12.000   2313.66     0.8466     0.0242     0.5863     0.1200     1.0910     2.8549   192.0000     0.8990     0.5138
  602   12.020   2314.68     0.8472     0.0242     0.5963     0.1202     1.0959     2.8645   192.3200     0.9035     0.5221
  603   12.040   2315.72     0.8482     0.0244     0.6068     0.1204     1.1022     2.8778   192.6400     0.9096     0.5327
  604   12.060   2316.77     0.8477     0.0243     0.6118     0.1206     1.1045     2.8682   192.9600     0.9115     0.5383
  605   12.080   2317.81     0.8665     0.0241     0.6170     0.1208     1.1245     2.7973   193.2800     0.9312     0.5298
  606   12.100   2318.85     0.8660     0.0241     0.6229     0.1210     1.1272     2.7769   193.6000     0.9336     0.5365
  607   12.120   2319.92     0.8603     0.0243     0.6217     0.1212     1.1208     2.8179   193.9200     0.9269     0.5383
  608   12.140   2320.95     0.8464     0.0241     0.6324     0.1214     1.1091     2.8168   194.2400     0.9148     0.5509
  609   12.160   2322.00     0.8371     0.0241     0.6415     0.1216     1.1045     2.8760   194.5600     0.9099     0.5661
  610   12.180   2323.03     0.8382     0.0238     0.6480     0.1218     1.1110     2.8339   194.8800     0.9161     0.5761
  611   12.200   2324.08     0.8438     0.0238     0.6478     0.1220     1.1150     2.8375   195.2000     0.9198     0.5692
  612   12.220   2325.11     0.8467     0.0238     0.6553     0.1222     1.1204     2.8095   195.5200     0.9248     0.5723
  613   12.240   2326.18     0.8472     0.0239     0.6553     0.1224     1.1230     2.8194   195.8400     0.9272     0.5763
  614   12.260   2327.23     0.8460     0.0239     0.6625     0.1226     1.1225     2.8159   196.1600     0.9263     0.5782
  615   12.280   2328.26     0.8518     0.0235     0.6741     0.1228     1.1332     2.7676   196.4800     0.9368     0.5841
  616   12.300   2329.31     0.8605     0.0238     0.6767     0.1230     1.1451     2.7697   196.8000     0.9483     0.5848
  617   12.320   2330.35     0.8700     0.0236     0.6728     0.1232     1.1524     2.7175   197.1200     0.9552     0.5747
  618   12.340   2331.43     0.8624     0.0234     0.6634     0.1234     1.1424     2.7013   197.4400     0.9449     0.5748
  619   12.360   2332.44     0.8555     0.0240     0.6630     0.1236     1.1338     2.7787   197.7600     0.9360     0.5758
  620   12.380   2333.47     0.8628     0.0236     0.6627     0.1238     1.1418     2.7446   198.0800     0.9437     0.5727
  621   12.400   2334.50     0.8590     0.0238     0.6726     0.1240     1.1390     2.7677   198.4000     0.9406     0.5768
  622   12.420   2335.55     0.8364     0.0235     0.6786     0.1242     1.1224     2.7849   198.7200     0.9236     0.6026
  623   12.440   2336.55     0.8411     0.0234     0.6824     0.1244     1.1273     2.7867   199.0400     0.9282     0.6001
  624   12.460   2337.59     0.8424     0.0230     0.6855     0.1246     1.1296     2.7287   199.3600     0.9302     0.6011
  625   12.480   2338.67     0.8464     0.0230     0.6876     0.1248     1.1351     2.7340   199.6800     0.9355     0.6015
  626   12.500   2339.66     0.8439     0.0225     0.6925     0.1250     1.1338     2.6654   200.0000     0.9338     0.6054
  627   12.520   2340.70     0.8520     0.0221     0.6968     0.1252     1.1435     2.6065   200.3200     0.9431     0.6029
  628   12.540   2341.75     0.8568     0.0259     0.7095     0.1254     1.1531     3.0225   200.6400     0.9524     0.6089
  629   12.560   2342.83     0.8623     0.0247     0.7119     0.1256     1.1618     2.8690   200.9600     0.9609     0.6115
  630   12.580   2343.85     0.8741     0.0241     0.7166     0.1258     1.1746     2.7549   201.2800     0.9733     0.6057
  631   12.600   2358.58     0.8317     0.0240     0.7142     0.1260     1.1320     2.7465   201.6000     0.9304     0.6347
  632   12.620   2375.25     0.7829     0.0229     0.7061     0.1262     1.0822     2.9279   201.9200     0.8803     0.6665
  633   12.640   2378.58     0.8573     0.0231     0.7230     0.1264     1.1579     2.9381   202.2400     0.9557     0.6166
  634   12.660   2379.65     0.8657     0.0233     0.7220     0.1266     1.1691     2.6876   202.5600     0.9665     0.6164
  635   12.680   2380.74     0.8591     0.0224     0.7217     0.1268     1.1610     2.6051   202.8800     0.9581     0.6180
  636   12.700   2381.78     0.8334     0.0230     0.7435     0.1270     1.1435     2.7230   203.2000     0.9403     0.6503
  637   12.720   2382.79     0.8245     0.0233     0.7504     0.1272     1.1384     2.8269   203.5200     0.9349     0.6635
  638   12.740   2383.89     0.8403     0.0227     0.7587     0.1274     1.1574     2.7104   203.8400     0.9536     0.6582
  639   12.760   2384.88     0.8362     0.0228     0.7738     0.1276     1.1594     2.7185   204.1600     0.9552     0.6720
  640   12.780   2385.93     0.8390     0.0226     0.7824     0.1278     1.1660     2.7003   204.4800     0.9615     0.6768
  641   12.800   2386.98     0.8341     0.0227     0.7960     0.1280     1.1672     2.7130   204.8000     0.9624     0.6912
  642   12.820   2388.03     0.8444     0.0234     0.8031     0.1282     1.1803     2.7914   205.1200     0.9752     0.6887
  643   12.840   2389.08     0.8557     0.0225     0.8092     0.1284     1.1944     2.6417   205.4400     0.9890     0.6856
  644   12.860   2390.11     0.8655     0.0226     0.8068     0.1286     1.2054     2.6285   205.7600     0.9997     0.6809
  645   12.880   2391.15     0.8710     0.0235     0.8068     0.1288     1.2090     2.6967   206.0800     1.0029     0.6740
  646   12.900   2392.18     0.8697     0.0224     0.8153     0.1290     1.2116     2.5794   206.4000     1.0052     0.6815
  647   12.920   2393.21     0.8704     0.0225     0.8175     0.1292     1.2131     2.5906   206.7200     1.0063     0.6823
  648   12.940   2394.26     0.8781     0.0228     0.8221     0.1294     1.2237     2.6040   207.0400     1.0167     0.6821
  649   12.960   2395.28     0.8959     0.0226     0.8257     0.1296     1.2415     2.5441   207.3600     1.0341     0.6702
  650   12.980   2396.33     0.9053     0.0232     0.8280     0.1298     1.2530     2.5717   207.6800     1.0453     0.6679
  651   13.000   2397.37     0.9052     0.0236     0.8209     0.1300     1.2511     2.6285   208.0000     1.0431     0.6649
  652   13.020   2398.42     0.9199     0.0237     0.8122     0.1302     1.2628     2.5971   208.3200     1.0545     0.6509
  653   13.040   2399.47     0.9240     0.0242     0.7959     0.1304     1.2597     2.6138   208.6400     1.0511     0.6364
  654   13.060   2400.45     0.9144     0.0248     0.7943     0.1306     1.2492     2.6953   208.9600     1.0403     0.6409
  655   13.080   2401.50     0.9023     0.0200     0.7977     0.1308     1.2364     2.2014   209.2800     1.0271     0.6472
  656   13.100   2402.55     0.8973     0.0089     0.8184     0.1310     1.2388     0.9876   209.6000     1.0292     0.6627
  657   13.120   2403.59     0.9157     0.0043     0.8290     0.1312     1.2626     0.4684   209.9200     1.0527     0.6601
  658   13.140   2404.64     0.9789     0.0106     0.8472     0.1314     1.3313     1.0910   210.2400     1.1210     0.6314
  659   13.160   2405.72     1.3972     0.0149     0.8879     0.1316     1.7646     1.1295   210.5600     1.5540     0.4880
  660   13.180   2406.82     3.6563     0.0225     0.7584     0.1318     4.0131     0.8562   210.8800     3.8022     0.1990
  661   13.200   2407.92     7.6344     0.0385     0.2533     0.1320     7.8354     0.6316   211.2000     7.6242     0.0468
  662   13.220   2409.03    10.7828     0.0603    -0.0616     0.1322    10.7711     0.5665   211.5200    10.5596    -0.0152
  663   13.240   2410.14    12.3574     0.0845    -0.1015     0.1324    12.3183     0.6904   211.8400    12.1065    -0.0186
  664   13.260   2411.22    13.2112     0.1032    -0.0808     0.1326    13.1732     0.7848   212.1600    12.9611    -0.0172
  665   13.280   2412.33    13.4261     0.1224    -0.0488     0.1328    13.4010     0.9100   212.4800    13.1886    -0.0146
  666   13.300   2413.42    13.0791     0.1394    -0.0093     0.1330    13.0685     1.0628   212.8000    12.8557    -0.0123
  667   13.320   2414.53    12.7090     0.1483     0.0112     0.1332    12.7104     1.1617   213.1200    12.4973    -0.0104
  668   13.340   2415.62    12.3698     0.1555     0.0306     0.1334    12.3796     1.2544   213.4400    12.1661    -0.0090
  669   13.360   2416.68    12.1542     0.1541     0.0401     0.1336    12.1718     1.2595   213.7600    11.9581    -0.0077
  670   13.380   2417.79    11.9678     0.1536     0.0573     0.1338    11.9907     1.2813   214.0800    11.7766    -0.0067
  671   13.400   2418.89    11.7924     0.1534     0.0681     0.1340    11.8185     1.2987   214.4000    11.6041    -0.0062
  672   13.420   2419.94    11.6946     0.1526     0.0945     0.1342    11.7265     1.3048   214.7200    11.5118    -0.0051
  673   13.440   2421.07    11.7074     0.1523     0.1070     0.1344    11.7491     1.3010   215.0400    11.5341    -0.0030
  674   13.460   2422.13    11.6824     0.1535     0.0959     0.1346    11.7256     1.3129   215.3600    11.5103    -0.0028
  675   13.480   2423.26    11.5275     0.1494     0.0865     0.1348    11.5652     1.2942   215.6800    11.3495    -0.0040
  676   13.500   2424.31    11.3869     0.1461     0.0877     0.1350    11.4227     1.2753   216.0000    11.2067    -0.0044
  677   13.520   2425.39    11.2945     0.1451     0.0862     0.1352    11.3292     1.2821   216.3200    11.1129    -0.0047
  678   13.540   2426.53    11.3554     0.1434     0.1042     0.1354    11.3968     1.2703   216.6400    11.1802    -0.0033
  679   13.560   2427.63    11.6077     0.1370     0.1118     0.1356    11.6522     1.1966   216.9600    11.4353    -0.0026
  680   13.580   2428.70    12.1014     0.1346     0.1158     0.1358    12.1515     1.1333   217.2800    11.9342    -0.0014
  681   13.600   2429.83    12.6553     0.1330     0.1021     0.1360    12.7015     1.0699   217.6000    12.4839    -0.0021
  682   13.620   2430.92    13.2060     0.1317     0.0777     0.1362    13.2407     1.0148   217.9200    13.0227    -0.0041
  683   13.640   2432.09    13.7524     0.1292     0.0190     0.1364    13.7666     0.9491   218.2400    13.5484    -0.0076
  684   13.660   2433.19    14.0485     0.1272     0.0274     0.1366    14.0598     0.9139   218.5600    13.8412    -0.0079
  685   13.680   2434.33    14.2409     0.1296     0.0131     0.1368    14.2492     0.9114   218.8800    14.0303    -0.0083
  686   13.700   2435.47    14.3158     0.1360     0.0072     0.1370    14.3208     0.9508   219.2000    14.1016    -0.0089
  687   13.720   2436.56    14.3492     0.1416     0.0233     0.1372    14.3582     0.9874   219.5200    14.1387    -0.0082
  688   13.740   2437.72    14.4148     0.1412     0.0416     0.1374    14.4312     0.9820   219.8400    14.2114    -0.0069
  689   13.760   2438.82    14.5421     0.1374     0.0433     0.1376    14.5622     0.9488   220.1600    14.3420    -0.0062
  690   13.780   2439.95    14.6100     0.1335     0.0336     0.1378    14.6261     0.9119   220.4800    14.4056    -0.0069
  691   13.800   2441.10    14.4635     0.1272     0.0231     0.1380    14.4718     0.8711   220.8000    14.2510    -0.0083
  692   13.820   2442.17    14.2988     0.1263     0.0066     0.1382    14.3077     0.8787   221.1200    14.0866    -0.0083
  693   13.840   2443.32    14.1123     0.1179    -0.0013     0.1384    14.1131     0.8309   221.4400    13.8917    -0.0098
  694   13.860   2444.42    14.1562     0.1004    -0.0374     0.1386    14.1493     0.7121   221.7600    13.9275    -0.0111
  695   13.880   2445.53    14.4692     0.0846    -0.0890     0.1388    14.4394     0.5904   222.0800    14.2174    -0.0147
  696   13.900   2446.67    15.0296     0.0761    -0.0874     0.1390    14.9913     0.5130   222.4000    14.7689    -0.0156
  697   13.920   2447.85    15.7580     0.0702    -0.1534     0.1392    15.7108     0.4501   222.7200    15.4881    -0.0162
  698   13.940   2448.97    16.1477     0.0691    -0.2220     0.1394    16.0572     0.4303   223.0400    15.8341    -0.0224
  699   13.960   2450.12    16.4958     0.0643    -0.2222     0.1396    16.4015     0.3927   223.3600    16.1781    -0.0225
  700   13.980   2451.23    16.8749     0.0470    -0.2200     0.1398    16.7810     0.2793   223.6800    16.5573    -0.0219
  701   14.000   2452.38    17.0298     0.0398    -0.2127     0.1400    16.9390     0.2339   224.0000    16.7150    -0.0213
  702   14.020   2453.50    17.3248     0.0459    -0.1917     0.1402    17.2398     0.2666   224.3200    17.0155    -0.0201
  703   14.040   2454.67    18.3190     0.0515    -0.1745     0.1404    18.2428     0.2867   224.6400    18.0181    -0.0179
  704   14.060   2455.82    19.6957     0.0678    -0.1801     0.1406    19.6212     0.3513   224.9600    19.3962    -0.0164
  705   14.080   2456.94    20.5178     0.0921    -0.1836     0.1408    20.4388     0.4523   225.2800    20.2135    -0.0163
  706   14.100   2458.11    20.2639     0.1188    -0.1649     0.1410    20.1904     0.5819   225.6000    19.9648    -0.0158
  707   14.120   2459.25    19.4810     0.1431    -0.1422     0.1412    19.4181     0.7253   225.9200    19.1921    -0.0152
  708   14.140   2460.39    18.6474     0.1598    -0.1154     0.1414    18.5950     0.8442   226.2400    18.3687    -0.0145
  709   14.160   2461.59    17.8310     0.1722    -0.0718     0.1416    17.7945     0.9506   226.5600    17.5679    -0.0130
  710   14.180   2462.70    17.2599     0.1791    -0.0394     0.1418    17.2389     1.0287   226.8800    17.0120    -0.0113
  711   14.200   2463.81    16.8211     0.1730    -0.0177     0.1420    16.8121     1.0215   227.2000    16.5849    -0.0099
  712   14.220   2464.97    16.4259     0.1599     0.0099     0.1422    16.4257     0.9670   227.5200    16.1981    -0.0088
  713   14.240   2466.09    16.2090     0.1492     0.0323     0.1424    16.2192     0.9158   227.8400    15.9914    -0.0074
  714   14.260   2467.25    15.9806     0.1396     0.0485     0.1426    15.9995     0.8710   228.1600    15.7713    -0.0062
  715   14.280   2468.36    15.9322     0.1292     0.0303     0.1428    15.9478     0.8120   228.4800    15.7193    -0.0067
  716   14.300   2469.54    16.0297     0.1176     0.0405     0.1430    16.0447     0.7367   228.8000    15.8159    -0.0068
  717   14.320   2470.70    16.1680     0.1090     0.0472     0.1432    16.1871     0.6751   229.1200    15.9580    -0.0061
  718   14.340   2471.81    16.0224     0.1077     0.0311     0.1434    16.0389     0.6677   229.4400    15.8094    -0.0066
  719   14.360   2472.94    15.6210     0.1103     0.0143     0.1436    15.6278     0.7035   229.7600    15.3980    -0.0083
  720   14.380   2474.06    15.0816     0.1104     0.0064     0.1438    15.0840     0.7301   230.0800    14.8540    -0.0093
  721   14.400   2475.17    14.3984     0.1126    -0.0142     0.1440    14.3955     0.7776   230.4000    14.1651    -0.0107
  722   14.420   2476.27    13.6684     0.1174    -0.0123     0.1442    13.6630     0.8469   230.7200    13.4323    -0.0117
  723   14.440   2477.36    12.8925     0.1220    -0.0031     0.1444    12.8887     0.9414   231.0400    12.6577    -0.0121
  724   14.460   2478.44    12.1754     0.1186     0.0222     0.1446    12.1825     0.9641   231.3600    11.9511    -0.0107
  725   14.480   2479.56    11.4609     0.1084     0.0194     0.1448    11.4689     0.9290   231.6800    11.2373    -0.0112
  726   14.500   2480.67    10.6871     0.1036     0.0263     0.1450    10.6975     0.9562   232.0000    10.4655    -0.0115
  727   14.520   2481.79     9.8854     0.0998     0.0277     0.1452     9.8978     0.9918   232.3200     9.6655    -0.0120
  728   14.540   2482.85     8.9801     0.0991    -0.0267     0.1454     8.9801     1.0599   232.6400     8.7474    -0.0167
  729   14.560   2483.85     7.9761     0.0946    -0.0563     0.1456     7.9530     1.1613   232.9600     7.7201    -0.0260
  730   14.580   2487.60     7.0886     0.0828    -0.0439     0.1458     7.0691     1.1466   233.2800     6.8358    -0.0281
  731   14.600   2502.38     7.1227     0.0776    -0.0367     0.1460     7.1063     1.0963   233.6000     6.8727    -0.0270
  732   14.620   2516.09     7.1689     0.0749    -0.0650     0.1462     7.1527     1.0459   233.9200     6.9188    -0.0267
  733   14.640   2517.19     7.3034     0.0646    -0.0923     0.1464     7.2676     0.8856   234.2400     7.0333    -0.0329
  734   14.660   2518.25     7.3810     0.0618    -0.1281     0.1466     7.3302     0.8380   234.5600     7.0956    -0.0377
  735   14.680   2519.36     7.3843     0.0596    -0.1452     0.1468     7.3261     0.8052   234.8800     7.0912    -0.0402
  736   14.700   2520.45     7.2208     0.0563    -0.1652     0.1470     7.1533     0.7767   235.2000     6.9181    -0.0445
  737   14.720   2521.50     7.2987     0.0551    -0.1521     0.1472     7.2318     0.7565   235.5200     6.9963    -0.0438
  738   14.740   2522.62     7.3933     0.0559    -0.1704     0.1474     7.3267     0.7562   235.8400     7.0908    -0.0432
  739   14.760   2523.70     7.3457     0.0572    -0.1816     0.1476     7.2732     0.7754   236.1600     7.0371    -0.0455
  740   14.780   2524.78     6.9658     0.0666    -0.1949     0.1478     6.8845     0.9432   236.4800     6.6480    -0.0514
  741   14.800   2525.85     6.4380     0.0840    -0.1829     0.1480     6.3587     1.2786   236.8000     6.1219    -0.0550
  742   14.820   2526.92     5.7752     0.0963    -0.1711     0.1482     5.7016     1.6253   237.1200     5.4644    -0.0592
  743   14.840   2527.98     5.0999     0.0969    -0.1494     0.1484     5.0334     1.8455   237.4400     4.7959    -0.0640
  744   14.860   2529.00     4.4852     0.0913    -0.0995     0.1486     4.4355     1.9971   237.7600     4.1977    -0.0636
  745   14.880   2530.11     4.2987     0.0819    -0.0706     0.1488     4.2647     1.9040   238.0800     4.0266    -0.0570
  746   14.900   2531.16     4.4435     0.0670    -0.0343     0.1490     4.4235     1.5270   238.4000     4.1851    -0.0470
  747   14.920   2532.24     5.0762     0.0515    -0.0275     0.1492     5.0662     1.0417   238.7200     4.8275    -0.0359
  748   14.940   2533.32     6.2356     0.0432    -0.0401     0.1494     6.2245     0.7239   239.0400     5.9855    -0.0294
  749   14.960   2534.42     7.3050     0.0430    -0.0942     0.1496     7.2715     0.6051   239.3600     7.0321    -0.0326
  750   14.980   2535.53     7.8660     0.0475    -0.1471     0.1498     7.8133     0.6119   239.6800     7.5736    -0.0364
  751   15.000   2536.56     7.8946     0.0586    -0.1681     0.1500     7.8224     0.7395   240.0000     7.5824    -0.0424
  752   15.020   2537.67     7.5449     0.0840    -0.1724     0.1502     7.4735     1.0972   240.3200     7.2332    -0.0443
  753   15.040   2538.73     7.0347     0.1050    -0.1732     0.1504     6.9615     1.4695   240.6400     6.7208    -0.0483
  754   15.060   2539.75     6.5546     0.1140    -0.1680     0.1506     6.4826     1.7260   240.9600     6.2417    -0.0516
  755   15.080   2540.83     6.2772     0.1090    -0.1338     0.1508     6.2153     1.7306   241.2800     5.9740    -0.0499
  756   15.100   2541.88     6.3218     0.0879    -0.0941     0.1510     6.2777     1.3966   241.6000     6.0361    -0.0424
  757   15.120   2543.00     6.8447     0.0821    -0.0764     0.1512     6.8135     1.2236   241.9200     6.5716    -0.0343
  758   15.140   2544.08     7.7159     0.0753    -0.1135     0.1514     7.6766     1.0026   242.2400     7.4343    -0.0330
  759   15.160   2545.17     8.3514     0.0645    -0.1487     0.1516     8.2962     0.7765   242.5600     8.0537    -0.0351
  760   15.180   2546.25     8.0944     0.0750    -0.2070     0.1518     8.0145     0.9141   242.8800     7.7716    -0.0441
  761   15.200   2547.32     7.3564     0.0810    -0.2277     0.1520     7.2623     1.0722   243.2000     7.0191    -0.0536
  762   15.220   2548.38     6.4160     0.0945    -0.2374     0.1522     6.3178     1.4271   243.5200     6.0743    -0.0636
  763   15.240   2549.48     5.4883     0.1039    -0.2376     0.1524     5.3875     1.8379   243.8400     5.1437    -0.0763
  764   15.260   2550.55     4.8718     0.0973    -0.2295     0.1526     4.7740     1.9439   244.1600     4.5299    -0.0851
  765   15.280   2551.61     4.4469     0.0810    -0.2108     0.1528     4.3551     1.7784   244.4800     4.1106    -0.0904
  766   15.300   2552.68     4.1850     0.0655    -0.1834     0.1530     4.1039     1.5521   244.8000     3.8591    -0.0897
  767   15.320   2553.71     4.3115     0.0577    -0.1544     0.1532     4.2420     1.3624   245.1200     3.9969    -0.0798
  768   15.340   2554.78     4.5982     0.0521    -0.1202     0.1534     4.5425     1.1497   245.4400     4.2970    -0.0666
  769   15.360   2555.85     4.7362     0.0473    -0.1012     0.1536     4.6911     1.0041   245.7600     4.4453    -0.0588
  770   15.380   2556.90     4.6995     0.0508    -0.0856     0.1538     4.6623     1.0739   246.0800     4.4162    -0.0549
  771   15.400   2557.95     4.5006     0.0468    -0.0806     0.1540     4.4651     1.0202   246.4000     4.2187    -0.0566
  772   15.420   2559.00     4.1889     0.0409    -0.0665     0.1542     4.1599     0.9552   246.7200     3.9131    -0.0571
  773   15.440   2560.09     4.0316     0.0397    -0.0452     0.1544     4.0068     0.9770   247.0400     3.7598    -0.0568
  774   15.460   2561.14     4.0829     0.0376    -0.0265     0.1546     4.0714     0.9275   247.3600     3.8240    -0.0476
  775   15.480   2562.19     4.2126     0.0357    -0.0002     0.1548     4.2075     0.8579   247.6800     3.9598    -0.0422
  776   15.500   2563.23     4.2671     0.0332     0.0537     0.1550     4.2823     0.7758   248.0000     4.0343    -0.0294
  777   15.520   2564.28     3.9792     0.0395     0.0723     0.1552     4.0077     0.9661   248.3200     3.7594    -0.0233
  778   15.540   2565.35     3.5119     0.0409     0.1097     0.1554     3.5508     1.1271   248.6400     3.3022    -0.0190
  779   15.560   2566.40     3.0451     0.0430     0.1768     0.1556     3.1091     1.3714   248.9600     2.8602    -0.0010
  780   15.580   2567.45     2.6872     0.0507     0.2492     0.1558     2.7809     1.8476   249.2800     2.5316     0.0267
  781   15.600   2568.48     2.8453     0.0537     0.3151     0.1560     2.9693     1.9254   249.6000     2.7197     0.0511
  782   15.620   2569.58     3.4424     0.0573     0.2508     0.1562     3.5757     1.7393   249.9200     3.3258     0.0488
  783   15.640   2570.65     3.9507     0.0561     0.1077     0.1564     4.0101     1.4579   250.2400     3.7598    -0.0039
  784   15.660   2571.73     4.2812     0.0558     0.0793     0.1566     4.3168     1.3278   250.5600     4.0663    -0.0176
  785   15.680   2572.78     4.4499     0.0576     0.0337     0.1568     4.4714     1.3015   250.8800     4.2206    -0.0250
  786   15.700   2573.89     4.4622     0.0586     0.0160     0.1570     4.4644     1.3061   251.2000     4.2132    -0.0360
  787   15.720   2574.95     4.2456     0.0573     0.0585     0.1572     4.2622     1.3282   251.5200     4.0107    -0.0293
  788   15.740   2576.01     4.1690     0.0536     0.0519     0.1574     4.1982     1.2821   251.8400     3.9464    -0.0222
  789   15.760   2577.05     4.1191     0.0566     0.0382     0.1576     4.1359     1.3695   252.1600     3.8838    -0.0303
  790   15.780   2578.13     4.0059     0.0624     0.0561     0.1578     4.0240     1.5452   252.4800     3.7715    -0.0304
  791   15.800   2579.15     3.8453     0.0691     0.0922     0.1580     3.8769     1.7657   252.8000     3.6241    -0.0228
  792   15.820   2580.23     3.5559     0.0661     0.1208     0.1582     3.6058     1.8119   253.1200     3.3527    -0.0117
  793   15.840   2581.26     3.3473     0.0602     0.1349     0.1584     3.3991     1.7692   253.4400     3.1457    -0.0111
  794   15.860   2582.37     3.3983     0.0499     0.1607     0.1586     3.4631     1.4986   253.7600     3.2093    -0.0014
  795   15.880   2583.42     3.7326     0.0468     0.1858     0.1588     3.8112     1.2909   254.0800     3.5572     0.0080
  796   15.900   2584.42     4.0152     0.0554     0.1478     0.1590     4.0840     1.4021   254.4000     3.8296     0.0012
  797   15.920   2585.48     4.0496     0.0606     0.1203     0.1592     4.1040     1.4938   254.7200     3.8493    -0.0077
  798   15.940   2586.56     3.8708     0.0559     0.0780     0.1594     3.9091     1.4178   255.0400     3.6540    -0.0187
  799   15.960   2587.59     3.5605     0.0510     0.0701     0.1596     3.5903     1.3896   255.3600     3.3350    -0.0265
  800   15.980   2588.67     3.2867     0.0469     0.0842     0.1598     3.3182     1.3961   255.6800     3.0625    -0.0277
  801   16.000   2589.69     3.2463     0.0366     0.1101     0.1600     3.2879     1.1263   256.0000     3.0319    -0.0201
  802   16.020   2590.76     3.1326     0.0254     0.1625     0.1602     3.1958     0.7907   256.3200     2.9395    -0.0032
  803   16.040   2591.78     2.7329     0.0225     0.1671     0.1604     2.8029     0.7766   256.6400     2.5462     0.0024
  804   16.060   2592.82     2.1902     0.0199     0.1764     0.1606     2.2627     0.8435   256.9600     2.0058     0.0061
  805   16.080   2593.89     1.7198     0.0233     0.1942     0.1608     1.7990     1.2616   257.2800     1.5417     0.0181
  806   16.100   2594.90     1.3643     0.0293     0.2238     0.1610     1.4518     2.0487   257.6000     1.1942     0.0397
  807   16.120   2595.95     1.4612     0.0339     0.2612     0.1612     1.5681     2.4353   257.9200     1.3102     0.0713
  808   16.140   2596.98     1.8487     0.0351     0.2679     0.1614     1.9680     2.0099   258.2400     1.7097     0.0717
  809   16.160   2598.06     2.1999     0.0385     0.2408     0.1616     2.3026     1.8040   258.5600     2.0441     0.0406
  810   16.180   2599.13     2.2261     0.0443     0.2623     0.1618     2.3358     1.9833   258.8800     2.0770     0.0479
  811   16.200   2600.23     2.2288     0.0465     0.2691     0.1620     2.3394     2.0951   259.2000     2.0802     0.0488
  812   16.220   2601.27     2.2377     0.0484     0.2865     0.1622     2.3560     2.1833   259.5200     2.0965     0.0570
  813   16.240   2602.31     2.4208     0.0486     0.2781     0.1624     2.5399     2.0556   259.8400     2.2801     0.0532
  814   16.260   2603.38     2.8199     0.0434     0.2706     0.1626     2.9342     1.5972   260.1600     2.6741     0.0410
  815   16.280   2604.45     3.5030     0.0405     0.2491     0.1628     3.6117     1.2296   260.4800     3.3513     0.0287
  816   16.300   2605.54     4.2856     0.0386     0.1135     0.1630     4.3528     0.9468   260.8000     4.0920    -0.0007
  817   16.320   2606.60     4.8005     0.0399     0.0515     0.1632     4.8282     0.8522   261.1200     4.5671    -0.0212
  818   16.340   2607.65     4.9312     0.0456     0.0397     0.1634     4.9447     0.9236   261.4400     4.6832    -0.0281
  819   16.360   2608.72     4.7984     0.0619     0.0720     0.1636     4.8262     1.2767   261.7600     4.5645    -0.0213
  820   16.380   2609.78     4.6009     0.0624     0.0993     0.1638     4.6376     1.3405   262.0800     4.3755    -0.0175
  821   16.400   2610.83     4.4242     0.0578     0.1020     0.1640     4.4697     1.2948   262.4000     4.2073    -0.0132
  822   16.420   2611.88     4.4746     0.0604     0.0788     0.1642     4.5101     1.3633   262.7200     4.2474    -0.0188
  823   16.440   2612.94     4.7106     0.0527     0.1058     0.1644     4.7535     1.1324   263.0400     4.4905    -0.0139
  824   16.460   2613.98     4.9981     0.0488     0.0539     0.1646     5.0365     0.9921   263.3600     4.7732    -0.0153
  825   16.480   2615.07     5.3263     0.0441     0.0538     0.1648     5.3505     0.8361   263.6800     5.0868    -0.0211
  826   16.500   2616.15     5.5556     0.0447     0.0267     0.1650     5.5717     0.8184   264.0000     5.3077    -0.0239
  827   16.520   2617.19     5.7010     0.0457     0.0167     0.1652     5.7099     0.8134   264.3200     5.4456    -0.0264
  828   16.540   2618.25     5.8156     0.0476     0.0113     0.1654     5.8199     0.8236   264.6400     5.5552    -0.0279
  829   16.560   2619.33     5.9093     0.0584     0.0241     0.1656     5.9161     0.9923   264.9600     5.6512    -0.0264
  830   16.580   2620.40     5.9884     0.0672     0.0373     0.1658     6.0047     1.1258   265.2800     5.7394    -0.0222
  831   16.600   2627.29     6.0493     0.0704     0.0375     0.1660     6.0648     1.1719   265.6000     5.7992    -0.0223
  832   16.620   2640.30     6.1403     0.0719     0.0393     0.1662     6.1566     1.1974   265.9200     5.8906    -0.0217
  833   16.640   2653.31     6.2313     0.0722     0.0308     0.1664     6.2483     1.1773   266.2400     5.9821    -0.0210
  834   16.660   2654.62     5.9689     0.0692    -0.0005     0.1666     5.9713     1.1438   266.5600     5.7047    -0.0282
  835   16.680   2655.70     5.4992     0.0637     0.0018     0.1668     5.4981     1.1247   266.8800     5.2313    -0.0324
  836   16.700   2656.75     4.7953     0.0612     0.0191     0.1670     4.8004     1.2274   267.2000     4.5332    -0.0342
  837   16.720   2657.82     4.1744     0.0559     0.0281     0.1672     4.1855     1.2961   267.5200     3.9180    -0.0360
  838   16.740   2658.86     3.7141     0.0574     0.0683     0.1674     3.7377     1.5076   267.8400     3.4699    -0.0320
  839   16.760   2659.90     3.5443     0.0591     0.0892     0.1676     3.5774     1.6651   268.1600     3.3093    -0.0268
  840   16.780   2661.01     3.6741     0.0589     0.1664     0.1678     3.7335     1.6325   268.4800     3.4650    -0.0076
  841   16.800   2662.09     3.8943     0.0543     0.1897     0.1680     3.9698     1.4279   268.8000     3.7010     0.0032
  842   16.820   2663.14     4.3561     0.0435     0.1968     0.1682     4.4420     1.0343   269.1200     4.1729     0.0087
  843   16.840   2664.20     4.8377     0.0376     0.1667     0.1684     4.9070     0.8031   269.4400     4.6376    -0.0008
  844   16.860   2665.25     5.2147     0.0388     0.1434     0.1686     5.2813     0.7581   269.7600     5.0115    -0.0020
  845   16.880   2666.28     5.3338     0.0349     0.0913     0.1688     5.3787     0.6557   270.0800     5.1086    -0.0121
  846   16.900   2667.35     5.2712     0.0314     0.0719     0.1690     5.3024     0.5909   270.4000     5.0320    -0.0188
  847   16.920   2668.43     5.0516     0.0331     0.0682     0.1692     5.0793     0.6402   270.7200     4.8085    -0.0215
  848   16.940   2669.46     4.6804     0.0376     0.0529     0.1694     4.7037     0.7828   271.0400     4.4326    -0.0257
  849   16.960   2670.51     4.1672     0.0380     0.1001     0.1696     4.1998     0.8738   271.3600     3.9284    -0.0234
  850   16.980   2671.59     3.6909     0.0386     0.1369     0.1698     3.7468     1.0010   271.6800     3.4751    -0.0106
  851   17.000   2672.64     3.1943     0.0391     0.1511     0.1700     3.2618     1.1654   272.0000     2.9898    -0.0032
  852   17.020   2673.64     2.7507     0.0420     0.1701     0.1702     2.8184     1.4563   272.3200     2.5460    -0.0035
  853   17.040   2674.70     2.3906     0.0360     0.2060     0.1704     2.4737     1.4456   272.6400     2.2011     0.0126
  854   17.060   2675.75     2.1527     0.0301     0.2155     0.1706     2.2421     1.3635   272.9600     1.9691     0.0215
  855   17.080   2676.80     2.0445     0.0251     0.2265     0.1708     2.1386     1.2094   273.2800     1.8653     0.0285
  856   17.100   2677.85     1.9310     0.0231     0.2360     0.1710     2.0285     1.1671   273.6000     1.7549     0.0349
  857   17.120   2678.89     1.7761     0.0224     0.2519     0.1712     1.8792     1.2318   273.9200     1.6053     0.0463
  858   17.140   2679.99     1.6404     0.0220     0.2645     0.1714     1.7504     1.3173   274.2400     1.4762     0.0613
  859   17.160   2681.02     1.4787     0.0235     0.2859     0.1716     1.5954     1.5259   274.5600     1.3208     0.0804
  860   17.180   2682.04     1.3691     0.0282     0.3129     0.1718     1.4976     2.0488   274.8800     1.2227     0.1097
  861   17.200   2683.11     1.4868     0.0330     0.3565     0.1720     1.6319     2.3403   275.2000     1.3567     0.1281
  862   17.220   2684.18     1.9734     0.0301     0.3451     0.1722     2.1189     1.7098   275.5200     1.8434     0.0948
  863   17.240   2685.21     2.3101     0.0275     0.2830     0.1724     2.4372     1.2331   275.8400     2.1613     0.0602
  864   17.260   2686.24     2.1560     0.0273     0.2456     0.1726     2.2622     1.2145   276.1600     1.9860     0.0404
  865   17.280   2687.31     1.8173     0.0266     0.2591     0.1728     1.9250     1.3585   276.4800     1.6485     0.0508
  866   17.300   2688.35     1.5545     0.0228     0.2772     0.1730     1.6663     1.3802   276.8000     1.3895     0.0672
  867   17.320   2689.41     1.3170     0.0228     0.3122     0.1732     1.4432     1.6550   277.1200     1.1661     0.1094
  868   17.340   2690.41     1.1997     0.0213     0.3250     0.1734     1.3355     1.7207   277.4400     1.0580     0.1416
  869   17.360   2691.44     1.1236     0.0198     0.3399     0.1736     1.2619     1.7194   277.7600     0.9841     0.1582
  870   17.380   2692.49     1.0780     0.0177     0.3623     0.1738     1.2278     1.6238   278.0800     0.9497     0.1926
  871   17.400   2693.54     1.1103     0.0194     0.3761     0.1740     1.2658     1.7754   278.4000     0.9874     0.1986
  872   17.420   2694.60     1.2380     0.0195     0.4005     0.1742     1.3999     1.6559   278.7200     1.1212     0.1886
  873   17.440   2695.61     1.3694     0.0195     0.3787     0.1744     1.5324     1.4756   279.0400     1.2534     0.1708
  874   17.460   2696.67     1.4766     0.0213     0.4077     0.1746     1.6454     1.4620   279.3600     1.3660     0.1665
  875   17.480   2697.69     1.4155     0.0217     0.4034     0.1748     1.5838     1.5091   279.6800     1.3041     0.1733
  876   17.500   2698.77     1.3032     0.0224     0.4235     0.1750     1.4791     1.6631   280.0000     1.1991     0.2034
  877   17.520   2699.80     1.2694     0.0218     0.4423     0.1752     1.4513     1.7130   280.3200     1.1710     0.2202
  878   17.540   2700.87     1.2459     0.0209     0.4408     0.1754     1.4319     1.6612   280.6400     1.1513     0.2322
  879   17.560   2701.91     1.1797     0.0191     0.4508     0.1756     1.3666     1.5784   280.9600     1.0856     0.2481
  880   17.580   2702.91     1.0940     0.0174     0.4865     0.1758     1.2932     1.5556   281.2800     1.0119     0.2950
  881   17.600   2703.95     1.0289     0.0180     0.5019     0.1760     1.2352     1.7255   281.6000     0.9536     0.3304
  882   17.620   2705.04     1.0042     0.0166     0.5113     0.1762     1.2220     1.6475   281.9200     0.9400     0.3642
  883   17.640   2706.07     1.0265     0.0172     0.4930     0.1764     1.2337     1.6880   282.2400     0.9514     0.3333
  884   17.660   2707.12     1.0686     0.0187     0.4682     0.1766     1.2730     1.7618   282.5600     0.9904     0.3130
  885   17.680   2708.20     1.0875     0.0193     0.4670     0.1768     1.2844     1.7901   282.8800     1.0015     0.2915
  886   17.700   2709.25     1.1267     0.0205     0.4529     0.1770     1.3207     1.8333   283.2000     1.0375     0.2745
  887   17.720   2710.30     1.1643     0.0215     0.4405     0.1772     1.3494     1.8690   283.5200     1.0659     0.2474
  888   17.740   2711.35     1.1742     0.0230     0.4515     0.1774     1.3620     1.9491   283.8400     1.0781     0.2501
  889   17.760   2712.42     1.1858     0.0236     0.4437     0.1776     1.3743     1.9983   284.1600     1.0902     0.2489
  890   17.780   2713.48     1.2102     0.0241     0.4450     0.1778     1.3999     2.0273   284.4800     1.1155     0.2456
  891   17.800   2714.52     1.2133     0.0243     0.4302     0.1780     1.3951     1.9870   284.8000     1.1103     0.2296
  892   17.820   2715.58     1.2015     0.0243     0.3933     0.1782     1.3822     2.0251   285.1200     1.0971     0.2298
  893   17.840   2716.61     1.1853     0.0240     0.4222     0.1784     1.3614     2.0172   285.4400     1.0759     0.2238
  894   17.860   2717.63     1.1842     0.0248     0.4190     0.1786     1.3629     2.1055   285.7600     1.0771     0.2292
  895   17.880   2718.70     1.2249     0.0253     0.4322     0.1788     1.4043     2.0902   286.0800     1.1182     0.2220
  896   17.900   2719.74     1.2252     0.0249     0.4750     0.1790     1.4186     1.9929   286.4000     1.1322     0.2489
  897   17.920   2720.78     1.1926     0.0249     0.4880     0.1792     1.3973     2.1031   286.7200     1.1106     0.2774
  898   17.940   2721.82     1.2334     0.0252     0.4845     0.1794     1.4333     2.0498   287.0400     1.1462     0.2586
  899   17.960   2722.86     1.1947     0.0259     0.5130     0.1796     1.4067     2.1261   287.3600     1.1193     0.2905
  900   17.980   2723.87     1.1379     0.0255     0.5410     0.1798     1.3616     2.2066   287.6800     1.0739     0.3285
  901   18.000   2724.95     1.0967     0.0252     0.5672     0.1800     1.3316     2.2819   288.0000     1.0436     0.3634
  902   18.020   2725.97     1.0890     0.0244     0.5803     0.1802     1.3303     2.2212   288.3200     1.0420     0.3785
  903   18.040   2727.02     1.0414     0.0238     0.6107     0.1804     1.2918     2.2522   288.6400     1.0032     0.4145
  904   18.060   2728.07     1.0227     0.0222     0.6346     0.1806     1.2868     2.1514   288.9600     0.9978     0.4492
  905   18.080   2729.08     1.0162     0.0207     0.6532     0.1808     1.2873     2.0411   289.2800     0.9980     0.4657
  906   18.100   2730.18     1.0209     0.0194     0.6617     0.1810     1.2978     1.9045   289.6000     1.0082     0.4743
  907   18.120   2731.21     1.0261     0.0203     0.6807     0.1812     1.3087     1.9770   289.9200     1.0188     0.4825
  908   18.140   2732.25     1.0518     0.0206     0.6896     0.1814     1.3409     1.9825   290.2400     1.0507     0.4825
  909   18.160   2733.31     1.0753     0.0201     0.6987     0.1816     1.3674     1.8668   290.5600     1.0769     0.4772
  910   18.180   2734.39     1.0592     0.0200     0.6916     0.1818     1.3512     1.8891   290.8800     1.0603     0.4844
  911   18.200   2735.43     1.0576     0.0199     0.6965     0.1820     1.3478     1.8697   291.2000     1.0566     0.4816
  912   18.220   2736.50     1.0233     0.0205     0.7229     0.1822     1.3227     1.9820   291.5200     1.0311     0.5145
  913   18.240   2737.55     1.0023     0.0206     0.7423     0.1824     1.3125     2.0459   291.8400     1.0207     0.5449
  914   18.260   2738.58     0.9952     0.0210     0.7529     0.1826     1.3104     2.1038   292.1600     1.0182     0.5577
  915   18.280   2739.66     0.9951     0.0209     0.7563     0.1828     1.3119     2.1026   292.4800     1.0194     0.5606
  916   18.300   2740.70     1.0016     0.0214     0.7720     0.1830     1.3243     2.1414   292.8000     1.0315     0.5675
  917   18.320   2741.74     1.0056     0.0214     0.7837     0.1832     1.3338     2.1385   293.1200     1.0407     0.5747
  918   18.340   2742.76     1.0165     0.0212     0.7927     0.1834     1.3476     2.1027   293.4400     1.0542     0.5739
  919   18.360   2743.78     1.0171     0.0220     0.8046     0.1836     1.3535     2.1552   293.7600     1.0597     0.5825
  920   18.380   2744.84     1.0307     0.0223     0.8117     0.1838     1.3706     2.1858   294.0800     1.0765     0.5810
  921   18.400   2745.85     1.0367     0.0224     0.8124     0.1840     1.3776     2.1602   294.4000     1.0832     0.5796
  922   18.420   2746.92     1.0195     0.0225     0.8118     0.1842     1.3609     2.1832   294.7200     1.0661     0.5896
  923   18.440   2747.97     1.0362     0.0226     0.8185     0.1844     1.3780     2.1959   295.0400     1.0830     0.5812
  924   18.460   2748.97     1.0391     0.0227     0.8253     0.1846     1.3858     2.1789   295.3600     1.0904     0.5878
  925   18.480   2750.04     1.0328     0.0229     0.8304     0.1848     1.3807     2.2137   295.6800     1.0851     0.5932
  926   18.500   2751.05     1.0357     0.0231     0.8342     0.1850     1.3856     2.2378   296.0000     1.0896     0.5950
  927   18.520   2752.12     1.0547     0.0234     0.8326     0.1852     1.4066     2.2324   296.3200     1.1102     0.5878
  928   18.540   2753.16     1.0665     0.0239     0.8239     0.1854     1.4141     2.2513   296.6400     1.1174     0.5746
  929   18.560   2754.21     1.0819     0.0235     0.8319     0.1856     1.4294     2.1760   296.9600     1.1325     0.5668
  930   18.580   2755.27     1.0709     0.0242     0.8359     0.1858     1.4208     2.2509   297.2800     1.1235     0.5761
  931   18.600   2756.31     1.0699     0.0240     0.8383     0.1860     1.4230     2.2525   297.6000     1.1254     0.5817
  932   18.620   2767.58     1.0854     0.0240     0.8310     0.1862     1.4354     2.2336   297.9200     1.1375     0.5692
  933   18.640   2781.33     1.1002     0.0240     0.8218     0.1864     1.4472     2.2391   298.2400     1.1489     0.5569
  934   18.660   2784.90     1.0701     0.0238     0.8384     0.1866     1.4190     2.2137   298.5600     1.1204     0.5749
  935   18.680   2785.96     1.0484     0.0240     0.8471     0.1868     1.4031     2.2750   298.8800     1.1042     0.5955
  936   18.700   2786.99     1.0508     0.0238     0.8584     0.1870     1.4090     2.2661   299.2000     1.1098     0.5999
  937   18.720   2788.06     1.0673     0.0234     0.8618     0.1872     1.4295     2.2092   299.5200     1.1300     0.5975
  938   18.740   2789.08     1.0714     0.0231     0.8682     0.1874     1.4352     2.1525   299.8400     1.1354     0.5979
  939   18.760   2790.14     1.0614     0.0234     0.8642     0.1876     1.4262     2.1965   300.1600     1.1260     0.6046
  940   18.780   2791.20     1.0581     0.0235     0.8630     0.1878     1.4217     2.2102   300.4800     1.1212     0.6045
  941   18.800   2792.23     1.0521     0.0230     0.8656     0.1880     1.4149     2.1902   300.8000     1.1141     0.6065
  942   18.820   2793.30     1.0422     0.0226     0.8757     0.1882     1.4087     2.1551   301.1200     1.1076     0.6179
  943   18.840   2794.32     1.0358     0.0225     0.8744     0.1884     1.4038     2.1737   301.4400     1.1024     0.6240
  944   18.860   2795.37     1.0278     0.0222     0.8728     0.1886     1.3944     2.1513   301.7600     1.0926     0.6263
  945   18.880   2796.41     1.0359     0.0227     0.8786     0.1888     1.4045     2.2000   302.0800     1.1024     0.6248
  946   18.900   2797.43     1.0332     0.0225     0.8864     0.1890     1.4026     2.1646   302.4000     1.1002     0.6277
  947   18.920   2798.48     1.0267     0.0228     0.8899     0.1892     1.4010     2.2263   302.7200     1.0983     0.6392
  948   18.940   2799.54     1.0405     0.0227     0.8760     0.1894     1.4107     2.1862   303.0400     1.1077     0.6248
  949   18.960   2800.61     1.0516     0.0232     0.8733     0.1896     1.4171     2.2127   303.3600     1.1137     0.6112
  950   18.980   2801.62     1.0460     0.0237     0.8685     0.1898     1.4125     2.2580   303.6800     1.1088     0.6159
  951   19.000   2802.68     1.0492     0.0241     0.8731     0.1900     1.4144     2.3042   304.0000     1.1104     0.6119
  952   19.020   2803.75     1.0477     0.0238     0.8696     0.1902     1.4134     2.2686   304.3200     1.1090     0.6135
  953   19.040   2804.79     1.0508     0.0241     0.8760     0.1904     1.4173     2.2970   304.6400     1.1127     0.6133
  954   19.060   2805.88     1.0579     0.0236     0.8808     0.1906     1.4279     2.2353   304.9600     1.1230     0.6149
  955   19.080   2806.90     1.0490     0.0239     0.8837     0.1908     1.4200     2.2788   305.2800     1.1147     0.6214
  956   19.100   2807.94     1.0529     0.0237     0.8860     0.1910     1.4232     2.2562   305.6000     1.1176     0.6180
  957   19.120   2808.99     1.0627     0.0236     0.8970     0.1912     1.4379     2.2190   305.9200     1.1320     0.6203
  958   19.140   2810.07     1.0582     0.0234     0.8995     0.1914     1.4352     2.2120   306.2400     1.1289     0.6254
  959   19.160   2811.12     1.0747     0.0238     0.9008     0.1916     1.4516     2.2208   306.5600     1.1450     0.6163
  960   19.180   2812.19     1.0616     0.0241     0.8926     0.1918     1.4369     2.2614   306.8800     1.1301     0.6211
  961   19.200   2813.23     1.0585     0.0241     0.8929     0.1920     1.4336     2.2727   307.2000     1.1264     0.6225
  962   19.220   2814.28     1.0567     0.0239     0.8976     0.1922     1.4334     2.2634   307.5200     1.1259     0.6259
  963   19.240   2815.35     1.0557     0.0243     0.8984     0.1924     1.4323     2.3130   307.8400     1.1245     0.6265
  964   19.260   2816.41     1.0647     0.0241     0.9073     0.1926     1.4447     2.2650   308.1600     1.1365     0.6266
  965   19.280   2817.46     1.0774     0.0242     0.9059     0.1928     1.4593     2.2602   308.4800     1.1508     0.6225
  966   19.300   2818.55     1.0795     0.0247     0.8884     0.1930     1.4553     2.2955   308.8000     1.1465     0.6121
  967   19.320   2819.57     1.0870     0.0248     0.8839     0.1932     1.4589     2.2819   309.1200     1.1498     0.6020
  968   19.340   2820.63     1.0957     0.0249     0.8839     0.1934     1.4673     2.2713   309.4400     1.1578     0.5970
  969   19.360   2821.67     1.0902     0.0254     0.8837     0.1936     1.4616     2.3283   309.7600     1.1519     0.5996
  970   19.380   2822.67     1.0922     0.0252     0.8859     0.1938     1.4634     2.3170   310.0800     1.1534     0.5983
  971   19.400   2823.73     1.0932     0.0250     0.8955     0.1940     1.4675     2.2863   310.4000     1.1571     0.6025
  972   19.420   2824.79     1.0859     0.0255     0.8996     0.1942     1.4632     2.3427   310.7200     1.1525     0.6110
  973   19.440   2825.84     1.0921     0.0250     0.9075     0.1944     1.4720     2.3021   311.0400     1.1610     0.6118
  974   19.460   2826.91     1.0968     0.0254     0.9187     0.1946     1.4809     2.3132   311.3600     1.1695     0.6155
  975   19.480   2827.95     1.0932     0.0252     0.9219     0.1948     1.4807     2.2972   311.6800     1.1690     0.6226
  976   19.500   2828.97     1.0847     0.0250     0.9079     0.1950     1.4684     2.2987   312.0000     1.1564     0.6213
  977   19.520   2830.07     1.0931     0.0249     0.8971     0.1952     1.4717     2.2768   312.3200     1.1594     0.6092
  978   19.540   2831.08     1.0864     0.0247     0.9095     0.1954     1.4657     2.2783   312.6400     1.1530     0.6138
  979   19.560   2832.15     1.0754     0.0245     0.9132     0.1956     1.4598     2.2666   312.9600     1.1468     0.6274
  980   19.580   2833.16     1.0627     0.0248     0.9167     0.1958     1.4471     2.3293   313.2800     1.1338     0.6344
  981   19.600   2834.22     1.0734     0.0241     0.9200     0.1960     1.4593     2.2479   313.6000     1.1457     0.6310
  982   19.620   2835.24     1.0737     0.0242     0.9232     0.1962     1.4619     2.2403   313.9200     1.1480     0.6343
  983   19.640   2836.32     1.0707     0.0242     0.9118     0.1964     1.4540     2.2764   314.2400     1.1397     0.6283
  984   19.660   2837.39     1.0914     0.0240     0.9200     0.1966     1.4777     2.2035   314.5600     1.1631     0.6218
  985   19.680   2838.47     1.0862     0.0238     0.9209     0.1968     1.4724     2.1830   314.8800     1.1575     0.6244
  986   19.700   2839.52     1.0866     0.0243     0.9164     0.1970     1.4721     2.2402   315.2000     1.1569     0.6232
  987   19.720   2840.53     1.0927     0.0245     0.9200     0.1972     1.4787     2.2487   315.5200     1.1632     0.6205
  988   19.740   2841.61     1.0993     0.0249     0.9245     0.1974     1.4880     2.2713   315.8400     1.1721     0.6211
  989   19.760   2842.65     1.1043     0.0250     0.9244     0.1976     1.4926     2.2652   316.1600     1.1765     0.6180
  990   19.780   2843.76     1.1263     0.0249     0.9204     0.1978     1.5128     2.2305   316.4800     1.1964     0.6039
  991   19.800   2844.77     1.1373     0.0257     0.9241     0.1980     1.5253     2.2594   316.8000     1.2085     0.6006
  992   19.820   2845.86     1.1463     0.0248     0.9164     0.1982     1.5331     2.1720   317.1200     1.2160     0.5943
  993   19.840   2846.92     1.1501     0.0251     0.9112     0.1984     1.5331     2.1886   317.4400     1.2156     0.5868
  994   19.860   2847.93     1.1776     0.0269     0.9040     0.1986     1.5575     2.3196   317.7600     1.2398     0.5695
  995   19.880   2848.98     1.2408     0.0269     0.9016     0.1988     1.6208     2.1997   318.0800     1.3028     0.5420
  996   19.900   2850.03     1.2636     0.0297     0.8774     0.1990     1.6386     2.3534   318.4000     1.3202     0.5256
  997   19.920   2851.06     1.3238     0.0315     0.7310     0.1992     1.6538     2.4294   318.7200     1.3351     0.4393
  998   19.940   2852.13     1.3211     0.0322     0.6876     0.1994     1.5831     2.4275   319.0400     1.2641     0.3352
  999   19.960   2853.14     1.4075     0.0320     0.6893     0.1996     1.6960     2.3179   319.3600     1.3767     0.3540
 1000   19.980   2854.21     1.4462     0.0327     0.4625     0.1998     1.6526     2.2560   319.6800     1.3330     0.2177
 1001   20.000   2855.28     1.2217     0.0310     0.6040     0.2000     1.4684     2.4056   320.0000     1.1484     0.3376
 1002   20.020   2856.34     1.2143     0.0314     0.6925     0.2002     1.4953     2.5829   320.3200     1.1750     0.3991
 1003   20.040   2857.37     1.1907     0.0305     0.7434     0.2004     1.4968     2.5443   320.6400     1.1761     0.4493
 1004   20.060   2858.39     1.1914     0.0258     0.7769     0.2006     1.5125     2.1831   320.9600     1.1915     0.4733
 1005   20.080   2859.48     1.1824     0.0264     0.8036     0.2008     1.5175     2.2212   321.2800     1.1962     0.4990
 1006   20.100   2860.48     1.1859     0.0264     0.8275     0.2010     1.5299     2.2320   321.6000     1.2083     0.5113
 1007   20.120   2861.53     1.1845     0.0265     0.8491     0.2012     1.5377     2.2362   321.9200     1.2158     0.5262
 1008   20.140   2862.58     1.1857     0.0268     0.8651     0.2014     1.5471     2.2560   322.2400     1.2248     0.5380
 1009   20.160   2863.64     1.1840     0.0270     0.8707     0.2016     1.5507     2.2817   322.5600     1.2282     0.5469
 1010   20.180   2864.71     1.1923     0.0273     0.8793     0.2018     1.5601     2.2989   322.8800     1.2372     0.5446
 1011   20.200   2865.79     1.2071     0.0277     0.8815     0.2020     1.5760     2.2987   323.2000     1.2528     0.5398
 1012   20.220   2866.82     1.2086     0.0285     0.8911     0.2022     1.5811     2.3669   323.5200     1.2576     0.5445
 1013   20.240   2867.90     1.2077     0.0282     0.9024     0.2024     1.5841     2.3247   323.8400     1.2603     0.5506
 1014   20.260   2868.94     1.2128     0.0283     0.9212     0.2026     1.5962     2.3340   324.1600     1.2720     0.5584
 1015   20.280   2869.98     1.2151     0.0282     0.9358     0.2028     1.6073     2.3193   324.4800     1.2828     0.5699
 1016   20.300   2871.04     1.2166     0.0282     0.9346     0.2030     1.6124     2.3210   324.8000     1.2876     0.5741
 1017   20.320   2872.11     1.2173     0.0279     0.9392     0.2032     1.6111     2.2849   325.1200     1.2860     0.5712
 1018   20.340   2873.13     1.2158     0.0278     0.9502     0.2034     1.6139     2.2853   325.4400     1.2885     0.5778
 1019   20.360   2874.17     1.2173     0.0285     0.9634     0.2036     1.6207     2.3401   325.7600     1.2950     0.5846
 1020   20.380   2875.20     1.2153     0.0297     0.9643     0.2038     1.6201     2.4308   326.0800     1.2940     0.5874
 1021   20.400   2876.23     1.2241     0.0308     0.9739     0.2040     1.6319     2.5216   326.4000     1.3055     0.5876
 1022   20.420   2877.32     1.2345     0.0308     0.9807     0.2042     1.6453     2.5010   326.7200     1.3186     0.5869
 1023   20.440   2878.37     1.2318     0.0299     0.9829     0.2044     1.6449     2.4260   327.0400     1.3179     0.5912
 1024   20.460   2883.66     1.2394     0.0299     0.9921     0.2046     1.6540     2.4213   327.3600     1.3267     0.5898
 1025   20.480   2895.80     1.2554     0.0304     1.0067     0.2048     1.6761     2.4671   327.6800     1.3484     0.5909
 1026   20.500   2907.94     1.2713     0.0302     1.0212     0.2050     1.6981     2.4481   328.0000     1.3701     0.5921
 1027   20.520   2913.58     1.2866     0.0298     1.0415     0.2052     1.7214     2.3189   328.3200     1.3930     0.5957
 1028   20.540   2914.62     1.3046     0.0301     1.0450     0.2054     1.7414     2.3184   328.6400     1.4127     0.5907
 1029   20.560   2915.69     1.3050     0.0294     1.0505     0.2056     1.7442     2.2558   328.9600     1.4153     0.5937
 1030   20.580   2916.73     1.2729     0.0290     1.0248     0.2058     1.7088     2.2471   329.2800     1.3796     0.6031
 1031   20.600   2917.75     1.2347     0.0285     1.0046     0.2060     1.6586     2.3002   329.6000     1.3290     0.6044
 1032   20.620   2918.82     1.2197     0.0286     1.0107     0.2062     1.6416     2.3452   329.9200     1.3117     0.6085
 1033   20.640   2919.90     1.2116     0.0291     1.0192     0.2064     1.6400     2.3983   330.2400     1.3097     0.6212
 1034   20.660   2920.93     1.2107     0.0279     1.0243     0.2066     1.6400     2.3095   330.5600     1.3094     0.6228
 1035   20.680   2922.03     1.2175     0.0271     1.0196     0.2068     1.6468     2.2293   330.8800     1.3159     0.6196
 1036   20.700   2923.11     1.2284     0.0269     1.0195     0.2070     1.6555     2.1977   331.2000     1.3243     0.6116
 1037   20.720   2924.12     1.2322     0.0274     1.0180     0.2072     1.6606     2.2196   331.5200     1.3291     0.6115
 1038   20.740   2925.18     1.2213     0.0280     1.0123     0.2074     1.6463     2.2887   331.8400     1.3144     0.6120
 1039   20.760   2926.24     1.2137     0.0275     1.0032     0.2076     1.6366     2.2526   332.1600     1.3044     0.6128
 1040   20.780   2927.30     1.2073     0.0274     1.0004     0.2078     1.6272     2.2712   332.4800     1.2947     0.6116
 1041   20.800   2928.38     1.2117     0.0268     0.9882     0.2080     1.6288     2.2198   332.8000     1.2960     0.6058
 1042   20.820   2929.40     1.2169     0.0273     0.9877     0.2082     1.6308     2.2417   333.1200     1.2977     0.5990
 1043   20.840   2930.48     1.2217     0.0277     0.9939     0.2084     1.6386     2.2693   333.4400     1.3052     0.6008
 1044   20.860   2931.52     1.2091     0.0277     0.9871     0.2086     1.6243     2.2865   333.7600     1.2906     0.6045
 1045   20.880   2932.54     1.2011     0.0275     0.9808     0.2088     1.6137     2.2912   334.0800     1.2796     0.6045
 1046   20.900   2933.59     1.1999     0.0276     0.9864     0.2090     1.6128     2.2933   334.4000     1.2784     0.6056
 1047   20.920   2934.62     1.1915     0.0273     0.9883     0.2092     1.6067     2.2897   334.7200     1.2720     0.6128
 1048   20.940   2935.69     1.1841     0.0271     0.9871     0.2094     1.5985     2.2843   335.0400     1.2635     0.6153
 1049   20.960   2936.74     1.1888     0.0269     0.9897     0.2096     1.6046     2.2659   335.3600     1.2692     0.6147
 1050   20.980   2937.80     1.1866     0.0266     0.9936     0.2098     1.6031     2.2408   335.6800     1.2675     0.6170
 1051   21.000   2938.84     1.1955     0.0268     0.9982     0.2100     1.6141     2.2447   336.0000     1.2781     0.6155
 1052   21.020   2939.89     1.1941     0.0267     0.9911     0.2102     1.6118     2.2426   336.3200     1.2755     0.6150
 1053   21.040   2940.91     1.1969     0.0264     0.9924     0.2104     1.6124     2.2094   336.6400     1.2758     0.6105
 1054   21.060   2941.99     1.1874     0.0263     0.9967     0.2106     1.6047     2.2165   336.9600     1.2677     0.6176
 1055   21.080   2943.04     1.1911     0.0264     0.9883     0.2108     1.6076     2.2212   337.2800     1.2703     0.6147
 1056   21.100   2944.10     1.1799     0.0257     0.9886     0.2110     1.5940     2.1679   337.6000     1.2564     0.6168
 1057   21.120   2945.15     1.1734     0.0255     0.9825     0.2112     1.5873     2.1715   337.9200     1.2494     0.6196
 1058   21.140   2946.24     1.1628     0.0257     0.9754     0.2114     1.5724     2.1879   338.2400     1.2341     0.6190
 1059   21.160   2947.32     1.1656     0.0253     0.9778     0.2116     1.5761     2.1706   338.5600     1.2376     0.6189
 1060   21.180   2948.39     1.1666     0.0249     0.9748     0.2118     1.5781     2.1338   338.8800     1.2392     0.6197
 1061   21.200   2949.39     1.1522     0.0240     0.9672     0.2120     1.5595     2.0771   339.2000     1.2203     0.6210
 1062   21.220   2950.47     1.1410     0.0239     0.9614     0.2122     1.5443     2.0875   339.5200     1.2048     0.6210
 1063   21.240   2951.52     1.1142     0.0241     0.9557     0.2124     1.5167     2.1494   339.8400     1.1769     0.6339
 1064   21.260   2952.59     1.1019     0.0240     0.9513     0.2126     1.5019     2.1785   340.1600     1.1617     0.6368
 1065   21.280   2953.65     1.0857     0.0241     0.9580     0.2128     1.4875     2.2096   340.4800     1.1470     0.6485
 1066   21.300   2954.71     1.0800     0.0227     0.9564     0.2130     1.4823     2.1086   340.8000     1.1415     0.6526
 1067   21.320   2955.77     1.0737     0.0196     0.9556     0.2132     1.4743     1.8221   341.1200     1.1331     0.6534
 1068   21.340   2956.84     1.0783     0.0171     0.9675     0.2134     1.4830     1.5888   341.4400     1.1416     0.6571
 1069   21.360   2957.88     1.1155     0.0204     0.9758     0.2136     1.5232     1.8543   341.7600     1.1814     0.6408
 1070   21.380   2958.94     1.2228     0.0262     0.9925     0.2138     1.6395     2.2402   342.0800     1.2974     0.6008
 1071   21.400   2959.99     1.5687     0.0248     0.9088     0.2140     1.9669     1.7222   342.4000     1.6245     0.4532
 1072   21.420   2961.04     1.8472     0.0236     0.8200     0.2142     2.1878     1.3288   342.7200     1.8450     0.3234
 1073   21.440   2962.10     1.9295     0.0215     0.6245     0.2144     2.2113     1.1089   343.0400     1.8683     0.2440
 1074   21.460   2963.12     1.7013     0.0209     0.6744     0.2146     1.9753     1.1707   343.3600     1.6320     0.2693
 1075   21.480   2964.18     1.4077     0.0219     0.7039     0.2148     1.6974     1.4817   343.6800     1.3537     0.3515
 1076   21.500   2965.23     1.2172     0.0220     0.7460     0.2150     1.5263     1.7214   344.0000     1.1823     0.4413
 1077   21.520   2966.29     1.1209     0.0207     0.7836     0.2152     1.4429     1.8076   344.3200     1.0986     0.5021
 1078   21.540   2967.34     1.0737     0.0200     0.8164     0.2154     1.4130     1.8451   344.6400     1.0684     0.5545
 1079   21.560   2968.39     1.1157     0.0198     0.8325     0.2156     1.4632     1.8199   344.9600     1.1182     0.5471
 1080   21.580   2969.47     1.1409     0.0203     0.8493     0.2158     1.4965     1.7908   345.2800     1.1512     0.5481
 1081   21.600   2970.48     1.1914     0.0203     0.8401     0.2160     1.5426     1.7194   345.6000     1.1970     0.5182
 1082   21.620   2971.55     1.2382     0.0200     0.8388     0.2162     1.5900     1.6358   345.9200     1.2441     0.4995
 1083   21.640   2972.65     1.2456     0.0197     0.8234     0.2164     1.5923     1.5667   346.2400     1.2461     0.4889
 1084   21.660   2973.69     1.2068     0.0202     0.8355     0.2166     1.5545     1.6646   346.5600     1.2080     0.5061
 1085   21.680   2974.75     1.1460     0.0201     0.8698     0.2168     1.5061     1.7346   346.8800     1.1592     0.5527
 1086   21.700   2975.82     1.1185     0.0205     0.8881     0.2170     1.4911     1.8191   347.2000     1.1439     0.5859
 1087   21.720   2976.87     1.1515     0.0211     0.8919     0.2172     1.5248     1.8490   347.5200     1.1773     0.5704
 1088   21.740   2977.90     1.1687     0.0201     0.8969     0.2174     1.5457     1.7301   347.8400     1.1979     0.5678
 1089   21.760   2978.98     1.2188     0.0207     0.8979     0.2176     1.5968     1.7062   348.1600     1.2486     0.5464
 1090   21.780   2980.07     1.2186     0.0216     0.8944     0.2178     1.5956     1.7709   348.4800     1.2471     0.5451
 1091   21.800   2981.10     1.1706     0.0217     0.9234     0.2180     1.5506     1.8221   348.8000     1.2018     0.5716
 1092   21.820   2982.16     1.1346     0.0219     0.9320     0.2182     1.5249     1.9086   349.1200     1.1757     0.6047
 1093   21.840   2983.20     1.1246     0.0222     0.9476     0.2184     1.5201     1.9659   349.4400     1.1707     0.6178
 1094   21.860   2984.27     1.1209     0.0233     0.9670     0.2186     1.5245     2.0896   349.7600     1.1748     0.6319
 1095   21.880   2985.30     1.1303     0.0241     0.9779     0.2188     1.5415     2.1439   350.0800     1.1914     0.6381
 1096   21.900   2986.38     1.1489     0.0238     0.9767     0.2190     1.5592     2.0804   350.4000     1.2088     0.6270
 1097   21.920   2987.42     1.1640     0.0240     0.9798     0.2192     1.5738     2.0696   350.7200     1.2231     0.6185
 1098   21.940   2988.45     1.1832     0.0247     1.0063     0.2194     1.6022     2.0928   351.0400     1.2511     0.6219
 1099   21.960   2989.53     1.1903     0.0252     1.0228     0.2196     1.6184     2.1133   351.3600     1.2671     0.6311
 1100   21.980   2990.57     1.1731     0.0258     1.0173     0.2198     1.6008     2.1909   351.6800     1.2491     0.6392
 1101   22.000   2991.63     1.1889     0.0252     1.0350     0.2200     1.6206     2.1258   352.0000     1.2686     0.6368
 1102   22.020   2992.72     1.1895     0.0256     1.0335     0.2202     1.6236     2.1637   352.3200     1.2713     0.6398
 1103   22.040   2993.74     1.2035     0.0264     1.0388     0.2204     1.6389     2.1921   352.6400     1.2862     0.6346
 1104   22.060   2994.77     1.2103     0.0267     1.0360     0.2206     1.6471     2.2084   352.9600     1.2941     0.6332
 1105   22.080   2995.80     1.2135     0.0269     1.0391     0.2208     1.6483     2.2138   353.2800     1.2951     0.6289
 1106   22.100   2996.87     1.2196     0.0269     1.0456     0.2210     1.6582     2.2097   353.6000     1.3046     0.6311
 1107   22.120   2997.93     1.2447     0.0271     1.0509     0.2212     1.6866     2.1908   353.9200     1.3327     0.6235
 1108   22.140   2998.99     1.2495     0.0272     1.0584     0.2214     1.6920     2.1744   354.2400     1.3378     0.6221
 1109   22.160   3000.06     1.2434     0.0271     1.0733     0.2216     1.6925     2.1791   354.5600     1.3380     0.6337
 1110   22.180   3001.13     1.2608     0.0280     1.0755     0.2218     1.7122     2.2325   354.8800     1.3574     0.6286
 1111   22.200   3002.22     1.2691     0.0277     1.0766     0.2220     1.7206     2.1891   355.2000     1.3654     0.6247
 1112   22.220   3003.30     1.2778     0.0270     1.0843     0.2222     1.7334     2.1128   355.5200     1.3779     0.6259
 1113   22.240   3004.33     1.2824     0.0277     1.0894     0.2224     1.7394     2.1568   355.8400     1.3836     0.6258
 1114   22.260   3005.41     1.2817     0.0277     1.0915     0.2226     1.7396     2.1622   356.1600     1.3835     0.6273
 1115   22.280   3006.49     1.2916     0.0287     1.0974     0.2228     1.7533     2.2263   356.4800     1.3968     0.6274
 1116   22.300   3007.53     1.2993     0.0282     1.0949     0.2230     1.7594     2.1737   356.8000     1.4026     0.6220
 1117   22.320   3008.58     1.3256     0.0279     1.0815     0.2232     1.7820     2.1161   357.1200     1.4249     0.6061
 1118   22.340   3009.64     1.3462     0.0284     1.0744     0.2234     1.7985     2.1166   357.4400     1.4410     0.5922
 1119   22.360   3010.71     1.3604     0.0286     1.0658     0.2236     1.8093     2.1079   357.7600     1.4515     0.5822
 1120   22.380   3011.71     1.3467     0.0290     1.0717     0.2238     1.7946     2.1469   358.0800     1.4365     0.5865
 1121   22.400   3012.80     1.3388     0.0281     1.0807     0.2240     1.7915     2.1017   358.4000     1.4331     0.5960
 1122   22.420   3013.83     1.3374     0.0277     1.0920     0.2242     1.7947     2.0693   358.7200     1.4360     0.6021
 1123   22.440   3014.87     1.3326     0.0283     1.1057     0.2244     1.7938     2.1199   359.0400     1.4347     0.6089
 1124   22.460   3015.97     1.3278     0.0288     1.1160     0.2246     1.7955     2.1705   359.3600     1.4361     0.6189
 1125   22.480   3016.96     1.3209     0.0287     1.1144     0.2248     1.7913     2.1597   359.6800     1.4316     0.6253
 1126   22.500   3018.09     1.3189     0.0288     1.1132     0.2250     1.7859     2.1826   360.0000     1.4259     0.6221
 1127   22.520   3019.13     1.3236     0.0289     1.1236     0.2252     1.7940     2.1827   360.3200     1.4337     0.6241
 1128   22.540   3027.98     1.3326     0.0296     1.1180     0.2254     1.8030     2.2271   360.6400     1.4423     0.6202
 1129   22.560   3038.88     1.3397     0.0283     1.1124     0.2256     1.8077     2.1325   360.9600     1.4467     0.6143
 1130   22.580   3044.45     1.3428     0.0280     1.1220     0.2258     1.8121     2.0873   361.2800     1.4508     0.6145
 1131   22.600   3045.47     1.3368     0.0285     1.1283     0.2260     1.8094     2.1353   361.6000     1.4478     0.6211
 1132   22.620   3046.56     1.3470     0.0287     1.1258     0.2262     1.8207     2.1273   361.9200     1.4587     0.6180
 1133   22.640   3047.64     1.3452     0.0279     1.1172     0.2264     1.8168     2.0732   362.2400     1.4545     0.6163
 1134   22.660   3048.71     1.3670     0.0284     1.1043     0.2266     1.8327     2.0864   362.5600     1.4701     0.6001
 1135   22.680   3049.81     1.3784     0.0283     1.0922     0.2268     1.8378     2.0524   362.8800     1.4749     0.5879
 1136   22.700   3050.86     1.3739     0.0284     1.0964     0.2270     1.8345     2.0638   363.2000     1.4713     0.5911
 1137   22.720   3051.92     1.3602     0.0280     1.0924     0.2272     1.8201     2.0562   363.5200     1.4566     0.5958
 1138   22.740   3053.01     1.3511     0.0278     1.0780     0.2274     1.8056     2.0505   363.8400     1.4418     0.5928
 1139   22.760   3054.04     1.3352     0.0276     1.0841     0.2276     1.7899     2.0627   364.1600     1.4257     0.5996
 1140   22.780   3055.11     1.3351     0.0272     1.0812     0.2278     1.7903     2.0297   364.4800     1.4258     0.6004
 1141   22.800   3056.17     1.3124     0.0257     1.0695     0.2280     1.7614     1.9497   364.8000     1.3966     0.6023
 1142   22.820   3057.29     1.2855     0.0251     1.0750     0.2282     1.7363     1.9420   365.1200     1.3712     0.6163
 1143   22.840   3058.30     1.2681     0.0248     1.0710     0.2284     1.7182     1.9486   365.4400     1.3528     0.6233
 1144   22.860   3059.37     1.2408     0.0250     1.0614     0.2286     1.6869     1.9958   365.7600     1.3211     0.6309
 1145   22.880   3060.45     1.2152     0.0253     1.0377     0.2288     1.6536     2.0681   366.0800     1.2876     0.6330
 1146   22.900   3061.49     1.2020     0.0253     1.0228     0.2290     1.6347     2.0950   366.4000     1.2683     0.6318
 1147   22.920   3062.56     1.1748     0.0258     1.0018     0.2292     1.5981     2.1766   366.7200     1.2314     0.6323
 1148   22.940   3063.61     1.1496     0.0240     0.9904     0.2294     1.5671     2.0798   367.0400     1.2001     0.6373
 1149   22.960   3064.65     1.1251     0.0222     0.9907     0.2296     1.5407     1.9638   367.3600     1.1734     0.6478
 1150   22.980   3065.70     1.1102     0.0174     1.0021     0.2298     1.5282     1.5625   367.6800     1.1605     0.6595
 1151   23.000   3066.72     1.1256     0.0237     1.0147     0.2300     1.5518     2.1286   368.0000     1.1838     0.6630
 1152   23.020   3067.77     1.2478     0.0278     1.0182     0.2302     1.6753     2.2991   368.3200     1.3070     0.6029
 1153   23.040   3068.88     1.9115     0.0292     0.9036     0.2304     2.3173     1.6942   368.6400     1.9487     0.3796
 1154   23.060   3069.95     2.7217     0.0332     0.6821     0.2306     3.0560     1.2981   368.9600     2.6871     0.2119
 1155   23.080   3070.98     3.3503     0.0388     0.4406     0.2308     3.5493     1.1783   369.2800     3.1800     0.0766
 1156   23.100   3072.06     3.4283     0.0500     0.4588     0.2310     3.6125     1.4439   369.6000     3.2429     0.0641
 1157   23.120   3073.15     3.0848     0.0567     0.4997     0.2312     3.2863     1.7949   369.9200     2.9164     0.0853
 1158   23.140   3074.19     2.7391     0.0558     0.5641     0.2314     2.9655     2.0020   370.2400     2.5952     0.1186
 1159   23.160   3075.28     2.6763     0.0505     0.5753     0.2316     2.9287     1.9063   370.5600     2.5581     0.1444
 1160   23.180   3076.36     2.7385     0.0415     0.4389     0.2318     2.9540     1.5130   370.8800     2.5832     0.1089
 1161   23.200   3077.47     2.5152     0.0359     0.4507     0.2320     2.6967     1.3968   371.2000     2.3255     0.0862
 1162   23.220   3078.51     2.2818     0.0340     0.5006     0.2322     2.4863     1.4492   371.5200     2.1147     0.1207
 1163   23.240   3079.58     1.9542     0.0327     0.5299     0.2324     2.1697     1.5941   371.8400     1.7979     0.1567
 1164   23.260   3080.67     1.6362     0.0301     0.6093     0.2326     1.8794     1.7549   372.1600     1.5072     0.2304
 1165   23.280   3081.70     1.4875     0.0286     0.6682     0.2328     1.7622     1.8820   372.4800     1.3897     0.3032
 1166   23.300   3082.78     1.4573     0.0271     0.7119     0.2330     1.7517     1.8538   372.8000     1.3789     0.3393
 1167   23.320   3083.83     1.4470     0.0270     0.7362     0.2332     1.7536     1.8607   373.1200     1.3805     0.3599
 1168   23.340   3084.91     1.4528     0.0287     0.7732     0.2334     1.7747     1.9802   373.4400     1.4013     0.3804
 1169   23.360   3085.94     1.5079     0.0292     0.8015     0.2336     1.8396     1.9629   373.7600     1.4658     0.3794
 1170   23.380   3087.02     1.5921     0.0308     0.8001     0.2338     1.9267     1.9475   374.0800     1.5526     0.3625
 1171   23.400   3088.05     1.6750     0.0324     0.7902     0.2340     2.0131     1.9547   374.4000     1.6387     0.3487
 1172   23.420   3089.13     1.7095     0.0378     0.8035     0.2342     2.0409     2.2042   374.7200     1.6662     0.3331
 1173   23.440   3090.20     1.8423     0.0489     0.8807     0.2344     2.2014     2.7654   375.0400     1.8264     0.3399
 1174   23.460   3091.23     2.1973     0.0431     0.8796     0.2346     2.5745     2.0442   375.3600     2.1991     0.3022
 1175   23.480   3092.34     3.2717     0.0512     0.9067     0.2348     3.6440     1.6570   375.6800     3.2684     0.2004
 1176   23.500   3093.46     6.6563     0.0716     0.6714     0.2350     7.0023     1.2088   376.0000     6.6263     0.0921
 1177   23.520   3094.65    11.6986     0.0939     0.1750     0.2352    11.8322     0.9661   376.3200    11.4559     0.0076
 1178   23.540   3095.85    16.7756     0.1143    -0.0946     0.2354    16.7423     0.8351   376.6400    16.3657    -0.0192
 1179   23.560   3097.05    20.7602     0.1347    -0.1014     0.2356    20.7121     0.7040   376.9600    20.3351    -0.0173
 1180   23.580   3098.29    24.3118     0.1552    -0.0469     0.2358    24.2921     0.6521   377.2800    23.9148    -0.0118
 1181   23.600   3099.35    25.9717     0.1828    -0.1589     0.2360    25.9241     0.7043   377.6000    25.5465    -0.0137
 1182   23.620   3100.46    22.8167     0.2015    -0.2076     0.2362    22.7219     0.8102   377.9200    22.3440    -0.0207
 1183   23.640   3102.61    19.6012     0.2026    -0.1549     0.2364    19.5285     0.8776   378.2400    19.1503    -0.0217
 1184   23.660   3104.75    16.3857     0.1828    -0.1023     0.2366    16.3351     0.7921   378.5600    15.9566    -0.0227
 1185   23.680   3106.64    13.5572     0.1794    -0.0809     0.2368    13.5221     1.1977   378.8800    13.1432    -0.0244
 1186   23.700   3107.77    12.5738     0.1935    -0.0673     0.2370    12.5389     1.5054   379.2000    12.1597    -0.0263
 1187   23.720   3108.91    12.2497     0.2259     0.0287     0.2372    12.2433     1.8404   379.5200    11.8638    -0.0213
 1188   23.740   3110.05    11.3869     0.2509     0.1156     0.2374    11.4266     2.1920   379.8400    11.0467    -0.0129
 1189   23.760   3111.14     9.5914     0.2378     0.1388     0.2376     9.6478     2.4012   380.1600     9.2677    -0.0111
 1190   23.780   3112.24     7.9332     0.2166     0.1833     0.2378     7.9956     2.7027   380.4800     7.6151    -0.0117
 1191   23.800   3113.36     6.8204     0.1989     0.2846     0.2380     6.9296     2.7615   380.8000     6.5488     0.0034
 1192   23.820   3114.46     6.1483     0.1946     0.3361     0.2382     6.2823     3.1161   381.1200     5.9012     0.0138
 1193   23.840   3115.56     5.7011     0.2036     0.3439     0.2384     5.8482     3.4922   381.4400     5.4667     0.0204
 1194   23.860   3116.69     6.4583     0.2213     0.4629     0.2386     6.6281     3.7625   381.7600     6.2463     0.0264
 1195   23.880   3117.78     7.7119     0.2222     0.5401     0.2388     7.9368     3.1187   382.0800     7.5547     0.0393
 1196   23.900   3118.91     9.0426     0.2286     0.2796     0.2390     9.2215     2.5624   382.4000     8.8391     0.0213
 1197   23.920   3120.03     9.4476     0.2348     0.0177     0.2392     9.4825     2.5057   382.7200     9.0998    -0.0172
 1198   23.940   3121.14     9.2008     0.2262    -0.1063     0.2394     9.1709     2.4457   383.0400     8.7878    -0.0354
 1199   23.960   3122.25     8.8828     0.2267    -0.1300     0.2396     8.8264     2.5118   383.3600     8.4430    -0.0443
 1200   23.980   3123.39     8.1115     0.2192    -0.0954     0.2398     8.0666     2.5516   383.6800     7.6829    -0.0451
 1201   24.000   3124.50     7.2118     0.2078    -0.1252     0.2400     7.1610     2.7535   384.0000     6.7770    -0.0533
 1202   24.020   3125.59     6.3826     0.1789    -0.1563     0.2402     6.3156     2.6288   384.3200     5.9312    -0.0675
 1203   24.040   3126.72     5.2344     0.1570    -0.0978     0.2404     5.1769     2.9117   384.6400     4.7923    -0.0788
 1204   24.060   3127.84     4.4440     0.1485     0.1359     0.2406     4.4638     3.1229   384.9600     4.0789    -0.0473
 1205   24.080   3128.94     4.1489     0.1297     0.1619     0.2408     4.2250     3.0568   385.2800     3.8398    -0.0155
 1206   24.100   3130.07     4.1150     0.1312     0.2364     0.2410     4.2180     3.1832   385.6000     3.8324     0.0011
 1207   24.120   3131.17     4.0500     0.1325     0.2096     0.2412     4.1367     3.2352   385.9200     3.7508    -0.0093
 1208   24.140   3132.24     4.0335     0.1219     0.2505     0.2414     4.1242     3.0384   386.2400     3.7379    -0.0068
 1209   24.160   3133.35     4.0451     0.1145     0.2699     0.2416     4.1660     2.8202   386.5600     3.7795     0.0122
 1210   24.180   3134.53     3.9337     0.1036     0.1356     0.2418     4.0017     2.6052   386.8800     3.6148    -0.0223
 1211   24.200   3135.62     3.6477     0.0923     0.1507     0.2420     3.7024     2.4184   387.2000     3.3152    -0.0338
 1212   24.220   3136.77     3.2031     0.0739     0.2948     0.2422     3.3120     2.2807   387.5200     2.9245     0.0059
 1213   24.240   3137.83     2.8340     0.0661     0.3522     0.2424     2.9699     2.3078   387.8400     2.5820     0.0315
 1214   24.260   3138.95     2.5687     0.0516     0.3805     0.2426     2.7219     1.9865   388.1600     2.3337     0.0524
 1215   24.280   3140.07     2.3443     0.0433     0.4446     0.2428     2.5241     1.8301   388.4800     2.1356     0.0869
 1216   24.300   3141.17     2.1970     0.0359     0.4794     0.2430     2.3916     1.6210   388.8000     2.0028     0.1099
 1217   24.320   3142.24     2.0650     0.0285     0.4947     0.2432     2.2725     1.3678   389.1200     1.8834     0.1332
 1218   24.340   3143.33     1.9132     0.0254     0.5127     0.2434     2.1245     1.3084   389.4400     1.7351     0.1499
 1219   24.360   3144.39     1.7019     0.0230     0.5163     0.2436     1.9211     1.3321   389.7600     1.5313     0.1816
 1220   24.380   3145.53     1.5478     0.0244     0.5337     0.2438     1.7687     1.5453   390.0800     1.3786     0.2048
 1221   24.400   3146.62     1.4403     0.0270     0.5558     0.2440     1.6702     1.8339   390.4000     1.2798     0.2371
 1222   24.420   3147.67     1.3870     0.0296     0.5781     0.2442     1.6267     2.1224   390.7200     1.2360     0.2642
 1223   24.440   3148.70     1.3507     0.0301     0.5987     0.2444     1.5987     2.2230   391.0400     1.2076     0.2866
 1224   24.460   3149.86     1.3258     0.0326     0.6312     0.2446     1.5865     2.4597   391.3600     1.1952     0.3147
 1225   24.480   3152.12     1.3332     0.0280     0.6839     0.2448     1.6080     2.1091   391.6800     1.2163     0.3363
 1226   24.500   3162.49     1.3228     0.0278     0.7695     0.2450     1.6336     2.0815   392.0000     1.2416     0.3965
 1227   24.520   3172.86     1.3125     0.0183     0.8551     0.2452     1.6592     1.3746   392.3200     1.2669     0.4566
 1228   24.540   3179.23     1.3307     0.0306     0.9022     0.2454     1.7012     2.3228   392.6400     1.3086     0.4866
 1229   24.560   3180.26     1.8046     0.0281     1.0044     0.2456     2.2138     1.6440   392.9600     1.8208     0.4046
 1230   24.580   3181.43     4.6768     0.0256     0.9508     0.2458     5.0948     0.5900   393.2800     4.7015     0.1653
 1231   24.600   3182.62     8.6597     0.0326     0.5512     0.2460     9.0018     0.4276   393.6000     8.6082     0.0671
 1232   24.620   3183.80    12.8369     0.0400    -0.0159     0.2462    12.8712     0.3232   393.9200    12.4773    -0.0131
 1233   24.640   3185.00    16.3155     0.0528     0.0841     0.2464    16.3345     0.3338   394.2400    15.9403    -0.0127
 1234   24.660   3186.21    18.7913     0.0649     0.1596     0.2466    18.8585     0.3529   394.5600    18.4640    -0.0047
 1235   24.680   3187.42    20.2518     0.0807     0.1469     0.2468    20.3153     0.4040   394.8800    19.9204    -0.0048
 1236   24.700   3188.62    20.5444     0.0964     0.1114     0.2470    20.5937     0.4681   395.2000    20.1985    -0.0064
 1237   24.720   3189.71    19.5846     0.1114     0.1193     0.2472    19.6374     0.5536   395.5200    19.2419    -0.0063
 1238   24.740   3190.86    18.0798     0.1282     0.1291     0.2474    18.1356     0.6822   395.8400    17.7398    -0.0065
 1239   24.760   3192.00    16.1473     0.1565     0.1719     0.2476    16.2129     0.9621   396.1600    15.8168    -0.0058
 1240   24.780   3193.14    13.9283     0.2057     0.1935     0.2478    14.0062     1.4572   396.4800    13.6097    -0.0046
 1241   24.800   3194.23    11.3269     0.2278     0.1899     0.2480    11.4062     1.9877   396.8000    11.0094    -0.0054
 1242   24.820   3195.31     8.5904     0.2331     0.1930     0.2482     8.6705     2.6736   397.1200     8.2734    -0.0070
 1243   24.840   3196.42     6.5163     0.2159     0.2120     0.2484     6.6024     3.2718   397.4400     6.2049    -0.0070
 1244   24.860   3197.52     5.3504     0.1906     0.2939     0.2486     5.4657     3.4392   397.7600     5.0679     0.0053
 1245   24.880   3198.62     4.7177     0.1671     0.2516     0.2488     4.8319     3.4672   398.0800     4.4338     0.0051
 1246   24.900   3199.70     4.0000     0.1455     0.2563     0.2490     4.1093     3.6156   398.4000     3.7109     0.0031
 1247   24.920   3200.84     3.6669     0.1326     0.3598     0.2492     3.7936     3.6014   398.7200     3.3949     0.0155
 1248   24.940   3201.92     3.6223     0.0993     0.5438     0.2494     3.8284     2.7417   399.0400     3.4294     0.0703
 1249   24.960   3203.03     3.6273     0.0892     0.5032     0.2496     3.8455     2.4582   399.3600     3.4461     0.0783
 1250   24.980   3204.12     3.5683     0.0953     0.5074     0.2498     3.7815     2.6654   399.6800     3.3819     0.0763
 1251   25.000   3205.18     3.4975     0.0866     0.4987     0.2500     3.7061     2.4617   400.0000     3.3061     0.0746
 1252   25.020   3206.32     3.3740     0.0810     0.5299     0.2502     3.5922     2.3807   400.3200     3.1919     0.0844
 1253   25.040   3207.38     3.6501     0.0828     0.5407     0.2504     3.8745     2.3372   400.6400     3.4739     0.0818
 1254   25.060   3208.54     4.3505     0.0909     0.4974     0.2506     4.5672     2.1978   400.9600     4.1662     0.0639
 1255   25.080   3209.62     5.2776     0.0875     0.4208     0.2508     5.4630     1.7214   401.2800     5.0617     0.0379
 1256   25.100   3210.80     6.0576     0.0636     0.3054     0.2510     6.2082     1.0683   401.6000     5.8066     0.0186
 1257   25.120   3211.95     6.8162     0.0492     0.3145     0.2512     6.9468     0.7372   401.9200     6.5449     0.0091
 1258   25.140   3213.15     7.9844     0.0405     0.2297     0.2514     8.0985     0.5254   402.2400     7.6962     0.0027
 1259   25.160   3214.30     9.5425     0.0354     0.1112     0.2516     9.5980     0.3823   402.5600     9.1955    -0.0130
 1260   25.180   3215.48    11.3210     0.0462     0.0943     0.2518    11.3643     0.4133   402.8800    10.9614    -0.0136
 1261   25.200   3216.68    12.1678     0.0571     0.0674     0.2520    12.1993     0.4713   403.2000    11.7961    -0.0150
 1262   25.220   3217.84    12.5819     0.0739     0.0910     0.2522    12.6140     0.5903   403.5200    12.2105    -0.0144
 1263   25.240   3219.00    13.3048     0.1006     0.1710     0.2524    13.3694     0.7643   403.8400    12.9656    -0.0076
 1264   25.260   3220.19    14.3185     0.1062     0.1819     0.2526    14.3920     0.7571   404.1600    13.9878    -0.0055
 1265   25.280   3221.37    16.3234     0.0958     0.1994     0.2528    16.4019     0.6173   404.4800    15.9974    -0.0041
 1266   25.300   3222.59    19.4560     0.0790     0.2084     0.2530    19.5441     0.4252   404.8000    19.1393    -0.0023
 1267   25.320   3223.73    22.9690     0.0772     0.2091     0.2532    23.0543     0.3445   405.1200    22.6492    -0.0022
 1268   25.340   3224.86    27.3118     0.0863     0.0090     0.2534    27.3577     0.3252   405.4400    26.9523    -0.0053
 1269   25.360   3225.97    30.4408     0.0940    -0.1339     0.2536    30.3886     0.3144   405.7600    29.9828    -0.0126
 1270   25.380   3227.05    32.4315     0.1046    -0.1459     0.2538    32.3699     0.3272   406.0800    31.9638    -0.0125
 1271   25.400   3228.13    33.4729     0.1235    -0.1299     0.2540    33.4154     0.3707   406.4000    33.0090    -0.0118
 1272   25.420   3229.17    33.7677     0.1361    -0.0705     0.2542    33.7235     0.4042   406.7200    33.3168    -0.0108
 1273   25.440   3230.26    34.3969     0.1358     0.0290     0.2544    34.4010     0.3980   407.0400    33.9940    -0.0072
 1274   25.460   3231.29    34.5932     0.1418     0.0837     0.2546    34.6265     0.4108   407.3600    34.2192    -0.0051
 1275   25.480   3232.38    34.7893     0.1403     0.1599     0.2548    34.8432     0.4039   407.6800    34.4355    -0.0037
 1276   25.500   3233.43    34.7747     0.1340     0.1627     0.2550    34.8526     0.3850   408.0000    34.4446    -0.0020
 1277   25.520   3234.45    33.9789     0.1236     0.1089     0.2552    34.0297     0.3627   408.3200    33.6214    -0.0040
 1278   25.540   3235.45    31.9746     0.1124     0.0687     0.2554    32.0061     0.3432   408.6400    31.5975    -0.0057
 1279   25.560   3236.49    29.9349     0.1045     0.0796     0.2556    29.9667     0.3480   408.9600    29.5577    -0.0061
 1280   25.580   3237.52    27.9254     0.0968     0.0961     0.2558    27.9637     0.3442   409.2800    27.5544    -0.0060
 1281   25.600   3238.51    25.7302     0.0872     0.1187     0.2560    25.7748     0.3375   409.6000    25.3652    -0.0059
 1282   25.620   3239.51    23.5237     0.0873     0.1456     0.2562    23.5832     0.3552   409.9200    23.1732    -0.0049
 1283   25.640   3240.54    21.2517     0.0921     0.1656     0.2564    21.3183     0.4184   410.2400    20.9080    -0.0047
 1284   25.660   3241.52    19.3271     0.0918     0.2045     0.2566    19.4052     0.4621   410.5600    18.9947    -0.0037
 1285   25.680   3242.55    17.6514     0.0909     0.2266     0.2568    17.7447     0.5104   410.8800    17.3338    -0.0020
 1286   25.700   3243.53    16.2507     0.0826     0.2580     0.2570    16.3544     0.4926   411.2000    15.9432    -0.0006
 1287   25.720   3244.56    14.7668     0.0748     0.2935     0.2572    14.8818     0.4880   411.5200    14.4703     0.0012
 1288   25.740   3245.72    13.4052     0.0636     0.3785     0.2574    13.5588     0.4633   411.8400    13.1470     0.0083
 1289   25.760   3246.81    12.5634     0.0558     0.4572     0.2576    12.7413     0.4396   412.1600    12.3292     0.0135
 1290   25.780   3247.98    11.9855     0.0504     0.4860     0.2578    12.1893     0.4169   412.4800    11.7768     0.0193
 1291   25.800   3249.19    11.6284     0.0515     0.5192     0.2580    11.8452     0.4401   412.8000    11.4324     0.0226
 1292   25.820   3250.36    11.5733     0.0533     0.5155     0.2582    11.7941     0.4606   413.1200    11.3810     0.0235
 1293   25.840   3251.47    11.4498     0.0581     0.5297     0.2584    11.6677     0.5065   413.4400    11.2543     0.0232
 1294   25.860   3252.64    11.3884     0.0639     0.5338     0.2586    11.6123     0.5617   413.7600    11.1985     0.0245
 1295   25.880   3253.79    11.6251     0.0719     0.5156     0.2588    11.8448     0.6222   414.0800    11.4307     0.0231
 1296   25.900   3254.97    12.0173     0.0813     0.5163     0.2590    12.2345     0.6834   414.4000    11.8201     0.0218
 1297   25.920   3256.12    12.5305     0.0894     0.5188     0.2592    12.7497     0.7237   414.7200    12.3349     0.0213
 1298   25.940   3257.26    13.1556     0.1013     0.4919     0.2594    13.3681     0.7869   415.0400    12.9531     0.0190
 1299   25.960   3258.42    13.8470     0.1145     0.4504     0.2596    14.0396     0.8338   415.3600    13.6242     0.0146
 1300   25.980   3259.58    14.5859     0.1315     0.4322     0.2598    14.7699     0.9111   415.6800    14.3542     0.0124
 1301   26.000   3260.74    15.3411     0.1475     0.4083     0.2600    15.5179     0.9778   416.0000    15.1019     0.0107
 1302   26.020   3261.80    16.0692     0.1623     0.3796     0.2602    16.2304     1.0272   416.3200    15.8141     0.0078
 1303   26.040   3262.82    16.7357     0.1760     0.3409     0.2604    16.8844     1.0677   416.6400    16.4678     0.0057
 1304   26.060   3263.88    17.6123     0.1853     0.2332     0.2606    17.7253     1.0707   416.9600    17.3083     0.0005
 1305   26.080   3264.91    18.3255     0.2009     0.2041     0.2608    18.4106     1.1073   417.2800    17.9933    -0.0032
 1306   26.100   3265.95    18.9418     0.2089     0.1898     0.2610    19.0230     1.1134   417.6000    18.6054    -0.0036
 1307   26.120   3267.00    19.5690     0.2114     0.1631     0.2612    19.6402     1.0899   417.9200    19.2223    -0.0048
 1308   26.140   3268.05    20.2540     0.2091     0.0965     0.2614    20.3052     1.0427   418.2400    19.8870    -0.0070
 1309   26.160   3269.13    20.8697     0.2013    -0.0054     0.2616    20.8763     0.9705   418.5600    20.4577    -0.0120
 1310   26.180   3270.16    21.4354     0.1670    -0.0677     0.2618    21.4183     0.7826   418.8800    20.9994    -0.0144
 1311   26.200   3271.23    22.2942     0.1393    -0.1761     0.2620    22.2358     0.6340   419.2000    21.8166    -0.0184
 1312   26.220   3272.31    23.0343     0.1371    -0.2124     0.2622    22.9501     0.6027   419.5200    22.5306    -0.0205
 1313   26.240   3273.34    23.6474     0.1558    -0.2224     0.2624    23.5520     0.6646   419.8400    23.1322    -0.0212
 1314   26.260   3274.38    23.7508     0.1724    -0.2236     0.2626    23.6521     0.7265   420.1600    23.2319    -0.0214
 1315   26.280   3275.46    23.6935     0.1864    -0.2283     0.2628    23.5978     0.7842   420.4800    23.1773    -0.0212
 1316   26.300   3276.48    23.2945     0.1837    -0.2317     0.2630    23.1993     0.7813   420.8000    22.7785    -0.0215
 1317   26.320   3277.51    22.9456     0.1768    -0.2130     0.2632    22.8525     0.7662   421.1200    22.4313    -0.0216
 1318   26.340   3278.53    22.6110     0.1640    -0.1975     0.2634    22.5260     0.7183   421.4400    22.1046    -0.0211
 1319   26.360   3279.57    22.1388     0.1581    -0.1951     0.2636    22.0564     0.7080   421.7600    21.6347    -0.0212
 1320   26.380   3280.58    21.8260     0.1569    -0.1802     0.2638    21.7484     0.7142   422.0800    21.3263    -0.0210
 1321   26.400   3281.66    21.5428     0.1524    -0.1650     0.2640    21.4710     0.7011   422.4000    21.0486    -0.0207
 1322   26.420   3282.66    21.4027     0.1478    -0.1595     0.2642    21.3369     0.6880   422.7200    20.9142    -0.0201
 1323   26.440   3283.67    21.0468     0.1484    -0.1754     0.2644    20.9724     0.7017   423.0400    20.5494    -0.0215
 1324   26.460   3284.69    20.6961     0.1544    -0.1681     0.2646    20.6232     0.7449   423.3600    20.1999    -0.0217
 1325   26.480   3285.72    20.4991     0.1609    -0.1610     0.2648    20.4252     0.7839   423.6800    20.0016    -0.0220
 1326   26.500   3295.01    20.3516     0.1753    -0.1025     0.2650    20.3001     0.8553   424.0000    19.8761    -0.0195
 1327   26.520   3304.84    20.2041     0.1887    -0.0441     0.2652    20.1771     0.9209   424.3200    19.7528    -0.0166
 1328   26.540   3313.01    20.1212     0.1980    -0.0240     0.2654    20.1129     0.9810   424.6400    19.6883    -0.0145
 1329   26.560   3314.06    20.3742     0.2075    -0.0067     0.2656    20.3672     1.0249   424.9600    19.9423    -0.0142
 1330   26.580   3315.14    20.8250     0.2219     0.0217     0.2658    20.8318     1.0766   425.2800    20.4065    -0.0122
 1331   26.600   3316.15    21.7056     0.2258     0.0598     0.2660    21.7255     1.0519   425.6000    21.2999    -0.0103
 1332   26.620   3317.17    22.6552     0.2260     0.0363     0.2662    22.6794     1.0057   425.9200    22.2535    -0.0094
 1333   26.640   3318.23    23.7231     0.2292     0.0590     0.2664    23.7426     0.9744   426.2400    23.3164    -0.0094
 1334   26.660   3319.30    24.8684     0.2327     0.0773     0.2666    24.8975     0.9452   426.5600    24.4710    -0.0081
 1335   26.680   3320.40    26.1075     0.2349     0.0610     0.2668    26.1384     0.9092   426.8800    25.7115    -0.0075
 1336   26.700   3321.49    27.5241     0.2238     0.0250     0.2670    27.5408     0.8231   427.2000    27.1136    -0.0084
 1337   26.720   3322.55    28.6031     0.2114    -0.0243     0.2672    28.6033     0.7455   427.5200    28.1757    -0.0095
 1338   26.740   3323.59    29.3067     0.2039    -0.1082     0.2674    29.2671     0.7001   427.8400    28.8393    -0.0125
 1339   26.760   3324.65    29.7898     0.2045    -0.1224     0.2676    29.7407     0.6891   428.1600    29.3125    -0.0131
 1340   26.780   3325.76    30.1182     0.2223    -0.1304     0.2678    30.0616     0.7407   428.4800    29.6332    -0.0136
 1341   26.800   3326.81    30.5267     0.2670    -0.1400     0.2680    30.4772     0.8785   428.8000    30.0484    -0.0128
 1342   26.820   3327.86    30.8982     0.3188    -0.1253     0.2682    30.8535     1.0363   429.1200    30.4243    -0.0123
 1343   26.840   3328.89    30.6060     0.3651    -0.1258     0.2684    30.5566     1.1864   429.4400    30.1271    -0.0128
 1344   26.860   3329.93    29.6839     0.3968    -0.1177     0.2686    29.6335     1.3210   429.7600    29.2037    -0.0133
 1345   26.880   3330.97    28.5311     0.4031    -0.1003     0.2688    28.4859     1.3965   430.0800    28.0558    -0.0134
 1346   26.900   3332.00    27.5495     0.3824    -0.1011     0.2690    27.5069     1.3758   430.4000    27.0765    -0.0137
 1347   26.920   3333.05    26.8725     0.3622    -0.0545     0.2692    26.8430     1.3434   430.7200    26.4122    -0.0129
 1348   26.940   3334.07    26.6574     0.3325    -0.0547     0.2694    26.6349     1.2465   431.0400    26.2038    -0.0123
 1349   26.960   3335.14    27.1469     0.2994    -0.0330     0.2696    27.1273     1.1081   431.3600    26.6960    -0.0118
 1350   26.980   3336.24    28.6067     0.2783     0.0317     0.2698    28.6092     0.9808   431.6800    28.1775    -0.0094
 1351   27.000   3337.35    30.1060     0.2807     0.1120     0.2700    30.1386     0.9398   432.0000    29.7066    -0.0065
 1352   27.020   3338.43    31.4697     0.3024     0.1332     0.2702    31.5194     0.9661   432.3200    31.0870    -0.0049
 1353   27.040   3339.49    32.3929     0.3321     0.1185     0.2704    32.4411     1.0265   432.6400    32.0085    -0.0049
 1354   27.060   3340.56    32.7577     0.3534     0.1356     0.2706    32.8077     1.0796   432.9600    32.3748    -0.0047
 1355   27.080   3341.66    33.1405     0.3831     0.1627     0.2708    33.2074     1.1570   433.2800    32.7741    -0.0034
 1356   27.100   3342.75    33.5631     0.4064     0.1939     0.2710    33.6397     1.2219   433.6000    33.2061    -0.0027
 1357   27.120   3343.86    34.3682     0.4314     0.2046     0.2712    34.4584     1.2653   433.9200    34.0244    -0.0017
 1358   27.140   3344.94    35.2034     0.4491     0.2351     0.2714    35.2959     1.2839   434.2400    34.8616    -0.0015
 1359   27.160   3346.04    36.1291     0.4568     0.2539     0.2716    36.2356     1.2744   434.5600    35.8010    -0.0005
 1360   27.180   3347.17    37.1242                0.2198     0.2718    37.2167              434.8800    36.7818    -0.0014
 1361   27.200   3348.28    38.2737                0.1850     0.2720    38.3578              435.2000    37.9226    -0.0019
 1362   27.220   3349.46    39.8366                0.2070     0.2722    39.9192              435.5200    39.4837    -0.0019
 1363   27.240   3350.67    41.8986                0.1909     0.2724    41.9841              435.8400    41.5483    -0.0017
 1364   27.260   3351.92    44.5409                0.2143     0.2726    44.6191              436.1600    44.1829    -0.0020
 1365   27.271   3352.75    46.5912                           0.2727    46.6920              436.3424    46.2556    -0.0007
 
 
